timestamp,angle,linear_acceleration_x,linear_acceleration_y,linear_acceleration_z,angular_velocity_x,angular_velocity_y,angular_velocity_z
1760958254.105346,-6.415076774762612,-0.07298650484107845,0.9922229581185816,-0.141095713541749,11.170085959397023,-4.405783323739152,13.098392438762845
1760958254.1153722,-6.193172505081433,-0.07174955713814543,0.9924581969662933,-0.1416758404355218,12.182074069944548,-3.2717369988568654,14.874154846152246
1760958254.1255345,-5.959104799866647,-0.06982943342479035,0.9889198637783481,-0.14424161773546104,12.969548218715367,-2.430108164271816,16.849254189825693
1760958254.1353953,-5.710234674706141,-0.0662474224369454,0.9826646600848115,-0.14909670504647196,13.497607893601941,-1.9813584034849996,18.889455264148854
1760958254.145458,-5.443332962038345,-0.060184990412187195,0.9748222699148642,-0.15609262583829708,13.760449504369447,-1.9511609413007127,20.874049892875433
1760958254.1552873,-5.15505643899799,-0.0511487691687458,0.9664499117558951,-0.16469349044185042,13.773335524396524,-2.288787270244198,22.69789915461385
1760958254.165305,-4.84261890605362,-0.0390876733021956,0.9584308145396104,-0.1740930459801471,13.564168744080728,-2.876529581557473,24.272502301533592
1760958254.175405,-4.504538116588995,-0.02444784503472758,0.9514202337419071,-0.18336138352913503,13.166049931789619,-3.548122233668657,25.52688853821191
1760958254.1855257,-4.14133256351718,-0.008159966240954143,0.9458341592667547,-0.19159726738230742,12.611685733794545,-4.113058737959876,26.408770158190357
1760958254.1956189,-3.756051253337327,0.0084394869115514,0.9418706329821747,-0.19806319393575328,11.929977232617796,-4.383186038995731,26.885968652290035
1760958254.205307,-3.354541948878744,0.023744650238540287,0.9395517319384838,-0.20228448890163656,11.144660970609344,-4.197956815623653,26.947750385567648
1760958254.2153203,-2.945396701475566,0.03605916083433325,0.9387741706501025,-0.20410083494013262,10.274560013706322,-3.4451485170234823,26.605487900242853
1760958254.2253506,-2.5395542394638326,0.04379686876406511,0.939357091537241,-0.2036669471631529,9.33485632779913,-2.0746298673001227,25.892053950975377
1760958254.2354674,-2.149581837098334,0.045680834525686866,0.9410776683522851,-0.20140670714065909,8.3387975580841,-0.10378301127793194,24.85955293065315
1760958254.2453043,-1.788699144645005,0.04091720435356871,0.9436895772246828,-0.1979309893032678,7.299352377147673,2.3856509986963252,23.575331908355913
1760958254.2552567,-1.4696390545324047,0.029322910142787446,0.9469256388764581,-0.19393378914,6.23047392199385,5.25841166099383,22.116583453480374
1760958254.2652469,-1.2034648229529072,0.011389296192819,0.9504919143777959,-0.1900843426101677,5.147781834433829,8.34242932655974,20.564147817275074
1760958254.275272,-0.998478571421022,-0.01173266724584469,0.9540637717964827,-0.18693414192184965,4.068612032170881,11.448980474272002,18.9962717643436
1760958254.285264,-0.8593615032298196,-0.03833405031950282,0.957293507707788,-0.18485542136913546,3.0114946637050926,14.393612235674894,17.483057361357417
1760958254.2956078,-0.7866733955354825,-0.06633379280426373,0.9598342321816772,-0.18402032665555385,1.9951904968808643,17.015280572385205,16.082158791500568
1760958254.3053863,-0.7767998835836062,-0.09352890675429847,0.9613775968378707,-0.18441870538631303,1.0374531945993744,19.191576982823896,14.836038642166454
1760958254.3153405,-0.822370071078084,-0.11787092819261412,0.9616966085094126,-0.18590168463715304,0.1537146286109686,20.84853078020138,13.7708691668874
1760958254.325325,-0.9130867568234153,-0.13771919248782857,0.960682301793879,-0.1882332557101021,-0.6440898387965464,21.964141787514677,12.89699268229121
1760958254.3353264,-1.0368393011192516,-0.15202385678883903,0.9583651461865861,-0.19113538138656824,-1.3483610977391054,22.565470142808326,12.210718014762769
1760958254.3452868,-1.1809257305570549,-0.16040792038330987,0.9549171436843141,-0.1943207946867559,-1.9562164434903246,22.719798780665926,11.697120201395707
1760958254.3554842,-1.3332054889297413,-0.16314116231400608,0.9506366759202807,-0.19751539276378283,-2.4693679819565326,22.521089532259527,11.333455952776498
1760958254.365302,-1.483032524409728,-0.16102041730503208,0.9459233069822668,-0.2004749666265967,-2.893519085810531,22.07360035266592,11.092819469162556
1760958254.3753023,-1.621867157635358,-0.1551840247827152,0.9412518671644329,-0.20300002198196962,-3.237341374017121,21.474988045483347,10.947713120676607
1760958254.3854697,-1.743521890882133,-0.14689391202637705,0.937153238715907,-0.2049502489038799,-3.511135299253952,20.801370490231985,10.873260823099152
1760958254.3953822,-1.8440530712456529,-0.13731971331269818,0.9342040851511973,-0.20625774632278568,-3.725334170568253,20.096604046791352,10.849835535833172
1760958254.4054334,-1.9213617736697024,-0.12735710820703916,0.933021339503784,-0.2069359134178044,-3.889095290805609,19.367450221742356,10.86490112260229
1760958254.4154925,-1.974607593513863,-0.11750665045185753,0.9342523142289709,-0.20707994890623907,-4.009307920297882,18.58544105857479,10.913878178006392
1760958254.425322,-2.0035622403203774,-0.10782951388167232,0.9385502032796966,-0.20685521713775817,-4.090365728971591,17.695255104910462,10.999844183552186
1760958254.4354947,-2.0080318916891313,-0.0979840023752865,0.9465279159971802,-0.20647058137021143,-4.134942876170558,16.628453452945905,11.131901822049437
1760958254.4453197,-1.9874573400204942,-0.08733336745328746,0.9586888728659702,-0.2061350466998948,-4.145799749117833,15.320627161665303,11.322128654856616
1760958254.455366,-1.9407623936982892,-0.0751040132866537,0.9753398595361764,-0.2059982425222666,-4.128414828800967,13.729451074841405,11.581171044260756
1760958254.465528,-1.8664715377450598,-0.060565992203285894,0.9964974828326792,-0.20607912437995335,-4.09406682281722,11.850878376231748,11.912759353374403
1760958254.4753013,-1.763067278658204,-0.04320561276440129,1.0218046839489114,-0.20619339877436443,-4.0628903848537465,9.730802191863535,12.307684776701839
1760958254.485352,-1.6295153374433209,-0.022862479606070595,1.05047468492767,-0.20589734805002538,-4.066377714877235,7.470002458614968,12.7380606553146
1760958254.495405,-1.4658598574597894,0.0001900931763558868,1.081276351274769,-0.20446980355924005,-4.14877435280755,5.221071342093545,13.152930432115744
1760958254.5052476,-1.273784565562547,0.025232523289773354,1.11257053036007,-0.20095047190635912,-4.366815926732942,3.1771583948750455,13.47638871637835
1760958254.5155396,-1.0570459531318797,0.05115475745302863,1.1424039985234375,-0.1942407006116993,-4.787310503572754,1.5536224184944083,13.609253798049378
1760958254.525353,-0.8217043002823894,0.0765714876151697,1.1686632202510296,-0.18325621135864442,-5.482272579009943,0.5648167439323614,13.434897985728087
1760958254.5353901,-0.576104798617677,0.09997964511998486,1.1892796604172975,-0.16710715483353497,-6.521723030728131,0.3990686517877259,12.829115002179842
1760958254.5456765,-0.3305951884488632,0.11993348043710528,1.2024638269950343,-0.1452735584507804,-7.96482892525337,1.195294917267326,11.673023505744926
1760958254.5553765,-0.09700556994478543,0.13520792443868684,1.2069336325875941,-0.11774390951152969,-9.85059472624883,3.024540295850401,9.8672268064932
1760958254.565515,0.11204898740021428,0.14492283708647305,1.202098350207754,-0.08508972796430947,-12.189646782401965,5.87900149425775,7.3450271391630215
1760958254.5754008,0.28396122448590505,0.1486098017692752,1.1881625871984158,-0.048458773661523305,-14.958653367095286,9.66988581621522,4.08257047102206
1760958254.5855918,0.40693357157938764,0.14621621619808528,1.166125774478303,-0.009483168066560457,-18.098550141641013,14.23400673067278,0.10435678459957597
1760958254.5956976,0.4707111084043032,0.1380537633729317,1.1376724838296335,0.029885496726944297,-21.517061079175033,19.347679812807314,-4.516566179480148
1760958254.6055477,0.46718234712494533,0.1247067283867594,1.1049740878388794,0.06758715302691222,-25.095203494668812,24.74552465876225,-9.663449900407352
1760958254.6155636,0.39080267728941986,0.10692102282989494,1.0704434987755078,0.10167497200795339,-28.696778715662003,30.141363672340667,-15.184690526182898
1760958254.6256146,0.23881768726513453,0.08549930711273857,1.036490918241162,0.13051488037733341,-32.179442125618536,35.24859545563828,-20.905220981253848
1760958254.6355412,0.01129055278403863,0.06122902599070208,1.0053157465556974,0.15294061719708688,-35.40584002055892,39.79809816812989,-26.63893116724071
1760958254.6454792,-0.2890357757388489,0.034862724268768464,0.9787471890480213,0.16835141289702943,-38.25341208214329,43.55260390309994,-32.20074156417958
1760958254.655593,-0.6569938134703521,0.0071514766766083045,0.9581294050520269,0.17674227702130865,-40.621700167251966,46.317297764239285,-37.417199626367164
1760958254.6656065,-1.085315176630593,-0.021090565045407062,0.9442439103824939,0.17865930985495604,-42.436354415710845,47.94700265665464,-42.134789581356145
1760958254.6755888,-1.5649861680543562,-0.0489265364837975,0.9372675589500672,0.17508268392885815,-43.64951042570963,48.35066953957021,-46.225550443826975
1760958254.6854649,-2.08561696917523,-0.07527513762995346,0.9367714877368016,0.16725666786205082,-44.2368275404437,47.493945314877294,-49.590035442141875
1760958254.695478,-2.635822062861529,-0.09894490488320673,0.9417718959482644,0.15649968076634468,-44.19214763982114,45.400318302246305,-52.158026945858
1760958254.7057347,-3.2036205611938384,-0.1187277265666157,0.9508441466940647,0.14403090841306765,-43.52127642067513,42.150867006200095,-53.88767690390908
1760958254.7154546,-3.7768709409783328,-0.13354492978115748,0.9623013644509378,0.1308445413189528,-42.2365964864829,37.88217168130029,-54.7638432242318
1760958254.7256298,-4.3437538627853325,-0.14262975427779487,0.9744170448299578,0.11765200530795707,-40.354003353313985,32.781636195037514,-54.79632941399625
1760958254.7357938,-4.893306958367415,-0.14571701114176885,0.9856495602591875,0.10489770065337606,-37.893087309549315,27.079356080461213,-54.01852600419541
1760958254.7457235,-5.415996178095486,-0.14319744567633014,0.9948193474792685,0.09283544914859036,-34.88069260272845,21.035804452184028,-52.48663089512445
1760958254.7555788,-5.9042823922099315,-0.136187627553722,1.00120152026745,0.08163532520695503,-31.35708207893079,14.925084783946385,-50.279234826881925
1760958254.7654448,-6.353115632692135,-0.12647118049847622,1.0045203634503665,0.07148084315800292,-27.383092410863075,9.014352474250204,-47.49667734433747
1760958254.7754643,-6.760271355892433,-0.11628834547892472,1.0048570726634938,0.06262126530881315,-23.046145336564017,3.5410909602963887,-44.259332568195724
1760958254.785475,-7.1264432865278415,-0.10799130705261617,1.0025020734659382,0.05536429799591913,-18.463012788019945,-1.3090346508874078,-40.704002236912764
1760958254.7953708,-7.455032892436886,-0.10363263465271348,0.997796483965793,0.05002123687705782,-13.777862264873638,-5.420314010764816,-36.977942694174985
1760958254.8053818,-7.751625100909594,-0.10458750966527537,0.9910106822645994,0.04683437296912021,-9.155161779097508,-8.757575876382926,-33.2306780879253
1760958254.8154116,-8.023202176391361,-0.11130550702936436,0.9822957423182127,0.045917299791485705,-4.768204426516349,-11.366424645565388,-29.604474798996623
1760958254.8254998,-8.277205773871227,-0.12324850320875785,0.9717156216963188,0.04722733939604098,-0.7850073165060634,-13.36197764136419,-26.224931043443664
1760958254.835447,-8.520595623878238,-0.13902073937029882,0.95933701085671,0.05057497346921287,2.646106612265976,-14.907149862990227,-23.1933561928632
1760958254.8456197,-8.759063411403,-0.15665560523376595,0.9453366936160664,0.05566378585362107,5.4089484884912515,-16.18368475462661,-20.582370465265317
1760958254.8556943,-8.996540081577464,-0.17399817819624694,0.9300884114725558,0.06214757443681037,7.428160816965368,-17.360661379716692,-18.4354975452435
1760958254.865384,-9.235085271003301,-0.18911012449302333,0.9142034475384392,0.06968896873748195,8.673253079494405,-18.56576593654106,-16.77064299080404
1760958254.8756092,-9.475174191240026,-0.20062135147352217,0.8985113766821543,0.07800563701596393,9.15794035288699,-19.8641190655984,-15.586508791216263
1760958254.8857358,-9.716312755195593,-0.20796184724720715,0.8839781581710708,0.0868952040987476,8.935441998791863,-21.248055843684472,-14.87041304447365
1760958254.8953512,-9.957835259055503,-0.21142880437681583,0.871571046096289,0.0962374492626881,8.0907932937007,-22.6392887343726,-14.605786741035661
1760958254.9054093,-10.199693637562808,-0.2120775404155419,0.8620943745915375,0.10597981478721662,6.731337400298599,-23.90277083668249,-14.777817136232178
1760958254.915646,-10.443053276837334,-0.21146507065803943,0.8560326514605172,0.11611550298868248,4.976494758837877,-24.86973207439375,-15.376206087333136
1760958254.9254563,-10.690569355227144,-0.21131031097216493,0.8534400317215677,0.12666016674893976,2.9477858293625574,-25.366068722246453,-16.39465437549379
1760958254.9354308,-10.946306046978599,-0.2131505269952732,0.8539046957625718,0.1376259955141239,0.7600104836152874,-25.241638591933516,-17.82731079411706
1760958254.9455104,-11.21534392603306,-0.21806455476949624,0.8565971330425106,0.14898696134047235,-1.4855317971953959,-24.3960358938017,-19.662921550989335
1760958254.9554791,-11.503173120680023,-0.22650586746041443,0.8603903208031054,0.1606312435637152,-3.7049506708697053,-22.797030742269552,-21.87773345890832
1760958254.9655392,-11.814985831377141,-0.2382567913185886,0.8640245080694435,0.17230530960908377,-5.832195191537672,-20.48899712627391,-24.428370975622414
1760958254.9754953,-12.154974933934218,-0.25249393118142827,0.8662853279737683,0.18356220105854734,-7.815877614734028,-17.590223712417664,-27.245970066036993
1760958254.9854074,-12.525731922680997,-0.2679469951477471,0.8661703588656717,0.19373041249631337,-9.613050626880984,-14.279798341758424,-30.232810732715194
1760958254.9954689,-12.927820175735658,-0.2831264540088668,0.863027337555921,0.20192093109114911,-11.181232667898545,-10.776455688781729,-33.26250299224305
1760958255.0054972,-13.359571900339173,-0.2965812795744584,0.8566492748702239,0.20708803392788233,-12.470569983274439,-7.313040872688994,-36.184408797493916
1760958255.0154512,-13.81712064958324,-0.3071355673382179,0.8473094908792226,0.20814998373102672,-13.418279735231119,-4.110829046742347,-38.83241473290592
1760958255.0260391,-14.294647122583598,-0.3140562361771544,0.8357220318326222,0.2041591896161447,-13.947256045157605,-1.3577190477927086,-41.0374529689879
1760958255.0354187,-14.784791932793613,-0.31712429345541726,0.8229261900203776,0.19449520537405127,-13.969924269547516,0.8067182486910762,-42.64241935600249
1760958255.045399,-15.279175511144807,-0.3166082641898141,0.8101134586160373,0.17904454740516568,-13.397337790956922,2.2979796542529214,-43.5175273704505
1760958255.0553505,-15.768960877111697,-0.3131591873038446,0.7984300178892838,0.1583292644110489,-12.152463941815519,3.085543160209433,-43.57383538832419
1760958255.0653455,-16.245398807754903,-0.3076581463187416,0.7887916724051003,0.13355026572383488,-10.18578166596261,3.1857231213997164,-42.77279619565287
1760958255.075432,-16.700304865662392,-0.30105057846379635,0.7817437194935957,0.10652287976505369,-7.490694590794485,2.6509921106987493,-41.130195327138736
1760958255.0854056,-17.12643055194034,-0.2941977662094684,0.7773897812072739,0.07950237449726634,-4.115840594218788,1.558414838262257,-38.713676471523215
1760958255.095416,-17.517703849541654,-0.287766116959028,0.7754022070242449,0.0549225460533071,-0.17132511144360785,-0.0005374087175556933,-35.63406452934381
1760958255.105273,-17.869326388382987,-0.28216184645592673,0.7751121678143569,0.035092093188644924,4.173510514610908,-1.927219573175526,-32.0317285657801
1760958255.1156225,-18.177726569989133,-0.27750727372421763,0.775661891453374,0.021903166761179226,8.701822932179127,-4.119378672197255,-28.06009939103661
1760958255.1254263,-18.440384795294243,-0.2736510016877346,0.7761893824103107,0.0166014057391226,13.169607530708634,-6.471234336399816,-23.86898923359779
1760958255.1354425,-18.65557233585979,-0.2702095939192775,0.7760124606798281,0.0196495691373049,17.33175489588771,-8.871084534607393,-19.59037931162374
1760958255.1454976,-18.822073765328312,-0.2666452809711053,0.7747842968464753,0.030694043425335236,20.969534150286563,-11.198088422363226,-15.328754162669098
1760958255.1555915,-18.938978189933998,-0.26238200891752034,0.7726017899037051,0.048623155680480715,23.914880383244206,-13.320183303949,-11.157001122089262
1760958255.165348,-19.00561284711732,-0.2569496137672066,0.7700565578010089,0.0716945304325532,26.06763228753311,-15.094946539584562,-7.117714129386742
1760958255.1753552,-19.021653546789604,-0.2501314797522139,0.768224612931634,0.09770750753846777,27.40340330019527,-16.37463423378491,-3.2288138355237592
1760958255.1853843,-18.9873920492721,-0.2420828359780955,0.7685946604699042,0.12420337535254944,27.971578281930693,-17.01578339777845,0.5080959081245751
1760958255.1953447,-18.904088605658046,-0.23338854574548162,0.7729372538619057,0.14868446108420755,27.884531241111926,-16.892861958958008,4.098297167589939
1760958255.2053032,-18.7743047715056,-0.22503989029540458,0.7831203812830679,0.16884452463732463,27.300228867340255,-15.914622444672696,7.54492274138115
1760958255.2155986,-18.602105400137233,-0.2183238495289704,0.8008817838451197,0.18279412988347712,26.40084558704373,-14.04109278615863,10.841484492230123
1760958255.2256217,-18.393039877172498,-0.21463201398666626,0.8275712726535249,0.18925382665041682,25.37004553373346,-11.298548021299563,13.966844967697396
1760958255.23546,-18.153858777583583,-0.21521204154941856,0.8638781626839052,0.1876868508902592,24.37142521138185,-7.789499753467393,16.88324426195433
1760958255.2453914,-17.891984675541778,-0.22090193389016113,0.9095675204451809,0.17835236412463187,23.530370764391947,-3.6949889090227837,19.537657076450657
1760958255.2555497,-17.61481468991927,-0.23189657044890985,0.9632681824268672,0.16227085522847512,22.921261026534612,0.7325589497039017,21.866333946504657
1760958255.2654488,-17.328965165881467,-0.24758935684413738,1.0223750225562749,0.14110066361873558,22.56152060203051,5.186123041183757,23.802023231106404
1760958255.2754266,-17.039567955612135,-0.26651498864073453,1.083130836180831,0.1169320666185693,22.41348057584996,9.329088974588656,25.283221149827337
1760958255.2853467,-16.74970425935164,-0.2864045893127694,1.1409303084951632,0.09201561098299992,22.394302049606196,12.825782208562513,26.264784056720607
1760958255.2953334,-16.460035409211745,-0.30435816628295825,1.190840742564262,0.06845297383942855,22.393298851717432,15.374319100886764,26.72910493221142
1760958255.3053908,-16.168673102676852,-0.31713629977433777,1.2282710951403775,0.04788985644101116,22.29482105960192,16.73870604091232,26.696613374081878
1760958255.3154378,-15.871322315544674,-0.3215624593145649,1.2496646713960176,0.03125985298355191,22.003528572474682,16.777483990709875,26.233691721008306
1760958255.3253613,-15.561716629651876,-0.3150033305148107,1.2530699772195708,0.018632346038780955,21.467722454682825,15.466204409476756,25.455594177424263
1760958255.3353496,-15.23233795937106,-0.2958603676662896,1.2384695823893266,0.009210235836003656,20.69588852691156,12.910443946200125,24.52209883689175
1760958255.3453846,-14.87536823245175,-0.2639730399693387,1.2078018407035116,0.00150016075081517,19.762150541444324,9.345500976803542,23.624696771497582
1760958255.3555565,-14.48376569733896,-0.22082240968116346,1.1646730144027069,-0.006360144244532611,18.798088512641378,5.119441664119011,22.965983199061718
1760958255.365645,-14.052309950095312,-0.16945298871614325,1.1138187368709005,-0.01617826030461964,17.971157536142297,0.6584985155037871,22.733991102667638
1760958255.375331,-13.57844244005621,-0.11410205216916036,1.060425529674028,-0.02928676381023138,17.453128184833403,-3.582371315181244,23.075729779478298
1760958255.3854282,-13.062761728686082,-0.05960921457630607,1.0094470503124027,-0.046236630075666946,17.384635231079873,-7.176967499669142,24.07458866100004
1760958255.3953977,-12.509109199072519,-0.010734932877045376,0.9650339980855547,-0.0666846482324362,17.84320629415996,-9.78383772901157,25.735483434665415
1760958255.4056127,-11.924270964019243,0.028474716579403384,0.930151533254776,-0.08949366790382726,18.82161959974061,-11.1907708639216,27.98006735275334
1760958255.4153836,-11.31739321448589,0.05516846437638501,0.9064068535226752,-0.11300067781621181,20.221238874376088,-11.339817625169779,30.65253400905817
1760958255.4255235,-10.699245504647932,0.06795248380415202,0.8940693479628523,-0.13536756897548366,21.861726279297034,-10.328847476135843,33.53488930048142
1760958255.4355364,-10.08146757429176,0.06691997786345327,0.8922417187665046,-0.15492208194645635,23.505183130422925,-8.390381920877948,36.36933093275606
1760958255.4455106,-9.475903553225447,0.053475233031906065,0.8991308875546911,-0.17041695244202493,24.890171213181933,-5.8526191055303665,38.884718263041115
1760958255.4554455,-8.894071871162122,0.03001181984012255,0.9123683200090462,-0.18117120719308272,25.769660958883442,-3.0902722001951783,40.82405884529757
1760958255.4656262,-8.346757620224768,-0.0004793507623609853,0.9293365025218483,-0.18709293327805712,25.946757846551144,-0.4737193450040431,41.97030033712315
1760958255.4754078,-7.84366800687887,-0.03479915289965728,0.9474689857394922,-0.1886055016701929,25.30288034917081,1.6758795764194954,42.16822932628093
1760958255.4852982,-7.393076061650573,-0.06987177397952526,0.9645038083681122,-0.1865083349946882,23.81460550750337,3.1199311421413856,41.340744724484566
1760958255.4954634,-7.001395616303366,-0.10298903262828085,0.9786808210751102,-0.18180552581330164,21.557316744465048,3.7213298174532317,39.498156022726015
1760958255.505396,-6.672674131069383,-0.13196129021758338,0.988876901811856,-0.17553451429266695,18.695756073127992,3.4486769419604295,36.739552281690806
1760958255.5152967,-6.408046059367471,-0.15518430600424452,0.9946664999386176,-0.16862173059675292,15.463332674266367,2.367573859950625,33.245817969193816
1760958255.525552,-6.205241619888028,-0.17163751799437987,0.9962869751611182,-0.16178367349144562,12.133391883400272,0.6220100426036398,29.2645945381177
1760958255.5354724,-6.058278054856144,-0.18083169697581722,0.9944978872618591,-0.1554834512258162,8.986521742228193,-1.5906334876516184,25.08835983373664
1760958255.5458286,-5.957461335855439,-0.1827289088619071,0.990357984601474,-0.1499442328097969,6.278318939486775,-4.047431825210427,21.027673525779164
1760958255.5554583,-5.889790018651268,-0.1776602312752425,0.9849797365654586,-0.14521014086031905,4.211779056337473,-6.527312786664376,17.38231662791239
1760958255.5654278,-5.8397814344925525,-0.1662573966020381,0.979327106523531,-0.14123386287885845,2.9176085496083455,-8.835070507700502,14.413397080147105
1760958255.575438,-5.790649791527351,-0.1493973934708171,0.9740954067167978,-0.13796477582198807,2.444431089526668,-10.819568524740045,12.319470927094363
1760958255.58569,-5.725686136909647,-0.12814846410071737,0.969676921176518,-0.13541475383507925,2.759342984763641,-12.384380919755749,11.219347056723684
1760958255.595414,-5.629650241776675,-0.10370861787010104,0.9661929946979022,-0.13368818475166863,3.757821594684766,-13.49002372141542,11.143483529954889
1760958255.605423,-5.4899934098203245,-0.07733713365945052,0.9635658492268578,-0.13297351660310114,5.28080815462486,-14.148067298329083,12.034771170136423
1760958255.6156368,-5.297775184425469,-0.05028556269190693,0.9616054867545443,-0.13350299284687386,7.136027596256549,-14.408642530817781,13.758222360872905
1760958255.62564,-5.048193983600209,-0.023734320830664315,0.9600921884151371,-0.135493459935049,9.120391884077497,-14.343853742883358,16.117950888475693
1760958255.6354053,-4.740708278058897,0.0012615109200789386,0.9588404523762485,-0.13908363038814703,11.040677079267093,-14.030110370731778,18.879085442678523
1760958255.6457942,-4.378777157550172,0.023813801853564426,0.9577361087282095,-0.14428243060605558,12.730410667449501,-13.53230798733323,21.791948866492618
1760958255.6553473,-3.969292868084838,0.04322649042329297,0.9567450788617988,-0.15093963787825623,14.061786780525566,-12.892244200671035,24.615856890488164
1760958255.6653495,-3.5218052323028646,0.05900250198120535,0.9558981964700983,-0.15874450529723802,14.952217551968086,-12.122827727390098,27.140141672376995
1760958255.6754153,-3.0476435977514282,0.0708354275698844,0.9552600752520134,-0.16725196615050597,15.365729870949899,-11.208673418026802,29.200456502678815
1760958255.6854048,-2.5590292108763317,0.07859233114725941,0.9548913627225805,-0.17593109095467244,15.309832789470718,-10.112670237954552,30.689063140877103
1760958255.6953897,-2.068248784905797,0.08229379091863773,0.9548136031243303,-0.18422734873144794,14.828758011978943,-8.787165379018335,31.558577178430543
1760958255.705351,-1.5869368633352303,0.08209470330542785,0.9549842862235908,-0.19162855474535695,13.994155609558085,-7.18766420700064,31.81942287532444
1760958255.7155092,-1.1254942772302747,0.0782672458500656,0.9552864632183229,-0.1977241834225138,12.894430500669799,-5.286545718299899,31.531914114314006
1760958255.7254267,-0.6926535434886266,0.07118656718347835,0.9555337111139811,-0.20224935455963472,11.62393052633123,-3.0843196460742446,30.79436930327808
1760958255.7353184,-0.29519016435768913,0.06131905059544116,0.955488907123415,-0.20510803955973145,10.273119619257043,-0.6163946703463364,29.72894702526493
1760958255.7454433,0.06222771844247603,0.049211319365509196,0.9548947818776056,-0.20637390955246823,8.920665319238823,2.0458998684136493,28.466935811088863
1760958255.7556276,0.3770607442037924,0.03547631212729033,0.9535141167643998,-0.20627069128376782,7.62805095718251,4.800327656871256,27.13506897640639
1760958255.7653048,0.6488012693504178,0.020772954458816127,0.9511756218044306,-0.20513630180384662,6.436944671733287,7.52407564229939,25.84413194381174
1760958255.7753007,0.8787731086856475,0.005779108686733796,0.9478179186300892,-0.2033763373403864,5.36919026496984,10.087801222090757,24.680756381292184
1760958255.78549,1.0698528688955269,-0.008838562693394822,0.9435214182845518,-0.20141293125322357,4.428986711915789,12.371203868100478,23.702891175633084
1760958255.795408,1.2261472489470606,-0.022452501074427995,0.9385187234456625,-0.19963463656123057,3.6066344697717847,14.277735770526773,22.939018714269743
1760958255.8053718,1.3526647022850615,-0.03449587117396781,0.9331779187247158,-0.19835151776023238,2.883170958311705,15.74628550704746,22.39076901741637
1760958255.815438,1.4550153259470922,-0.0444767938987029,0.9279577914450535,-0.19775760004281437,2.2352804614416244,16.758214637991255,22.038213421663038
1760958255.8253784,1.539158943606243,-0.05198786443709839,0.9233393316232706,-0.19790297879265908,1.6399726710271891,17.33885818547295,21.846835413255143
1760958255.8354652,1.6111997024987703,-0.056717222765360814,0.9197443276463775,-0.19868219188718766,1.0785906314363063,17.5533644611617,21.77502133918987
1760958255.845379,1.6772034273179717,-0.05846793938945241,0.917458422987134,-0.1998496587688898,0.5397203672941909,17.497445457397244,21.78092936519806
1760958255.855633,1.7430040322168379,-0.0571867924919604,0.9165802682006046,-0.2010688720928399,0.020615064389596312,17.284212155300523,21.827791442651645
1760958255.8656619,1.813976654999195,-0.052992990816657586,0.9170177060136016,-0.2019879211058096,-0.47309746820413545,17.02877515495361,21.887037051725244
1760958255.8754685,1.8947829614101046,-0.04618974761664805,0.918542833666069,-0.20231975572614835,-0.9293862986564517,16.832647035457367,21.93902596502557
1760958255.885668,1.9891199319448312,-0.03724488694879462,0.9208996577068964,-0.2019034169725938,-1.3331266131079804,16.77009481978383,21.97157383461399
1760958255.895392,2.099511964214498,-0.026739316890145474,0.9239382794076728,-0.20073293340621207,-1.6701561416926007,16.878381749963253,21.9768007244945
1760958255.9053342,2.22717867437258,-0.015293833230470904,0.9277387001512561,-0.19895343666607418,-1.9313513389142847,17.15331012561517,21.94709546401334
1760958255.9153934,2.371998312472184,-0.0034888659369589946,0.9326889050800102,-0.1968310494448895,-2.1159981225836413,17.550733702720017,21.871140819897544
1760958255.9253342,2.532574107781571,0.008208522745041089,0.9394922202732312,-0.19470445974238434,-2.2338742005512975,17.993891130090276,21.730946480098773
1760958255.9353893,2.706396357520067,0.019497010902638903,0.9490939525837797,-0.19292515619845713,-2.305715205097007,18.385628535609467,21.50064012151862
1760958255.9453018,2.890078657521086,0.030262719453380993,0.9625338548234835,-0.19179193537497288,-2.3620533328026236,18.623905640682214,21.14736706433107
1760958255.955311,3.079639292330501,0.04056805841068039,0.9807454223842625,-0.19148459724058584,-2.440733603644148,18.618506449644816,20.634135770427154
1760958255.965351,3.270800797074553,0.0506144531591232,1.004332927108825,-0.19200230000844262,-2.583667394809267,18.306704014633798,19.923972921464102
1760958255.9754605,3.459285635622597,0.06068993817901397,1.033362345891048,-0.19311300712245413,-2.83351379357851,17.665812508040336,18.984447050163805
1760958255.9853067,3.6410861312642924,0.07111094049324404,1.067203784681123,-0.19432085127399729,-3.2309383369132885,16.72105250658794,17.791536527301773
1760958255.9953623,3.812682044205277,0.08216405151518659,1.1044604938221436,-0.1948589974038831,-3.812876831298163,15.547811546300402,16.331950965448467
1760958256.0053413,3.971176053619152,0.09405213696970295,1.1430116158828594,-0.1937180650042017,-4.611873872491536,14.26803313957176,14.603338601412863
1760958256.0156724,4.114321650230598,0.10684951519423466,1.1801805546630806,-0.18972187158833448,-5.656171968481892,13.041026504423996,12.61228099540033
1760958256.0253112,4.240430501565873,0.12047057893048874,1.213018266424822,-0.18165698176304626,-6.969944092829271,12.049469479551044,10.370500197456751
1760958256.0355299,4.3481645196005285,0.13465361015085617,1.238664776514436,-0.1684479911632521,-8.573027334741859,11.481813959826667,7.890146377535773
1760958256.0456085,4.436237252914142,0.14895735907824903,1.2547304304918954,-0.14935312954406016,-10.479755870941714,11.512698432599883,5.1792728751582855
1760958256.0553849,4.503065958774563,0.162765610397967,1.2596289280828208,-0.12414381016906358,-12.696881091404997,12.283296053787067,2.23859151754753
1760958256.0655518,4.546428289938731,0.1752980343540298,1.2528017257187403,-0.09323103886507929,-15.220917739208957,13.883715646008179,-0.9396474673603111
1760958256.0755138,4.563185296434543,0.18563282154248592,1.234796136187319,-0.05770941784105458,-18.035448065247135,16.339532528467437,-4.370230877744387
1760958256.0854895,4.549132952398093,0.19275187188433535,1.2071892069733967,-0.01930217382386503,-21.108927246170122,19.60417497538025,-8.071092309253784
1760958256.0954258,4.499034149634611,0.19561794513493658,1.1723766746198967,0.019794886013604508,-24.393400793427492,23.55821868848689,-12.057483989433441
1760958256.1056125,4.406859984838296,0.1932851786726837,1.1332662697661477,0.057157229184991394,-27.824349419152497,28.015746788847554,-16.335047263990713
1760958256.1157203,4.266234617131535,0.18503280479556783,1.0929272645844557,0.0904330481765648,-31.32170343910566,32.73702358160976,-20.8927673752533
1760958256.1254327,4.071039034175322,0.17050146325054338,1.0542519076855859,0.11765499722262894,-34.79194592520536,37.446015995340986,-25.696807131983558
1760958256.1353464,3.816098016047934,0.14980727530679014,1.0196754727346888,0.13750383602248611,-38.13112139084072,41.8508787203452,-30.686104944361112
1760958256.1454806,3.4978615212202806,0.12361187416781533,0.9909815351555892,0.14946806125245976,-41.228465060848585,45.66540411117666,-35.770432250835825
1760958256.1554523,3.1149963659502897,0.093132510058565,0.9691978124931787,0.15386267498796474,-43.9703066760168,48.62959227118125,-40.83138775555638
1760958256.1656857,2.6688182184675324,0.060081987162810706,0.9545752422177227,0.15170238690450047,-46.24394489546756,50.52783728783683,-45.72657028876948
1760958256.1756198,2.163510936487732,0.02653516081239587,0.9466402096562538,0.1444606437529746,-47.94135074373818,51.203624350550335,-50.2968639155745
1760958256.1854236,1.6060988256293538,-0.005271789384010978,0.9443118659043952,0.13377392806283864,-48.9627867548617,50.5699919074097,-54.37636828845258
1760958256.1955624,1.0061584806819492,-0.033192677668441035,0.9460771905192433,0.12116109962087103,-49.220622396491194,48.6153129446382,-57.80410924634826
1760958256.2057426,0.37528131351725086,-0.05544579308221033,0.9502115940057378,0.10781761532399549,-48.64370107810538,45.404196764744945,-60.436412557129245
1760958256.2156544,-0.2736744269071055,-0.07087278464081097,0.9550220618199873,0.09451963756917585,-47.18253770930901,41.07347829863737,-62.15878163166194
1760958256.2257,-0.9274751304815688,-0.07913515106362001,0.9590776701643622,0.08164335094255053,-44.81539006608593,35.82332270929577,-62.896244482304645
1760958256.2353868,-1.5734571820624579,-0.08080351191592745,0.9613859570715642,0.06927905734085663,-41.55484837785091,29.903511807805227,-62.62133430319617
1760958256.2452989,-2.2004253420856155,-0.07730905890689745,0.9614786566327489,0.05740114318647638,-37.45408262952446,23.595169693391995,-61.359046967513734
1760958256.2556872,-2.799404494922532,-0.07074877462026617,0.9593878492570517,0.0460436633730642,-32.611427544626395,17.188646534245425,-59.18821582853912
1760958256.265365,-3.3641567157327725,-0.06356243931283179,0.9555202510066252,0.0354296157572462,-27.171754169415742,10.958993207233636,-56.23878348745096
1760958256.2755768,-3.891397827094524,-0.05812960562194873,0.9504655941079808,0.026015820027233866,-21.323220650526878,5.141311712443202,-52.68456057816938
1760958256.2856193,-4.3806833765947015,-0.05636315894083802,0.944794268469968,0.018444470731892936,-15.2885990344858,-0.09094765192887476,-48.73142017326817
1760958256.2956908,-4.8339830017476135,-0.05938878579240015,0.9389007077660169,0.01342453392032719,-9.311398753958605,-4.64127979519862,-44.60156817551402
1760958256.3056192,-5.255016380265955,-0.06738487801303486,0.9329312580728857,0.011585688524372657,-3.638189485714923,-8.49589594390057,-40.5154092000144
1760958256.3156817,-5.648469556370233,-0.07961775337298946,0.9268063743525176,0.013348666066248191,1.5005407759148068,-11.718086189678889,-36.67326341576775
1760958256.325544,-6.019233572975671,-0.0946582718996177,0.9203187929889085,0.018843366829258527,5.908275754445685,-14.43119773194849,-33.23949278264825
1760958256.3354683,-6.3717987986088,-0.11072443744042021,0.913270350513839,0.02788816546944972,9.436627892710238,-16.79241289911189,-30.33136411497162
1760958256.3453662,-6.709897119859584,-0.12606928483554086,0.9056029880031351,0.040027187114664145,11.994018945676387,-18.96140717308232,-28.014273392626464
1760958256.35566,-7.036421341901977,-0.139328219547474,0.8974841675082711,0.05461084429806047,13.548157857187276,-21.06912366960771,-26.30393642817361
1760958256.3653677,-7.353587952881162,-0.1497565546345668,0.889322317722353,0.07089853006540452,14.122618967267707,-23.191993608529973,-25.175006308614787
1760958256.3753805,-7.663265775330163,-0.15732084900552526,0.881709538744643,0.08815937162774765,13.78866527427953,-25.335921445408314,-24.574490074000387
1760958256.3853436,-7.967375971298945,-0.16264373934047494,0.8753091585702432,0.10574820624291173,12.654016588990453,-27.432514618418015,-24.43748414025562
1760958256.395717,-8.26827237400733,-0.1668293184697733,0.870718326877969,0.12314217560098499,10.850475214823913,-29.34784509135069,-24.702310797337155
1760958256.4054105,-8.5690256759728,-0.17121147304749723,0.8683378522384817,0.13993729433356586,8.522169023693465,-30.901968206152866,-25.322252243740778
1760958256.4153314,-8.873556094228785,-0.17707468740407986,0.868274270644729,0.1558173927052961,5.815711647273518,-31.89585594040948,-26.271772246497154
1760958256.4254448,-9.186586792238527,-0.18539864744125373,0.8702877790681598,0.1705139648989615,2.8729572943019592,-32.14151763127584,-27.54627343474896
1760958256.4354596,-9.513422349267008,-0.19667242624691308,0.8737909391340732,0.18377316059793594,-0.1735888455367151,-31.490911982923517,-29.155793736727908
1760958256.4459207,-9.859585288288896,-0.2108083827824186,0.8778996557212071,0.19533676657927102,-3.203113544998384,-29.85970649718115,-31.11422636578868
1760958256.455673,-10.230361024822676,-0.227163568571513,0.8815352818305389,0.2049317506358659,-6.1072175280836705,-27.24285010490214,-33.42632162567651
1760958256.4655743,-10.630305568766799,-0.24465549572457113,0.8835690905469101,0.2122558121292656,-8.789592422594504,-23.720125569889362,-36.07479605612853
1760958256.4757137,-11.062765186783242,-0.2619448644421194,0.8829881980712034,0.21695118325526877,-11.165040907390763,-19.45121739781681,-39.0095208182376
1760958256.4854267,-11.52944897836689,-0.2776502001172427,0.8790509057871024,0.21857447145760106,-13.158065395755004,-14.661259470970396,-42.140282133285766
1760958256.4958527,-12.03008825220381,-0.29055725961903245,0.8713966450007717,0.21658752011734958,-14.701191225118682,-9.619156335285092,-45.33418707349028
1760958256.505355,-12.562212709867001,-0.2997908624920212,0.8600866444444982,0.2104011562784055,-15.733271938648906,-4.611983908211562,-48.41843662075207
1760958256.5158203,-13.121071866614251,-0.30492870070973144,0.8455719969130862,0.19949175683424653,-16.198268055799655,0.0807625210194012,-51.18880582804115
1760958256.5254383,-13.699726786332993,-0.3060501088657868,0.8286021995204118,0.18358149812648983,-16.04529541872894,4.209561069759286,-53.42364642371449
1760958256.5356443,-14.289327062393653,-0.30372076612550747,0.8100920762610148,0.16284090154875472,-15.230860756342453,7.571362660055149,-54.90250215850771
1760958256.5454936,-14.879569039512578,-0.29891726546909114,0.7909668278776064,0.1380541367849953,-13.723933974005377,10.019122887369534,-55.42755046375314
1760958256.5558221,-15.459306275837376,-0.29289939997786524,0.7720132626712142,0.1106910742467317,-11.51384275756363,11.464803028710161,-54.845255267882436
1760958256.5656002,-16.017257568652102,-0.28704435063775807,0.7537745405714065,0.08285007492548321,-8.620061293006216,11.87739777394234,-53.06513254697098
1760958256.575465,-16.54273686542992,-0.2826613152326211,0.7365233044251132,0.05706281948999033,-5.101977786569107,11.278016076878433,-50.07262160327822
1760958256.5855262,-17.02631807456935,-0.28080589061655853,0.7203302515897215,0.03598192681692086,-1.065902555150789,9.733870873108453,-45.93376952929456
1760958256.5956547,-17.46035111208987,-0.2821149165659945,0.705219250273866,0.0220005250852117,3.3336971271968543,7.352460798362937,-40.790660943426104
1760958256.6057494,-17.839266491326452,-0.28668697545204613,0.6913751215355389,0.016873800038969655,7.901081159309201,4.276529949129287,-34.84803856826939
1760958256.6156058,-18.159642743473313,-0.2940366202393154,0.6793524721237425,0.021417294420318273,12.414890120431986,0.6797299208464855,-28.353074741818503
1760958256.6254754,-18.42005648144821,-0.3031445753575116,0.6702280200951574,0.035341854376813454,16.65092063793747,-3.2376596220381666,-21.57145337053786
1760958256.635422,-18.62077693153084,-0.31260957948476176,0.6656469932074077,0.05725601345164562,20.408251006774755,-7.253997749862463,-14.763500549260005
1760958256.6453822,-18.763392247845623,-0.3208843354584063,0.6677345858664202,0.0848336079529981,23.533724404954377,-11.133694618834843,-8.16387984061603
1760958256.6554854,-18.85045501783761,-0.3265547788622944,0.6788711255378913,0.11511583273659977,25.939846988572906,-14.6376549125971,-1.967422955971501
1760958256.6655087,-18.885208410976716,-0.3286053994406618,0.7013573988479168,0.14489652555876306,27.612438995633756,-17.537014478385867,3.6777171049378037
1760958256.675709,-18.87141128493355,-0.32661034839998865,0.7370153993740783,0.17112888197172837,28.606515559728212,-19.629630751759414,8.669892654377735
1760958256.6854334,-18.813236357062053,-0.32080428146149176,0.7867745754425739,0.1912926466670455,29.03126859299755,-20.758029011332976,12.948344505777051
1760958256.6954672,-18.71518668206226,-0.3120145999873851,0.8502920372688156,0.20367298772919493,29.027086105651748,-20.82694109515331,16.484525830992244
1760958256.7055876,-18.581969932630173,-0.30146750686640433,0.9256607851231815,0.20752115318846331,28.738951937761374,-19.818224692711343,19.273012133297872
1760958256.7156456,-18.418284183981577,-0.29050480645027665,1.0092747731393896,0.2030848894678404,28.29120810465429,-17.80079833443852,21.324435050145556
1760958256.7255821,-18.22849576340883,-0.28026451360067606,1.0959290728423605,0.19150859028005218,27.768480284564575,-14.933329409697947,22.662290662271424
1760958256.7355917,-18.016224122413373,-0.2713876611323285,1.1792184170533455,0.17461102695089686,27.206560857006778,-11.457861433888953,23.324545592557836
1760958256.7455945,-17.783886364663065,-0.2638152637481033,1.2522458499224236,0.15455820692696814,26.595320076114547,-7.6833212735196454,23.369744133823872
1760958256.7555826,-17.532287791592495,-0.25672972400221233,1.3085678508724319,0.13346625309991905,25.89345274505432,-3.958783667602754,22.885945682892302
1760958256.7654865,-17.26036448527127,-0.24867199138793677,1.343207885023116,0.1129961685671965,25.05229499360815,-0.6375481437564444,21.99956395467405
1760958256.7754562,-16.96518036625351,-0.23783168879064237,1.3535096746197135,0.09403050466417366,24.04345548610753,1.965197262174885,20.88041587995939
1760958256.785427,-16.642249736793012,-0.22246779511030015,1.3396117079165124,0.07652976593276231,22.883244483367925,3.6159547066981923,19.73939611366955
1760958256.7954473,-16.286197581721062,-0.20137790236707942,1.3044111318807767,0.05963350135947257,21.646643539029686,4.20010475256603,18.81638053318118
1760958256.805329,-15.891690118042531,-0.1743027168809087,1.2530199104609647,0.04199941496632376,20.465427748661035,3.743963202118963,18.35812016380394
1760958256.8153648,-15.454484202862687,-0.14214727496357593,1.1918527845194933,0.022290915572158374,19.508944140607813,2.414594353329521,18.58852456926065
1760958256.8254206,-14.97238790501247,-0.1069403675353456,1.1275763883944319,-0.0003331918130189212,18.950931174071368,0.49484241935508544,19.67606625302911
1760958256.8354514,-14.445932150019617,-0.07153419527239246,1.0661589159461748,-0.025875709528549107,18.929991842738627,-1.6627735686129383,21.704307383271235
1760958256.8454635,-13.878638436288965,-0.03913083798446303,1.0121938066235459,-0.05340089973972397,19.51344392118328,-3.6940889577264624,24.651400286473738
1760958256.855434,-13.27689803537768,-0.01276799117647947,0.9685684960864088,-0.08119296144618789,20.673602599797537,-5.281106465339384,28.382952395353826
1760958256.8653824,-12.649587593751525,0.005113610574129017,0.9364560967461051,-0.10711529155482935,22.282382163098482,-6.198072141852751,32.660234654483375
1760958256.8753643,-12.007579645318993,0.012949171637537648,0.9155491955557672,-0.12906629501644085,24.1254932653613,-6.337942084399409,37.162862257570055
1760958256.8854039,-11.363259587865011,0.010162629800339783,0.904434394931431,-0.14541403700657687,25.93293888313121,-5.716536047079944,41.52248322584905
1760958256.8957562,-10.730075743010957,-0.002858153781090755,0.9010163904434743,-0.15530936254586244,27.419293284075017,-4.456672990037759,45.36235601961896
1760958256.905542,-10.12207800416971,-0.024881497522091844,0.9029266000051449,-0.15881704820047207,28.326002383168646,-2.7581609642137246,48.3372924776491
1760958256.9154413,-9.553370958077045,-0.05401004410630116,0.9078760469459043,-0.15685397325919617,28.45850024970777,-0.861102162520553,50.16911993003293
1760958256.9254477,-9.037419306898222,-0.08788922646688727,0.9139267521637298,-0.1509685695908487,27.71268988433399,0.9903221227956321,50.67412615853478
1760958256.9355283,-8.58618471371498,-0.1239251314273587,0.9196646994191241,-0.1430266638267572,26.08764429063358,2.578053231760673,49.780396054121184
1760958256.9454074,-8.209130671509604,-0.15949537463266927,0.9242677268709728,-0.13488006071287253,23.68375987683603,3.7311032557181303,47.53417248010553
1760958256.9553683,-7.912192501072564,-0.19214022703380362,0.927474990802314,-0.1280863634235187,20.687720544380213,4.336356144627832,44.09527732032205
1760958256.965341,-7.696858625431342,-0.21972415899975417,0.9294780743037339,-0.1237267444617181,17.3473010540212,4.34023924483171,39.72232849265989
1760958256.975452,-7.559533019991689,-0.2405609516808899,0.9307637789651863,-0.12233971954296259,13.940120162678495,3.743456328096792,34.74914157925266
1760958256.9856448,-7.491337625733797,-0.25349910900455336,0.931942365435415,-0.12396049437836049,10.740886467682248,2.591371441500502,29.554377342567676
1760958256.9954295,-7.478464067474504,-0.25796711844031,0.9335915888726612,-0.1282337488739898,7.991469578686822,0.9624410792365629,24.527160679120477
1760958257.005525,-7.5031001018922225,-0.2539781890595034,0.9361378734055107,-0.13455797003548042,5.8773406363601355,-1.0434244418327547,20.031956067292704
1760958257.0154686,-7.544852082654893,-0.24209234213501218,0.9397849848181044,-0.14222333073686985,4.5126852903071315,-3.315313711035682,16.376270828633498
1760958257.0253916,-7.582485766060109,-0.22333417876500197,0.9444915631582755,-0.1505192694728621,3.935009603948208,-5.739919126677165,13.784586816454185
1760958257.035688,-7.59574328453119,-0.19907023630487497,0.9499934683898879,-0.15880483137326473,4.108628084573086,-8.20810884299533,12.381228297525151
1760958257.0454557,-7.566984502574779,-0.17085908330448052,0.95586324116692,-0.16654688688563488,4.935331623332607,-10.619581378266078,12.183764955480878
1760958257.055582,-7.482446974588215,-0.140294990083588,0.9615944790558543,-0.17333552512999595,6.269938032813963,-12.885827569372957,13.107231132084939
1760958257.0655944,-7.3330011071057335,-0.10886740907643445,0.9666939452525297,-0.17888453749892944,7.938313024330365,-14.931586021750176,14.978152760291957
1760958257.0756867,-7.1143698057269615,-0.07785398677132774,0.970762597696319,-0.18302222869112925,9.755693421019005,-16.69489813189775,17.556326864167065
1760958257.0855618,-6.826865335512924,-0.04825842283308006,0.9735513308998387,-0.18567640218975104,11.543594134156997,-18.125872886664265,20.561615958522506
1760958257.095435,-6.474758021775508,-0.0207976278225216,0.9749855587835813,-0.18685713676277504,13.144084972441345,-19.184427435558657,23.702706896074098
1760958257.1053758,-6.065423192293934,0.004065899978884332,0.9751595709251311,-0.18664057965286723,14.43066886039384,-19.837540593249404,26.70479514721939
1760958257.1156123,-5.608412727378047,0.02605928733513783,0.9743052322046626,-0.1851558735457091,15.315341541896517,-20.056821603340886,29.333454471997474
1760958257.125339,-5.114572918364131,0.0450201494975065,0.9727422924148815,-0.1825759255446803,15.751694512245418,-19.817306634956854,31.412509602976183
1760958257.1355906,-4.595291390025109,0.06082205571988958,0.9708202018066726,-0.1791114772662577,15.734184087318456,-19.098239783037926,32.83449822433346
1760958257.1457047,-4.061911108239917,0.07332174099755857,0.9688621065556894,-0.17500706591791623,15.29395293210583,-17.886149076973545,33.56321109712196
1760958257.155444,-3.5253067867080183,0.08234087547071801,0.9671196998317888,-0.1705370507263251,14.491851014304558,-16.17987380562857,33.62873613751857
1760958257.1654985,-2.9955869303457434,0.08768726761777883,0.9657441040406437,-0.16599970161151675,13.409533594176247,-13.996523895476754,33.11628361275997
1760958257.1756346,-2.4818699396770634,0.08921006678583313,0.9647744776866916,-0.16170724231347783,12.13966597238011,-11.376889937231327,32.150699687218044
1760958257.1855824,-1.9920863631169896,0.08687454547501011,0.9641433906756983,-0.157970107491662,10.776284864014206,-8.388745883648147,30.878878305462
1760958257.1954372,-1.532777194434616,0.08083731515830456,0.9636966495835231,-0.15507491498496712,9.406234482256409,-5.126819531972852,29.452239741669924
1760958257.2054467,-1.1088828272164382,0.07150285290965838,0.9632248722072491,-0.15325735611396948,8.102348760440966,-1.7088367139774732,28.011130320259312
1760958257.2155213,-0.7235416307231793,0.059546002280113884,0.9625034715669645,-0.15267273481074883,6.918760977028441,1.7321982301336853,26.672518398096088
1760958257.2254806,-0.3779354937024125,0.04589129602342174,0.9613359347373239,-0.15336843678745524,5.888449387725206,5.0586131496565825,25.521811725909032
1760958257.2355256,-0.07122856621929231,0.031647131663052566,0.9595929987807301,-0.15526459275487206,5.022904242153059,8.140183655171699,24.609073619737238
1760958257.2455556,0.1993568843060722,0.01799996656237963,0.9572391918106982,-0.15815061031551933,4.313644179817148,10.866141539874317,23.949427300936037
1760958257.2555318,0.4382972966310249,0.006080375811214545,0.9543397646933112,-0.16170386277317567,3.7352279460871847,13.155520035035051,23.527053271214026
1760958257.2655127,0.651350576056629,-0.0031813587673904823,0.9510458532510349,-0.16553179927112302,3.249387651148036,14.9645364013917,23.301924159317387
1760958257.275599,0.8449872300779291,-0.009188495056228806,0.9475623883552877,-0.16923219586997942,2.8099140549034822,16.290084569278292,23.218278818522716
1760958257.2854843,1.0257219934343813,-0.011777069208895452,0.944108344852182,-0.1724611881238815,2.367923941650842,17.16884857048083,23.213797315172478
1760958257.2955356,1.1994239693790196,-0.011259925102114054,0.9408793779961415,-0.1749961975811527,1.8771396408744645,17.672030691847592,23.228488773840507
1760958257.305744,1.3707016813627164,-0.00839917616514983,0.9380192954447133,-0.17678052149502627,1.298824991999869,17.89619586818835,23.212425644583004
1760958257.315658,1.5424647347370035,-0.004300013209126047,0.935602775303698,-0.17793837692645958,0.6060439291021378,17.951211859244182,23.131619608201408
1760958257.325505,1.7157501523703076,-0.00023258737070287012,0.9336302210933357,-0.1787541896194243,-0.21307966334837058,17.94663564605666,22.971510641423574
1760958257.3355732,1.8898669254832918,0.002595469842822873,0.9320366137375385,-0.17961743006644923,-1.1534190911393258,17.978105736102318,22.737731872648453
1760958257.345559,2.062859540890498,0.003278673783157067,0.93071769532397,-0.18094263522292878,-2.1925159862139734,18.115335496653383,22.454041429444413
1760958257.3555315,2.2322259636119295,0.0014175982681804615,0.9295766671695419,-0.18308118823341438,-3.29208186960848,18.393173967526653,22.157596214508484
1760958257.3654766,2.3957599206208258,-0.0027625341151613,0.9285913570884762,-0.18624432742959263,-4.401384126036995,18.80691817529595,21.892066389564402
1760958257.3756485,2.5523417696880197,-0.008415457068897255,0.9278953047531141,-0.19045387167122205,-5.462347138361189,19.312635301463605,21.699405544356132
1760958257.3855312,2.7024964555738107,-0.014209677017248021,0.9278577604087029,-0.19552932792259736,-6.4159642571972775,19.832710575919418,21.61134281822753
1760958257.3955014,2.8485778954492,-0.018573494561112652,0.9291400250776587,-0.2011106147975629,-7.2094069296542065,20.26622997232137,21.641797541798475
1760958257.4054303,2.994517602053182,-0.01999720848142345,0.9327027961477049,-0.20670703819853442,-7.803053623429239,20.50320455210621,21.781387700065256
1760958257.4157352,3.1451718406802427,-0.017323777341070337,0.9397440613072011,-0.2117567403928397,-8.17657162404573,20.44110921783264,21.994977113154484
1760958257.42544,3.305392146249206,-0.009961118051795535,0.9515591413483198,-0.2156788741601318,-8.333216428793007,20.001785327468554,22.222779342369048
1760958257.4356067,3.479006030312425,0.0020287058688013906,0.96933076396607,-0.21790563686372522,-8.301704829671776,19.146487080683976,22.384958064214075
1760958257.4455452,3.667914042374446,0.01797423234687546,0.993874083383256,-0.21789183561633582,-8.135347087737467,17.886831555839038,22.38905706004883
1760958257.4554036,3.8714841158759548,0.03675238177483397,1.0253761803128598,-0.21511019771615814,-7.908487917290589,16.28978315656746,22.139128445035695
1760958257.4655561,4.0863611534221,0.05701663719313818,1.0631793891356145,-0.20904557993779685,-7.710593191637785,14.475628123267192,21.54522682276746
1760958257.475484,4.306720957390595,0.077441104093039,1.1056609364667962,-0.19919973783585473,-7.638514041754009,12.609018227563041,20.531996175802384
1760958257.48593,4.524900969614527,0.09692389309828923,1.1502552494583804,-0.1851141400008217,-7.7876386680828835,10.884239532586275,19.045302720245825
1760958257.4956715,4.732259814001945,0.11470377452253057,1.1936460732687237,-0.16641492050078108,-8.242849115778109,9.506591387939443,17.056178099091795
1760958257.505581,4.920077044792431,0.13036840876751288,1.2321215315629994,-0.14288071231363864,-9.070367486062432,8.672081221906765,14.561701260439937
1760958257.5156348,5.080316474914882,0.14376557906245366,1.2620438659602582,-0.11452818520289293,-10.311572446725226,8.547669279338706,11.582850789115723
1760958257.525413,5.2061332158172124,0.1548576214282939,1.2803532373713256,-0.08170199836419655,-11.979598696322803,9.254147871598484,8.159784621491667
1760958257.5355675,5.292081187756303,0.1635705124519653,1.2850147364458224,-0.045148767178700595,-14.059018257825928,10.853430301836186,4.345415160556611
1760958257.5455122,5.33404841875008,0.16968115983935525,1.2753297635886902,-0.006051475138918123,-16.508296174100703,13.341502675012375,0.19846388932910336
1760958257.5554519,5.328997547241177,0.1727688210247805,1.2520592926305472,0.03399657950798257,-19.264231290299012,16.64754521481422,-4.22269899595229
1760958257.5655575,5.274615523052191,0.17223909557830294,1.21733990406667,0.07309026490948822,-22.247385890132637,20.638885191101046,-8.864243603047461
1760958257.5754988,5.1689816163488365,0.16741523871230315,1.1744083650872466,0.10918210000359477,-25.367578109842402,25.130711986671766,-13.67824650595606
1760958257.5855098,5.010349254753554,0.15768088363858093,1.1271814639573006,0.14030616833535708,-28.52874568304911,29.89903465661098,-18.620884250923556
1760958257.595821,4.797107219627164,0.14264892240916857,1.0797601189456478,0.16482453899048774,-31.632775384173893,34.6952778115094,-23.647735772635837
1760958257.6056657,4.527942830224715,0.1223232627107666,1.0359370397138774,0.18165123913132325,-34.58218258902946,39.26118446750195,-28.707172700850236
1760958257.6155279,4.202181434761034,0.0972171367785896,0.9987820121204576,0.19040428730538425,-37.28179076872958,43.34318776673027,-33.73341913512231
1760958257.6254504,3.82023402087096,0.06839800337988691,0.9703573007262764,0.19144657039648852,-39.63973891934256,46.70589503758197,-38.641144192290504
1760958257.6356297,3.3840580270105938,0.037443606190547415,0.9515848352748084,0.1858010605357944,-41.56818477855503,49.14460432512596,-43.32326956936364
1760958257.645461,2.8975294479085627,0.006308924193486482,0.9422609071596583,0.17495698834426243,-42.98400350910222,50.496795244923135,-47.65307604435523
1760958257.6554372,2.3666352667778363,-0.022886145914575756,0.9412022185737646,0.16061067690635042,-43.80971109770509,50.652366656381275,-51.49086339635501
1760958257.6658251,1.799420536652854,-0.048130309304549646,0.946502940047278,0.14439965460371065,-43.97487215288725,49.56210928248298,-54.694569588796334
1760958257.6754322,1.2056608434561562,-0.06782431849740882,0.9558720564758557,0.12768724432713274,-43.418399145891875,47.24355489346946,-57.13306307254827
1760958257.6858246,0.5962739320019177,-0.08106572585892921,0.9670007930609513,0.1114380599687048,-42.092294040338075,43.7830215454961,-58.700398167871235
1760958257.6954699,-0.01747228640864485,-0.08785404306136453,0.9778934090888897,0.09619925834078631,-39.96729122588457,39.33253471429815,-59.32917665184785
1760958257.7055218,-0.6248603054816906,-0.08915756451326672,0.9870961531313156,0.08217652291586483,-37.04034735160598,34.100520966407196,-59.00122292537871
1760958257.715417,-1.2166101653075567,-0.08680433313142207,0.9937842305789774,0.06937326642202542,-33.34306338681246,28.335841120154765,-57.75400227388624
1760958257.7254353,-1.7856204743602795,-0.08319735973302253,0.9977063120790999,0.05774928523947458,-28.94926873605935,22.305825512881746,-55.6815807998281
1760958257.7359085,-2.327441325548503,-0.08089762786552235,0.9990231693553986,0.04735359373792177,-23.97954085466781,16.270329326770035,-52.92945522317831
1760958257.7455742,-2.8403919282670502,-0.08215423063397352,0.9980992195112265,0.038396327901609864,-18.600589498397564,10.455120189544962,-49.683301141161515
1760958257.755523,-3.3252928620958087,-0.08847920374578794,0.9953107561295399,0.031243404959191895,-13.01820785514833,5.028711052552545,-46.15259529516339
1760958257.76551,-3.7848542121573563,-0.10036007783897768,0.9909235628026053,0.02633948315039893,-7.463743780187188,0.08670742716819381,-42.551036107834385
1760958257.7755442,-4.222832115870863,-0.11717506623945899,0.9850661889220282,0.02408434059477147,-2.1754983042318883,-4.353227138968937,-39.07645879509221
1760958257.7855935,-4.643118998225979,-0.1373290972929012,0.9777885564987211,0.024700738130640804,2.622289523033389,-8.344394769726073,-35.89322512332756
1760958257.7957048,-5.0489500622903,-0.15857650347211413,0.9691628104748442,0.028134689337011194,6.739564579533761,-11.992833862770624,-33.11970746502627
1760958257.8057559,-5.442382311783983,-0.1784558688489546,0.9593720416892909,0.03402008166770336,10.036517550279669,-15.43076521102202,-30.82258020475637
1760958257.8159301,-5.824137625976234,-0.1947461362665895,0.9487493840217436,0.041720466702986445,12.43324000798693,-18.786338012778952,-29.01845951559572
1760958257.8257384,-6.193815477317291,-0.2058586343614087,0.9377615163677128,0.05043784817645329,13.911852112619982,-22.155093458681563,-27.68226500643733
1760958257.8356032,-6.550398007768419,-0.21109768460627779,0.9269538540298783,0.059360067249536685,14.511323606578907,-25.578229503450203,-26.760674415303335
1760958257.8456008,-6.892913477114881,-0.21074790608556052,0.916879179069691,0.06781041814521484,14.316420766064095,-29.031325716424977,-26.1882952556646
1760958257.855639,-7.221106512526553,-0.20597998724096814,0.9080255125806391,0.0753651084584699,13.443088706658921,-32.424999425824794,-25.90376591567611
1760958257.8657222,-7.535982678271257,-0.19860450190685366,0.9007543176369829,0.08191351016440553,12.02293784632825,-35.61659077608588,-25.863020895135982
1760958257.8758008,-7.8401362213658645,-0.19073222371402238,0.8952576612441319,0.08765114593348655,10.189252551197969,-38.4300493374412,-26.047491593147267
1760958257.8857396,-8.137817374571704,-0.1844094112826744,0.8915386469932796,0.093012534036971,8.066183663104335,-40.680145511316624,-26.466027748289903
1760958257.8955746,-8.434739734521505,-0.18129099027673326,0.889413896542571,0.09856403468346081,5.761821244547071,-42.19703738969037,-27.15058501479109
1760958257.905864,-8.73766524790729,-0.1824012907863061,0.8885331758882132,0.10488206008614562,3.3650061874029107,-42.84787229663187,-28.146882210817612
1760958257.91549,-9.053831777418496,-0.18801368975721228,0.8884105622433298,0.11244062898783466,0.9452439843340185,-42.55311747740534,-29.50199747688191
1760958257.9256444,-9.39030362189686,-0.19765852665551192,0.8884641857508249,0.12152576044493357,-1.4450392241923828,-41.2963332406742,-31.251133885256692
1760958257.9356298,-9.75332754839581,-0.2102468641867656,0.8880658390730233,0.13218338147870864,-3.7665323660655616,-39.12692838498513,-33.40560244019534
1760958257.9456122,-10.147766590144583,-0.22427960372473155,0.8866029772157812,0.1441958184157811,-5.987823395589724,-36.15607790098265,-35.94360225888862
1760958257.9555557,-10.57666379531753,-0.23809925877502325,0.8835513963363412,0.15707567067379932,-8.079328049986765,-32.546537373484426,-38.80479502502567
1760958257.965576,-11.040962957176989,-0.2501374567893643,0.8785497220192539,0.1700692188734636,-10.0068754423546,-28.49762110203726,-41.88910816453644
1760958257.975707,-11.539389323957154,-0.25911721081021993,0.8714613334036829,0.18217339218970216,-11.725703349372042,-24.227103327993092,-45.059759113197074
1760958257.985587,-12.068476884460123,-0.2641853656144719,0.8624093530067692,0.19218349238114985,-13.175885952340682,-19.95218776001882,-48.15022397894878
1760958257.9955955,-12.622723922857745,-0.26497212408630166,0.8517762969336987,0.1987928999106752,-14.280395208897973,-15.871875888556533,-50.974728204372255
1760958258.0057073,-13.19486282045452,-0.26159088671395614,0.8401673177812305,0.20075426798473436,-14.946932028733787,-12.152911859256678,-53.34167265667151
1760958258.0158267,-13.77623547770598,-0.25459534414860113,0.8283404409783363,0.19708808678432477,-15.0742250091553,-8.92087539760001,-55.06910291566568
1760958258.0256524,-14.357264671390611,-0.2449051588697356,0.817110743689667,0.18730101842514071,-14.56270117820784,-6.256996135969416,-56.00088837782558
1760958258.0354557,-14.928003050828872,-0.23370668741411862,0.8072406921663701,0.17156340806450268,-13.328514356742492,-4.200150911432895,-56.02185729191421
1760958258.0455365,-15.478729335465376,-0.22233564056358995,0.7993324655642903,0.15079636218332354,-11.319156105792056,-2.7526216216113344,-55.06994421778546
1760958258.055585,-16.00054909003236,-0.2121502592873723,0.7937367759111349,0.1266335994869264,-8.528374225620626,-1.8877623559877268,-53.14356294011931
1760958258.0654457,-16.48594657337237,-0.2044023503640886,0.7904896259687904,0.10124996792258836,-5.007823448166124,-1.5577892297209335,-50.30289402204591
1760958258.0755453,-16.929226906050847,-0.2001113744316195,0.7892871336420509,0.07708080448282295,-0.8728042800342174,-1.7003395265007655,-46.66448550153881
1760958258.0855422,-17.32678907075244,-0.19994852009845132,0.7895070213735274,0.056483859718499695,3.7001527139897097,-2.2430551870741313,-42.38943391254785
1760958258.0955572,-17.677185010108357,-0.20414494591833485,0.7902810720051698,0.04140900186347995,8.484993685978957,-3.106075170215263,-37.666371815399934
1760958258.1054363,-17.980949221144826,-0.21244671438838764,0.7906174840147265,0.03313678359384954,13.226538519422578,-4.20289359448745,-32.69141116231982
1760958258.1154356,-18.240220839192094,-0.22413945213605832,0.7895673664227211,0.03212830102509224,17.667062523246628,-5.440500059248596,-27.647844979186576
1760958258.1255875,-18.458214945809488,-0.23815217580058354,0.7864229449979515,0.03800302538995804,21.575095702662118,-6.719970934603453,-22.688531542709274
1760958258.1357682,-18.63862114768506,-0.25322644221324975,0.7809240040134953,0.04963627856746937,24.7718604761748,-7.938618609285135,-17.923387145464133
1760958258.145654,-18.78501140024848,-0.2681168565571193,0.7734376644884483,0.06534886122267566,27.15107999498691,-8.994396217502347,-13.413472416473958
1760958258.1555383,-18.900329030279995,-0.2817818536838976,0.7650723789949021,0.08315023152277294,28.689000647129816,-9.792587256136892,-9.172083959886566
1760958258.1655188,-18.98651461692324,-0.29353038962362876,0.7576937332192419,0.10099438969353419,29.443179590756078,-10.2540749487736,-5.172311517941986
1760958258.1756995,-19.04430927496669,-0.30310525032046637,0.7538235390610749,0.11701363616197899,29.54054230711168,-10.323924053046316,-1.3598091909806869
1760958258.185551,-19.073263340341054,-0.3106981664261484,0.7564163197948679,0.12970653054174144,29.156908210199784,-9.978809821171861,2.3309416234911158
1760958258.1955361,-19.07196052875783,-0.3168976208361565,0.7685152576434041,0.13806764308199979,28.49121850035754,-9.232021073454664,5.95891675844743
1760958258.2055457,-19.038435188295086,-0.32256871771849444,0.7928017513119602,0.14165382873297083,27.738074854071524,-8.13518698486002,9.559685142076138
1760958258.2157733,-18.970717693439582,-0.32866782683182766,0.8310790743317474,0.14058459113067745,27.062152549834163,-6.776343179630089,13.131896599523204
1760958258.22558,-18.8674080932209,-0.33600974910892034,0.8837657557790449,0.13547643361839087,26.577723268467512,-5.274399717394341,16.629582613217526
1760958258.2357757,-18.728164462422797,-0.3450230481913453,0.9494998658917014,0.12731662094882829,26.335894325869937,-3.770509437204039,19.962269151872604
1760958258.2454455,-18.554000610518383,-0.3555379916174607,1.0249580501078257,0.1172911965561709,26.32126617100187,-2.417214542936512,23.003947972053222
1760958258.2555602,-18.347314582785188,-0.36665040121761133,1.104972148002683,0.10659289374857654,26.45862883952717,-1.3664799537497505,25.610578741246137
1760958258.2654874,-18.111614230824713,-0.3766985202685992,1.1829854886685767,0.09624116231284735,26.62912089185196,-0.7577222509853474,27.644180861098818
1760958258.2757008,-17.850965811869248,-0.3833786911930209,1.2518312817139878,0.08694293329892447,26.693971424004356,-0.7066441602888716,28.999999806287413
1760958258.2855132,-17.569255492811365,-0.3840062866517564,1.3047389277419315,0.07900874527415193,26.522616807126877,-1.295085463741155,29.63204048230399
1760958258.2956324,-17.269407018586456,-0.3759021827897066,1.3363954050367608,0.0723229494628134,26.020849277159815,-2.561457386958252,29.571803088807975
1760958258.3055801,-16.952727255927616,-0.35685652739299367,1.3438383212884188,0.06636047359777768,25.154029596803998,-4.491228058484803,28.935644878477724
1760958258.3157382,-16.618543114635266,-0.3255948046886313,1.3269668179626568,0.0602499378906867,23.960598572197426,-7.007912634112247,27.91797106595962
1760958258.3255355,-16.264243047639056,-0.2821534784978214,1.2885395682977172,0.05289400004585032,22.55235899108151,-9.966902838977436,26.770210916154053
1760958258.335461,-15.885750594238214,-0.22807592672204233,1.2336638078532562,0.043156436274077704,21.10021887154474,-13.15610439701533,25.768570154796215
1760958258.3455086,-15.478357609754314,-0.16637066737327108,1.1689121910243194,0.030104036358446485,19.806892911874634,-16.307364501495744,25.17592579318144
1760958258.3554811,-15.037761113528928,-0.10122417740962358,1.1012814168141387,0.013258112738768568,18.87082813214322,-19.120536922259284,25.204238597450562
1760958258.3654664,-14.561106369027707,-0.03751184769202258,1.0372082204635942,-0.007215876310382113,18.447757442313197,-21.298439768565697,25.983411248085865
1760958258.3756077,-14.047850734563628,0.019810406454802372,0.9818032036387272,-0.030452113142015465,18.617348724916774,-22.587296948593227,27.541081114513005
1760958258.3854795,-13.500319758495857,0.06632939952347408,0.9383864714952616,-0.054998544876613896,19.362038938645615,-22.814884873374716,29.796003466884155
1760958258.3955705,-12.923905630237877,0.09870632121773674,0.9083405315598615,-0.07908051196225964,20.563086573457078,-21.918405784333917,32.565799293645696
1760958258.4058342,-12.326929493457081,0.1150314194021067,0.8912480038359253,-0.10093991339619375,22.015380009297985,-19.95616788481385,35.58798802087304
1760958258.415499,-11.720231395800743,0.11495692081072581,0.8852525481685467,-0.119153988374131,23.458493557939967,-17.100751959936453,38.551479025183696
1760958258.4254432,-11.116559037264937,0.09961036396691174,0.8875643558181386,-0.13285450602768845,24.61806061846838,-13.61534013695228,41.13430015026565
1760958258.4354928,-10.529808788977757,0.07133037824426902,0.8950224395756142,-0.14180938797715179,25.24962502688453,-9.818192645921327,43.0425852931617
1760958258.4456055,-9.974147799500201,0.033292990330909954,0.9046254087639705,-0.146371977435292,25.1770758038211,-6.04214247451765,44.04587758899052
1760958258.4555497,-9.46303237269695,-0.010893680439151569,0.9139538510562001,-0.1473326367460722,24.31936475549526,-2.5961523668791204,44.00456376840644
1760958258.4654243,-9.0081458160923,-0.05755685878894306,0.9214313040164627,-0.1457196006446455,22.701833839961903,0.26536919550013816,42.88648866628283
1760958258.4754696,-8.618308370673672,-0.1032441612944484,0.9264017778658091,-0.14259539487383252,20.45138035588127,2.3621306626101144,40.77120864636473
1760958258.4855697,-8.298452740279185,-0.1449142649697134,0.9290334538033614,-0.1388875086121266,17.7772689660471,3.595660683541863,37.84172950857202
1760958258.495491,-8.048795491821773,-0.18004817292243364,0.9300866670045864,-0.1352807183506027,14.941333637991937,3.9466546481182356,34.364860992671936
1760958258.505453,-7.864350916969672,-0.20670863858260807,0.9306064377551064,-0.1321839028239788,12.222465978480274,3.4648548791268574,30.662474678067216
1760958258.515489,-7.734918589296667,-0.22357344992799827,0.9316115525095631,-0.12976691854579056,9.880646416919053,2.254751066403966,27.076916686772567
1760958258.5255387,-7.645626645697563,-0.229957827455646,0.9338487638629126,-0.1280464122163415,8.125402951407924,0.45997566049534594,23.93449074877557
1760958258.5355356,-7.578036625188454,-0.22582859665091679,0.9376583955145857,-0.12698833371318016,7.09258584262306,-1.7515847332221561,21.51116866307806
1760958258.545475,-7.511725507581022,-0.21180221644442165,0.9429605357000735,-0.12659370504087616,6.831893174932865,-4.2008691579318285,20.004443754325614
1760958258.5554998,-7.426173578818896,-0.18911264503763403,0.9493351728081241,-0.12694414197454126,7.305909565079812,-6.708577693572429,19.514533094857008
1760958258.5656364,-7.302722700236288,-0.1595351788448228,0.9561522328705553,-0.12820049206022888,8.399804384423625,-9.10410896551529,20.037008785064163
1760958258.5755196,-7.1263462729326275,-0.12525914946906025,0.9627109553376305,-0.13056353482096078,9.939532414983427,-11.232847275657047,21.46749664469334
1760958258.5855281,-6.886998785541092,-0.08871396751540844,0.9683616243108729,-0.13421398093793954,11.715547672349851,-12.962113278427807,23.61750210994009
1760958258.595415,-6.580384994195795,-0.052366089698790926,0.9725962220640115,-0.1392499734563869,13.508697707176681,-14.185911178014406,26.238958675585103
1760958258.6055722,-6.208088729051537,-0.018514701598981435,0.9751045328708334,-0.14563725699806612,15.11503559747506,-14.828406125736121,29.054010554504895
1760958258.615591,-5.7771033673352,0.010883159485569126,0.9757979852402174,-0.15318261484765136,16.366687924686666,-14.845975428504106,31.786038100230293
1760958258.6256063,-5.298885265491968,0.03433449561548497,0.9748048941778514,-0.1615357224557801,17.146599034816212,-14.227740927806643,34.18807231490841
1760958258.6358106,-4.788092184410009,0.05087152991172508,0.9724394841474354,-0.1702185492358914,17.395895343666243,-12.994641981024307,36.065442084860464
1760958258.6454942,-4.261170325570349,0.06006125297733964,0.9691470863504064,-0.17867597712857786,17.113687449615995,-11.197232553996791,37.290577429394276
1760958258.6555333,-3.734930093868608,0.06198023734273901,0.9654317587705395,-0.18633790199405167,16.350167105806253,-8.912395826297711,37.80912149531291
1760958258.6655252,-3.2252214833605803,0.05716727114189445,0.9617781604746378,-0.19268258017044915,15.194643011802931,-6.23906372546015,37.63765246909096
1760958258.6754928,-2.745797159711597,0.046556826221812043,0.9585819178172794,-0.1972929976165113,13.76056981245803,-3.2928938945745814,36.85422931051149
1760958258.6860528,-2.307434737275609,0.03139130835713666,0.9560995985921914,-0.1999011651213731,12.169677276116557,-0.1998090870557128,35.58359953128866
1760958258.695582,-1.9173722396567991,0.013112576612220133,0.9544233981699,-0.2004178096690639,10.537104327135685,2.911582498201237,33.97925367905943
1760958258.705456,-1.579086445936463,-0.006760448217259048,0.9534807502294491,-0.19894612066890577,8.959089991397446,5.9183931248974195,32.20459993481593
1760958258.7156055,-1.2924124194227133,-0.026756018352551942,0.953056235730367,-0.1957784861333587,7.504331823059367,8.712035286626167,30.415373787386006
1760958258.7255125,-1.0539682384701619,-0.045561543450121554,0.9528309629091275,-0.19137545226461786,6.209623212189866,11.206002035483579,28.74502047168889
1760958258.7356539,-0.8578177600341689,-0.0621104178741849,0.9524326151511776,-0.1863270425021361,5.079866810555242,13.341712545785224,27.294262452388477
1760958258.745614,-0.6962812019829795,-0.07563438246701161,0.9514887504077985,-0.18129820708320568,4.092093169714441,15.091371704967921,26.125477132886573
1760958258.7555938,-0.5607913091456388,-0.08567694895026733,0.9496776130993937,-0.1769622354163817,3.202739651126181,16.457159524782526,25.261928522791415
1760958258.7655478,-0.44269331898228104,-0.09206867329745726,0.9467743009068569,-0.17392806309990544,2.3571775462195226,17.46665848654149,24.691373367203973
1760958258.775549,-0.33390089031623393,-0.09487062464424528,0.9426938791509382,-0.17266966256831245,1.5002940769142952,18.16508860040585,24.373142811006144
1760958258.7858305,-0.2273474583690388,-0.09429795441746017,0.9375346730345245,-0.1734680650323472,0.5868150880476876,18.60548236567841,24.24751111226206
1760958258.7954965,-0.11721060420454377,-0.09064002190740895,0.9316232586454742,-0.1763773965304254,-0.40998988803235265,18.838300948757237,24.24600759554989
1760958258.8055158,0.0010701561104406207,-0.08419501491432249,0.9255580199142825,-0.18122314790721292,-1.4924848845557674,18.902144431786777,24.30130423458599
1760958258.815504,0.13092509308516428,-0.07523249939530435,0.9202417110056524,-0.18763325407556528,-2.6367109126243546,18.817125192898047,24.355421382280177
1760958258.8256755,0.27485912438082305,-0.0639871173426824,0.9168872340646922,-0.19509360121582994,-3.7948177893170842,18.582126317210086,24.365249034780426
1760958258.8356237,0.43465415387423273,-0.05067701769780034,0.9169778376781466,-0.2030141037133387,-4.901817360123265,18.176574162684826,24.30478402529942
1760958258.845604,0.6115075461000681,-0.0355371696480231,0.9221657410735197,-0.21079145007131495,-5.8859498558311225,17.56661791155406,24.163994484065725
1760958258.8555932,0.8060677724867146,-0.01885799630969928,0.9341025024119782,-0.21785754397674698,-6.681354036673108,16.71487260664572,23.944744740391606
1760958258.865517,1.0183589376587407,-0.00101787148693329,0.9542086501936246,-0.22370566129992392,-7.241266547800593,15.59226914025709,23.654639215522668
1760958258.8754308,1.2476234709233194,0.01750556160257037,0.983405626578573,-0.22788991242195214,-7.549719906171028,14.190160112821728,23.299915272777888
1760958258.885513,1.4921455615569905,0.036158345696027085,1.0218466046125791,-0.22999969476111246,-7.629716953217166,12.53073179548237,22.878626149289676
1760958258.8954604,1.749130287294494,0.05436876813410021,1.0686922693290135,-0.22961869248935934,-7.546195313196699,10.673999247716194,22.37530403580489
1760958258.9055228,2.0146961830700985,0.071626230917362,1.1219815459928915,-0.2262842740624451,-7.402799572461181,8.720156005930859,21.75806137970903
1760958258.9155905,2.2839989376624166,0.08755321700492459,1.1786438251904467,-0.21946543430989346,-7.332482710322609,6.806687188894572,20.97867842062676
1760958258.9254422,2.5514588478592954,0.10194218367578331,1.2346864194230107,-0.20857568574182217,-7.483041009402711,5.10031319272637,19.975709462505115
1760958258.9356837,2.8110336075190134,0.11473929348688915,1.2855659324354383,-0.19303180647057955,-7.999555278494243,3.784429859975462,18.680146666268804
1760958258.9456353,3.056471740612422,0.12597380753561088,1.3267142883610477,-0.17235933564741682,-9.006151800049729,3.043211668846068,17.022816917412513
1760958258.9555283,3.2815000733787265,0.1356513763272139,1.3541458163755862,-0.1463316238543941,-10.589476148855658,3.0439420417395944,14.942491906524538
1760958258.9657433,3.479932732290157,0.14364690622338244,1.3650358554570723,-0.11511524191358083,-12.785917529606328,3.9194219681192863,12.393639484661751
1760958258.9756248,3.6457259283272054,0.1496394634655737,1.3581519758725187,-0.07938653219231247,-15.574100006644645,5.752433281856951,9.352795826820355
1760958258.9857814,3.773026709549789,0.15311904384005717,1.3340464480995586,-0.040385470426650694,-18.87357575751638,8.564117906067189,5.822679907825418
1760958258.9955153,3.856264066974019,0.15346607330944328,1.29497550519292,0.0001168940336809577,-22.550025183111558,12.307736981790864,1.8334290382183367
1760958259.0056381,3.8903076493935584,0.15007554728096456,1.2445744388226534,0.03994566464113751,-26.426554351225757,16.868639318307377,-2.559262058809534
1760958259.0157816,3.8706845041130316,0.1424849507164357,1.1873643364283866,0.07673487227648584,-30.299884944077064,22.07053239485071,-7.278783352190995
1760958259.025779,3.7938152509546956,0.13047254836080047,1.128184961922145,0.10819982128674861,-33.95944760342347,27.68746192701799,-12.234149472265822
1760958259.0357285,3.6572228677019893,0.11411213851208898,1.071641488822648,0.13242901810367427,-37.20679791955441,33.46034248088161,-17.327114259321966
1760958259.0455494,3.4596820403738517,0.09378863604090157,1.02163250837082,0.14814759484529139,-39.87261647776962,39.11643345576611,-22.4584300712517
1760958259.055923,3.201301826534934,0.07018579351530277,0.9810056437715108,0.1549040862188963,-41.82901854989603,44.38978693893534,-27.532180444490916
1760958259.065601,2.8835524319194827,0.04425295318391971,0.9513689931722155,0.1531411975251269,-42.99593266922738,49.040422169267195,-32.45783241979207
1760958259.0755925,2.5092508035180847,0.017150411635676953,0.9330669159711291,0.14412973041419863,-43.341558507555234,52.8699584051783,-37.15041038163945
1760958259.085529,2.0825127972706605,-0.009829623403488143,0.9253051203796616,0.1297721356499927,-42.877927495765306,55.731899969171295,-41.52967372524317
1760958259.0955474,1.6086694366504446,-0.03536596659324363,0.926388463259253,0.11231148135530507,-41.65308925648925,57.53577558006676,-45.51926257303658
1760958259.1056504,1.0941376335386324,-0.058227997512943365,0.9340236753206121,0.09400284522862917,-39.741472221255634,58.245607942877804,-49.04654493666879
1760958259.1158202,0.5462345259107884,-0.07739861044437839,0.945640605860744,0.07681104157860809,-37.23377262998445,57.874257546545785,-52.043557204429064
1760958259.1255803,-0.02707144826912799,-0.0921852500835942,0.9586946262191345,0.06219101389158405,-34.22755957549985,56.47566311075594,-54.449161291590364
1760958259.1357875,-0.6174729325919985,-0.1023057800550635,0.9709237558384637,0.05098738684974471,-30.819722318879126,54.13676068134825,-56.212410932063975
1760958259.1458042,-1.2166918191934915,-0.10793932945095727,0.9805433435231915,0.04346092268238333,-27.101809825203343,50.970071455018676,-57.297049540417746
1760958259.1557631,-1.8168859447510102,-0.10973309634255886,0.986366860140782,0.039418501028707455,-23.158985145511046,47.10700267701729,-57.68690624808643
1760958259.1656916,-2.411065081910124,-0.10875491809665296,0.9878454421642765,0.03839896005600608,-19.072581312197144,42.69124648280445,-57.39162690794553
1760958259.1759233,-2.993474757333905,-0.1063842990139877,0.9850260050959813,0.03985775051321274,-14.92522901674987,37.87155670106286,-56.45172727918123
1760958259.1859143,-3.5598986795903524,-0.10414582348255565,0.9784392448420656,0.04330190353121485,-10.806627155226066,32.79362256718711,-54.941576701013304
1760958259.1959898,-4.107831784838479,-0.10350520029748364,0.9689410166147346,0.04834933642575021,-6.817650041091729,27.591486714531754,-52.96885500377033
1760958259.2055302,-4.636488356023721,-0.10566210193135052,0.957539140554201,0.05471369105951025,-3.0708027935013456,22.379616620214307,-50.669435072308595
1760958259.215739,-5.1466330087109355,-0.11138008036703848,0.945239369445678,0.06213826460981704,0.31403591650688484,17.247058107509993,-48.19750901771767
1760958259.2256696,-5.6402528877382405,-0.1208895327008427,0.9329363931914846,0.07031474076208265,3.218363150713822,12.254980656045168,-45.71189028337919
1760958259.2356093,-6.12011958466019,-0.13388407714358058,0.9213587257486721,0.07882301262570872,5.536805898439092,7.438397664811569,-43.36046343338835
1760958259.2455149,-6.589309968294543,-0.14960751808408698,0.9110567601325689,0.08711866562993335,7.189533767739162,2.8120019714015223,-41.26539964093594
1760958259.2560062,-7.050760283681231,-0.16700683201743083,0.9024115594732381,0.09457800904647774,8.132778131253437,-1.620909431077659,-39.51181460500917
1760958259.2657106,-7.506917315825996,-0.18491467179999238,0.8956444134208378,0.10059189641643465,8.36535560528061,-5.858238633683025,-38.14198359023172
1760958259.2758744,-7.959529004174834,-0.20222507835119458,0.8908206357932154,0.10468437131968947,7.930008811386285,-9.889774748658132,-37.15615851014885
1760958259.2857795,-8.409591279108067,-0.2180349801677842,0.8878549392791507,0.10662468283145089,6.909470739260902,-13.69069243828007,-36.51970238813754
1760958259.2956393,-8.85744332030845,-0.23173638741597385,0.8865304024639757,0.10650304704955514,5.4181338299560196,-17.219065161498165,-36.17499466759505
1760958259.305533,-9.302982986562817,-0.24305596807198543,0.8865369908722595,0.10475006326377032,3.59084399729505,-20.417626180894533,-36.05566342304585
1760958259.3156586,-9.745958955751798,-0.25204692948970475,0.8875247350597434,0.1020933610282717,1.5705655148799742,-23.21909868755243,-36.100353921308134
1760958259.32562,-10.186285554811171,-0.2590407214120284,0.8891584987362471,0.09945917913417701,-0.5034627736949877,-25.55380638489155,-36.26349892672754
1760958259.3356016,-10.624320851315463,-0.26456534291857775,0.8911596762312491,0.09783781537753353,-2.505801830627315,-27.35805234357401,-36.521327284910576
1760958259.3456495,-11.061052186208192,-0.26923894248295005,0.8933237832178889,0.09813768050999506,-4.332287590332107,-28.581869316475785,-36.87242584636747
1760958259.35576,-11.49814882461386,-0.27365307008685485,0.8955079898875644,0.10105267404631761,-5.904557895886902,-29.1950942311102,-37.33328046914471
1760958259.3657558,-11.93786539222351,-0.27826362020441003,0.8975885206617552,0.10696316229946189,-7.1717006838527855,-29.191170500697055,-37.930100320657466
1760958259.3757017,-12.38280546828315,-0.2833058389385285,0.8993974656663225,0.11588291546833081,-8.109347417200524,-28.58849598330178,-38.6887088396693
1760958259.385667,-12.835577675026201,-0.28874582597311127,0.9006613248295249,0.1274537315270265,-8.716612190325282,-27.429430949643095,-39.62434837980168
1760958259.3958335,-13.298394335003085,-0.2942771863516527,0.9009712229108848,0.14097919119767066,-9.011272943083181,-25.777274601615076,-40.7330046952497
1760958259.4056602,-13.77267164703514,-0.299365586933638,0.8998083767270056,0.15548384139525595,-9.023622205659303,-23.711677790068805,-41.985456975634264
1760958259.4156365,-14.258687129331742,-0.30333413695992445,0.896628553823791,0.16978659153327363,-8.789511858803106,-21.323110875057264,-43.32479303097599
1760958259.4254599,-14.755336564820855,-0.3054726844362504,0.8909854536119796,0.18258468792506377,-8.34322808337532,-18.707097035372705,-44.6676356859581
1760958259.435704,-15.260016160251158,-0.30515086949617715,0.8826552277598246,0.19255143311625922,-7.710916155887,-15.958889521077927,-45.908841528713246
1760958259.4457185,-15.768642893098663,-0.30191949331690926,0.8717187207068446,0.19845198997707467,-6.905354788381281,-13.169129366027317,-46.929023301898795
1760958259.455758,-16.275817378280802,-0.295591942644401,0.8585682259900415,0.19927601081012244,-5.922989211607155,-10.420838817057335,-47.60398241473145
1760958259.4657612,-16.7751241055303,-0.28630110643442763,0.8438311802740824,0.19437549138056157,-4.744185852443821,-7.7879223961670645,-47.81502818993494
1760958259.4757037,-17.259549622923892,-0.274526544454969,0.8282339631846217,0.18358544816948189,-3.3374360280452224,-5.335130773864075,-47.45912880952261
1760958259.485629,-17.721980876339643,-0.26108481804342787,0.8124496924756606,0.1672998148336552,-1.6675137935111484,-3.119154721749175,-46.45780245964375
1760958259.4956353,-18.155727581988206,-0.24707630277662998,0.7969771831623153,0.14648005829387686,0.2935239833992779,-1.1902017674638572,-44.763645410945514
1760958259.505526,-18.55499932568292,-0.23378607189233505,0.7820867010840904,0.12258819375443865,2.5547085512187397,0.40680086550232253,-42.3635459695395
1760958259.5155208,-18.915265160911765,-0.22254437518446268,0.7678478770160985,0.09745219229583435,5.096711994740577,1.632220674374591,-39.278062146844434
1760958259.5256612,-19.233434929971597,-0.21456222432633823,0.7542328685990141,0.07308327652154402,7.867187349526688,2.453544510541541,-35.55711582041013
1760958259.5355396,-19.50782847001493,-0.2107667955415782,0.7412703287474869,0.051469054132556064,10.782501513897712,2.849170133317091,-31.27290801711429
1760958259.5457437,-19.737937998664634,-0.21166615196326272,0.7292163426286126,0.03436596799507095,13.7359532755927,2.813767892870296,-26.511576642848897
1760958259.5557437,-19.924032778407263,-0.2172704348257941,0.71870600022812,0.023112299306306053,16.610977597833582,2.364250374918646,-21.365426277777296
1760958259.5655801,-20.066693242360678,-0.22708761591651577,0.7108516239932505,0.01848073593602831,19.296618251320627,1.5449853057293956,-15.92743944795855
1760958259.5755577,-20.166383797733175,-0.24019920768842773,0.7072599689807434,0.020587548928596707,21.702039814943184,0.43081946215498085,-10.289191374122414
1760958259.5859437,-20.223172644325302,-0.2554075875563109,0.7099499539414345,0.028872842069758733,23.76715446193937,-0.8732231319637064,-4.542363790932804
1760958259.5960786,-20.23668038067701,-0.2714325106233394,0.7211641941689394,0.04216079500702406,25.46740822807313,-2.2362034702634173,1.2169189995628782
1760958259.6055493,-20.206288530082777,-0.2871209434916638,0.7430819692075319,0.05879778772045517,26.812073586610225,-3.5096288089517858,6.882439067888484
1760958259.6157205,-20.13157477257026,-0.3016261459958894,0.7774569439170127,0.07685160567323292,27.83664885288789,-4.539667478875492,12.332792027769758
1760958259.6255538,-20.012882762669584,-0.31451463049283124,0.825218290247014,0.09434293520834805,28.59090529156937,-5.182647683962456,17.428750320010792
1760958259.635653,-19.85189753973465,-0.3257731679597316,0.8860891567306743,0.10947513294807792,29.124720529011427,-5.3228530406754215,22.014720571933562
1760958259.64571,-19.652088254617734,-0.3357077550806078,0.9582908385026151,0.12082912928114052,29.474214739272973,-4.8910086860889574,25.925436326828855
1760958259.655721,-19.41889678769368,-0.3447490561934782,1.0384088713212845,0.12749620357869246,29.65090242432245,-3.881134111158441,28.99832533200365
1760958259.6655679,-19.159589770148543,-0.353200734194606,1.1214915209677327,0.12913148965987803,29.636446450701833,-2.3629220655304546,31.09108433109971
1760958259.6756544,-18.88274510773406,-0.36098268221005847,1.201427191228098,0.12592247419307634,29.384979595494556,-0.48673424533526227,32.102919129533895
1760958259.6856678,-18.597403711375968,-0.36742777159709655,1.2716016764998659,0.11847614654396572,28.833796952373625,1.521315617341478,31.99680865014579
1760958259.6957164,-18.311977465672484,-0.3711905255277959,1.3257685725967125,0.10763737443838665,27.921614218481764,3.376008525169089,30.81923223362754
1760958259.7055743,-18.033061931628353,-0.3703195030197213,1.3589897665756987,0.0942653709425598,26.611722594651674,4.762097115328276,28.713255083622645
1760958259.7155435,-17.764347973199406,-0.3625244173324177,1.3684492330336484,0.07901576666182773,24.915564144379925,5.374643648682997,25.920935570921976
1760958259.7254894,-17.50584369375497,-0.3456236764797202,1.353946061341801,0.062192215120859255,22.91100112225075,4.9665658035542,22.77199768383049
1760958259.735926,-17.253589903278336,-0.31809173981454464,1.31794137884105,0.04372768682354692,20.7494664674173,3.3958820879681704,19.65776731159791
1760958259.745682,-16.999974085079206,-0.27956679014122804,1.2651452868352846,0.023322752085968682,18.64768779218657,0.6625619778310756,16.99223814981608
1760958259.7557578,-16.73463390598459,-0.23116623587839158,1.201744127338315,0.0007117800877509811,16.86272517757505,-3.075021939469062,15.165038031736211
1760958259.7657633,-16.445821896478424,-0.17550669636950778,1.1344483249077812,-0.024030988497470287,15.653050587237711,-7.510388838228668,14.493074681468666
1760958259.7756279,-16.122012688353536,-0.1164141731888645,1.069561485494272,-0.050264661836055005,15.232305470531596,-12.226034867215224,15.178195751892089
1760958259.7855344,-15.753499778629477,-0.058397545145586774,1.0122299396138723,-0.07673297067825548,15.725042080049542,-16.750686744985735,17.277340483486224
1760958259.7957172,-15.333758774790404,-0.006013721796786193,0.9659585396987672,-0.10172433836857793,17.134254016193502,-20.625437098434666,20.689779671334158
1760958259.8056772,-14.860432403220159,0.036735027717771096,0.9324147703809484,-0.12339153299645761,19.328508138436227,-23.46609374114899,25.163552835731902
1760958259.8156512,-14.33588246445166,0.0668597405524958,0.9115036297389987,-0.1401315832652027,22.052443655807863,-25.01090051498774,30.320463721541053
1760958259.8257623,-13.767318507173677,0.08264260031063499,0.901667451495652,-0.15092187397173099,24.959381167338893,-25.146820420343253,35.69635911668979
1760958259.835884,-13.166538225845333,0.08369257279631917,0.9003409022045834,-0.15553503083776335,27.660151690802824,-23.91249115918315,40.791339198945735
1760958259.8456366,-12.54931228689814,0.07083287304064126,0.904479234218197,-0.15459293120105672,29.779185573649485,-21.480529618160503,45.12341638073152
1760958259.8558688,-11.93443771663642,0.04586980677299926,0.9110798965534578,-0.1494572639154153,31.00797163877025,-18.12512056126989,48.279094304660276
1760958259.865665,-11.342483977935927,0.011299676070277338,0.9176268282971186,-0.14198593140027013,31.147145354253865,-14.182247638537643,49.9552582869543
1760958259.8757782,-10.794269899542307,-0.029987609470698774,0.9224003676325114,-0.13420895346369735,30.13117964395397,-10.009533909457627,49.988348972401624
1760958259.885742,-10.309138736059724,-0.07495984620055766,0.9246173816689022,-0.12799152741635852,28.033146160361753,-5.9509781524694025,48.3686029869173
1760958259.895717,-9.903141533785183,-0.12062497226511162,0.9243953284354758,-0.12475121103663431,25.05042750688677,-2.309637788808891,45.2387846558077
1760958259.905524,-9.587289024952588,-0.16414957006471068,0.922563050411019,-0.12527924606479185,21.474947885979383,0.6708349659107067,40.87814028578791
1760958259.9156437,-9.366075337347546,-0.20293777067824614,0.9203645944873399,-0.12968826741188236,17.65319995714732,2.816512583455766,35.67338436791313
1760958259.9255779,-9.236494656160573,-0.2346987255987776,0.9191194228490605,-0.13747958470166305,13.942127638559594,4.026949978352999,30.079539289796365
1760958259.9356446,-9.187749727651038,-0.25752254604225133,0.9199101771466079,-0.14770063318073576,10.66689536306655,4.2741253049443175,24.57442753234437
1760958259.945557,-9.20178320093965,-0.2699719061953821,0.9233607920667448,-0.1591511581668381,8.085795509048756,3.597994796969661,19.611417135015316
1760958259.9555411,-9.254654949596281,-0.2711843154846037,0.9295410203831387,-0.17059600740414735,6.366099892129471,2.099596551158186,15.575426517285806
1760958259.9655056,-9.318658110072665,-0.26096984341883606,0.9379980616939118,-0.18095027128422286,5.572787670213021,-0.0678379600237683,12.747017959292458
1760958259.9755478,-9.36494162902849,-0.2398823280726273,0.9478872201726937,-0.18941389782314433,5.670154813825671,-2.709663297441453,11.278556839998453
1760958259.9856908,-9.366317886312883,-0.20924041001327595,0.9581591500957378,-0.19554396191873924,6.534669026839129,-5.6025538095264045,11.184931095741439
1760958259.9956439,-9.299899300822723,-0.1710776382867781,0.9677589655441078,-0.19926243515090522,7.97627603285558,-8.509149838016747,12.349447806271588
1760958260.0056226,-9.149229805641964,-0.12800782784607648,0.9757978340731254,-0.20080589092652792,9.764755868964059,-11.194175999897926,14.543609717811556
1760958260.0157316,-8.90564913350557,-0.08300505719016937,0.9816690044922526,-0.20063112898021962,11.657637468270424,-13.441011099570835,17.45783658164863
1760958260.0255961,-8.568741404860868,-0.03911832971225262,0.9850962213187694,-0.19929651987796318,13.426491844192011,-15.067186433688336,20.739020980374235
1760958260.0355537,-8.145858550546846,0.0008374391384253923,0.9861192065282456,-0.1973417066763595,14.878994042986404,-15.93714162085039,24.03019276995151
1760958260.045923,-7.650845748665655,0.03456116857500627,0.9850331057983571,-0.1951872176405713,15.874860925271271,-15.970878212166925,27.00756433594388
1760958260.0555594,-7.102199717460807,0.060468589262604164,0.9823034990303009,-0.1930706573161007,16.334582252580933,-15.147791719021876,29.410854842967453
1760958260.065836,-6.5209422542037245,0.0777898893891463,0.9784766356253632,-0.19102848513061974,16.24072930800138,-13.505684585856974,31.06396565709996
1760958260.0755417,-5.928489177924846,0.08655727553046536,0.9740992354263389,-0.188923590128795,15.632471308417887,-11.135535124888271,31.884574605702344
1760958260.085701,-5.344751235215355,0.08749808530788367,0.9696565012338808,-0.18651066455990786,14.594640674812005,-8.172883677047462,31.882722183446493
1760958260.0955904,-4.786637285340104,0.08186140093424125,0.9655322700326759,-0.18352487818768082,13.243166704175746,-4.7867017531600995,31.149722637388283
1760958260.1056845,-4.267058222644732,0.07121011023885684,0.9619915428267043,-0.1797752098934162,11.708905570307811,-1.1664758399758806,29.839625824017695
1760958260.1155457,-3.7944632409547063,0.05720867676820381,0.9591827372622688,-0.17522291367206277,10.12185269207786,2.4918420183529064,28.145975938549842
1760958260.1255145,-3.372882304618532,0.04143240502537369,0.9571549244971032,-0.17002874777989424,8.597475679895583,6.000276346727787,26.276806581405463
1760958260.135621,-3.002400179288489,0.02521863782472342,0.955884109271266,-0.1645591933455434,7.226490778775448,9.192700913259486,24.430716903826504
1760958260.1456373,-2.6799474964950605,0.009574894467250173,0.9553019810156129,-0.15934985557934492,6.0688619582373216,11.936959402424684,22.776513176383524
1760958260.1556926,-2.4002654212865755,-0.0048473948297609384,0.9553202503133402,-0.15503150226523452,5.1521954912766,14.143969313546853,21.438310798312003
1760958260.165626,-2.1568896537901106,-0.01771428278441198,0.9558445336296703,-0.15223015616601532,4.474124981993211,15.772696348196996,20.487236367421513
1760958260.1755254,-1.9430144638359756,-0.028919256591185057,0.9567751608375026,-0.15145765753976415,4.007820810298571,16.830312626798626,19.940030784984362
1760958260.185889,-1.752137938181234,-0.03846690696488049,0.9579977883652934,-0.153012535933892,3.7094788456507057,17.36749519644945,19.7640392565242
1760958260.1955535,-1.5784440506340445,-0.04636017173916865,0.9593714313714828,-0.15691100097586175,3.526570249393354,17.469529605916637,19.887396202995102
1760958260.2057278,-1.416930351589365,-0.05251699208167979,0.9607229505794117,-0.16286310470826404,3.405738489681541,17.244486568653503,20.21274608431781
1760958260.2156317,-1.263332126272202,-0.056732893957396606,0.961854865121762,-0.17030041914825553,3.2994479234255687,16.810117281061334,20.632598958274194
1760958260.225667,-1.113920637415134,-0.058694891388878435,0.9625685817340767,-0.17845123692608406,3.1707611896788865,16.281209019508076,21.044384631323798
1760958260.2357657,-0.9652617794011275,-0.058040139089533364,0.9626988093247066,-0.18644984530338693,2.9959160223742205,15.758954777973717,21.363425133981767
1760958260.2454898,-0.8140102152941808,-0.05444088874320521,0.9621487500683976,-0.193459844031884,2.76467140759822,15.323461078416694,21.53238648402656
1760958260.2555094,-0.656787137802184,-0.047690120826390674,0.9609127400263074,-0.19878946843538345,2.4786871982929255,15.029941857056281,21.526287833208325
1760958260.2657435,-0.4901607593995778,-0.03776589349451293,0.959076495033933,-0.20198034278960483,2.1484634389218975,14.908565764530433,21.35279283316007
1760958260.275556,-0.3107310270021158,-0.024866055791486708,0.9567943636645215,-0.20285847744623,1.78954405580641,14.967463505874724,21.048179922030275
1760958260.2856352,-0.11531352706491359,-0.00941781891126996,0.9542524828640743,-0.20154391044955614,1.4187326883039642,15.1980918512095,20.66995017625237
1760958260.2961228,0.09879049340894941,0.007930754699401944,0.9516307967531106,-0.1984206666833312,1.0509677003777744,15.581945601327437,20.287381115003253
1760958260.3056314,0.3334697183340577,0.026336502817994132,0.949074424062552,-0.19407220099150466,0.6972999353384688,16.097479372644038,19.97144108779767
1760958260.3159275,0.5894811063101649,0.04480977024603062,0.9466788922580287,-0.18919078940314737,0.36416575270315693,16.72608367803779,19.785368054509735
1760958260.3258262,0.8662064155862438,0.0622910147133671,0.9444888119868301,-0.1844731331092028,0.05389123212702069,17.45610771325208,19.7769429605172
1760958260.3356042,1.1615578298219107,0.0777511954460285,0.9425088167065339,-0.18051822921996616,-0.23386742360762325,18.284243385218335,19.973117338649374
1760958260.3456392,1.4720695244827984,0.09029820152533179,0.9407277387865648,-0.1777453121730478,-0.5002165262966854,19.214036782337825,20.3772572032154
1760958260.3557765,1.793158860927447,0.09926351755619056,0.9391570133465686,-0.1763469985428382,-0.7452079520826033,20.251796276180542,20.968906148087473
1760958260.3656309,2.1194935166285664,0.10424834822716757,0.9378795726391329,-0.17628561386013927,-0.9666516067712023,21.400624799708886,21.70569935777215
1760958260.37562,2.445383185586334,0.10512533202875993,0.9370992768498181,-0.17733154866817663,-1.1599655407070766,22.65363206640038,22.526906848071015
1760958260.3859973,2.7651320109857505,0.10201024126571075,0.9371782399203511,-0.1791340639461339,-1.319237473470038,23.987550144634334,23.358064142281556
1760958260.3955529,3.073323772339379,0.09522568978057556,0.9386515615575878,-0.1813086080491435,-1.4393652882150432,25.35800634461551,24.116247631524978
1760958260.4056437,3.3650423355261805,0.08527289700320814,0.942213271230683,-0.18352082986366988,-1.5188391828777286,26.697610594651785,24.71569643257754
1760958260.4157417,3.6360430157922945,0.07281551126621648,0.9486704463371127,-0.18554667087050067,-1.5625296191376044,27.917752697089018,25.073566234361415
1760958260.4258444,3.8828890991384495,0.05867035512639462,0.9588634311725072,-0.18729160901799846,-1.5838332636735621,28.91455452136964,25.11557143413008
1760958260.435681,4.103059835604273,0.043796456363668426,0.973550756493294,-0.18876139728231936,-1.6057023500719079,29.57883803642862,24.781173046833352
1760958260.4456797,4.295026632218967,0.029273046382209632,0.9932617041650641,-0.18999002727892553,-1.660364363373906,29.809358036701365,24.027882229296612
1760958260.4555564,4.45828399800774,0.016256696575822013,1.0181305148142041,-0.19094357428772832,-1.787835044098864,29.52799293803786,22.834218437079116
1760958260.4657946,4.5933130457674105,0.00590913137995619,1.0477418813976955,-0.19142591313253782,-2.03356749977315,28.69512704140435,21.200897254044804
1760958260.4755783,4.7014538543883075,-0.0007058286200608774,1.0810293561574555,-0.19101197276314094,-2.4457112775191168,27.323118930718863,19.149940561354015
1760958260.4859066,4.784674111959037,-0.0027458892865231976,1.1162673471216136,-0.18902808992562736,-3.0724480780968557,25.485581482244953,16.721616138509585
1760958260.4960253,4.845243331709374,0.0002865315773885538,1.1511805337631678,-0.18459020189015837,-3.9597464693753643,23.320284232291414,13.969397915302853
1760958260.5056837,4.885345243545551,0.008446331455108223,1.1831675313156302,-0.17670067916120566,-5.14969876846126,21.023938208246253,10.953423615011047
1760958260.5156784,4.906676362503324,0.0212940163323721,1.209608237638079,-0.16439425479998687,-6.679416313213164,18.838026776470144,7.733158871594397
1760958260.5257676,4.910083037478963,0.03790295391589406,1.2282042702459082,-0.14691416863772347,-8.580272953884707,17.026204630287552,4.360145961791895
1760958260.5356905,4.895284036826522,0.0569274036455159,1.2372932378428687,-0.12389226673530133,-10.877114241734265,15.845427404763896,0.8718208406860797
1760958260.5459566,4.860712893790003,0.07672112248961617,1.2360819075446858,-0.09550091744893738,-13.586951203021872,15.514499162949225,-2.7126121490955994
1760958260.555604,4.803496139316605,0.09548650320771859,1.2247600396394371,-0.0625414641542311,-16.716712116087894,16.184623045890927,-6.39340829113579
1760958260.5658813,4.719565616027369,0.11143163540629415,1.2044808129599238,-0.026438294397015217,-20.25986582560032,17.916460342787826,-10.188096072818025
1760958260.5758898,4.603892401735031,0.12291969948859349,1.1772168994945165,0.010877002695348399,-24.1920998205125,20.667159496514753,-14.125817898479516
1760958260.585861,4.4508288026897045,0.12860672753803323,1.1455175484119533,0.04718297452030694,-28.466606899937204,24.289149295403384,-18.238665673307494
1760958260.5957334,4.2545477874498125,0.1275703767657769,1.1122012817345108,0.08025309905754452,-33.00978143799296,28.540671750266366,-22.550985907628064
1760958260.6055927,4.009567601261409,0.11942813604428251,1.08002292038348,0.10815449343132731,-37.718208481231294,33.106478379797544,-27.06803813423868
1760958260.6156383,3.711338638650004,0.10443115237594103,1.0513546325146697,0.12950037804956074,-42.4577676838175,37.62606198029259,-31.765647559091132
1760958260.6256485,3.356851729402175,0.08350877361455297,1.027920246294847,0.1436053002209932,-47.06548028648105,41.726243809232464,-36.58254204765634
1760958260.635955,2.945208052758166,0.058237834328123704,1.0106191942706875,0.1505145790711155,-51.35441352466167,45.054744545044905,-41.41684720214444
1760958260.6457205,2.478078415783773,0.030722009364695345,0.9994674477819033,0.15090903481638868,-55.12159897626349,47.31144087305417,-46.127729812077945
1760958260.6555712,1.959978984339644,0.0033850057187671764,0.9936662450090733,0.14591447501197383,-58.158627229908156,48.274373757786634,-50.542510566990686
1760958260.6655796,1.3983030191619288,-0.02130150129956752,0.9917891233038586,0.1368645841626721,-60.26438643593205,47.81825534588681,-54.46882521766966
1760958260.6756372,0.8030714985328216,-0.041124134178646514,0.9920588581059113,0.12507258479367728,-61.259257506603895,45.92408785508235,-57.71070064319763
1760958260.6858358,0.18639632343358045,-0.05443265804181438,0.9926699277321079,0.11166223007881633,-60.99990595011557,42.67931570882654,-60.0868380096043
1760958260.6957533,-0.43831459516890225,-0.06040252842188877,0.9920994832099296,0.09749229463123514,-59.39362268746491,38.26854302892069,-61.44907152647159
1760958260.7058773,-1.057343357275536,-0.059206863219533945,0.9893458366421979,0.08318118496042763,-56.41097845353439,32.955347453858884,-61.698936417113906
1760958260.715753,-1.6577372918402975,-0.05204929039925334,0.9840458949166911,0.06920641440201225,-52.09537868738076,27.056301273289222,-60.800479293490454
1760958260.725718,-2.2283469298603893,-0.041027318430310586,0.9764518817887883,0.05602958968002553,-46.568006648366904,20.909086138785703,-58.787805819644696
1760958260.735885,-2.7606935502375554,-0.028831909714747212,0.9672831555748509,0.0441914694516528,-40.02675419475775,14.837518729546034,-55.76634482220285
1760958260.7459085,-3.2495485880536608,-0.018330217657316832,0.957499371587193,0.034336326791764946,-32.73817548594674,9.117227000906507,-51.90740652271778
1760958260.7557733,-3.693145659549698,-0.012111694325821922,0.9480595815420583,0.02715401917759312,-25.02227578828812,3.946371874564781,-47.43632452557496
1760958260.7656598,-4.093003785548009,-0.012092920540009156,0.9397326753970302,0.023259493200903408,-17.230977450612933,-0.5741264554986619,-42.61525759377774
1760958260.7756813,-4.453407515267417,-0.01926493317972172,0.9330034470494508,0.023050822983823507,-9.72223391079956,-4.44720413380029,-37.72248207223049
1760958260.785595,-4.780649983174307,-0.03362810806819723,0.9280805781770189,0.0265921999190851,-2.8327508428433896,-7.771188085549322,-33.030567319726465
1760958260.7955797,-5.082181666276143,-0.05430856807529482,0.9249758459380716,0.03355870760651585,3.1472338886243523,-10.716738399949628,-28.78601838390319
1760958260.8059344,-5.365810251244846,-0.07980771020812465,0.9236061556787226,0.04326052729359737,7.993939762814352,-13.492322841670212,-25.19270168665244
1760958260.8157718,-5.639065927245329,-0.10831511590874583,0.9238764763785317,0.054741841270359096,11.562607838771068,-16.30362813653341,-22.400722109327315
1760958260.8255978,-5.9087932601851,-0.13801525592288508,0.9257229657768798,0.0669309001659412,13.791756396744422,-19.313650513063042,-20.501576328853357
1760958260.8357265,-6.180974286185052,-0.16733429101206956,0.9291163255919732,0.0788080623287832,14.699531133124749,-22.610207404847834,-19.529518217967023
1760958260.8456707,-6.46074420294423,-0.19509631039282668,0.9340356019883194,0.08955901268191824,14.373571908574455,-26.186254940252905,-19.46824469120066
1760958260.8557,-6.75253690414936,-0.2205793348943684,0.9404228377737134,0.09868650793516022,12.956422120158877,-29.936036802487507,-20.26135292481036
1760958260.8656018,-7.060288765023573,-0.24347602542010982,0.9481259223796308,0.1060615941273974,10.62867010907503,-33.667296336171496,-21.82462480131625
1760958260.8757675,-7.387631049110822,-0.26377505122315265,0.9568357348688654,0.1119047179409113,7.591840564159502,-37.12715242960671,-24.058107185057192
1760958260.885564,-7.738013074590927,-0.28159068956152095,0.9660261003003243,0.11670045789013676,4.0527140583072985,-40.03724459780279,-26.85618099512957
1760958260.8956134,-8.114718993469484,-0.29698035145923857,0.9749114006098728,0.12106433321911186,0.2103756783391641,-42.13265034237766,-30.114319459539896
1760958260.905548,-8.520767150501836,-0.3097968587280795,0.9824431250747815,0.1255902497094994,-3.753079001196342,-43.19891535340367,-33.73195071427538
1760958260.9158866,-8.95870644155886,-0.3196164572788575,0.9873653151549086,0.13070819875966214,-7.677639258890267,-43.10220539557057,-37.61161446375788
1760958260.925666,-9.430342342864718,-0.325762515982963,0.9883364435454143,0.13657391460592624,-11.426150414279787,-41.808859068549296,-41.65524722124946
1760958260.935608,-9.93643303159292,-0.3274173655008205,0.9841077383793896,0.14300022211295052,-14.881095962882808,-39.39221406067366,-45.75882586407677
1760958260.945773,-10.47639526945499,-0.32379349217818837,0.9737322771969591,0.14943196286531754,-17.93827734139652,-36.02626775758543,-49.80677096069734
1760958260.955611,-11.048055744571089,-0.3143269599731075,0.9567671538934149,0.1549679645751983,-20.498925930356258,-31.96738108946751,-53.6675643339273
1760958260.9656003,-11.647480848461948,-0.29885839634441524,0.933424432732397,0.15844043756872694,-22.462381122499306,-27.526755630491625,-57.192020252832044
1760958260.975931,-12.268916702976753,-0.27777275496085585,0.9046311750452902,0.15856343300967257,-23.721736727214743,-23.03766428568482,-60.215499779436996
1760958260.9855273,-12.904867530440788,-0.25207269834985474,0.8719784798003412,0.15414991954910334,-24.164534437003407,-18.822120670002462,-62.56493501390945
1760958260.9955065,-13.546329831066302,-0.2233638676015979,0.8375678887432788,0.14437410284520868,-23.67962531207896,-15.161541915856638,-64.07074870207738
1760958261.0056047,-14.183182303453433,-0.19374058187088303,0.8037863116985037,0.12903180573930698,-22.169974179448296,-12.274933947702221,-64.58271234091083
1760958261.0155883,-14.804711312592003,-0.16558042809032536,0.7730493780560885,0.10873791440955836,-19.56981585881922,-10.306451490584593,-63.98777775899116
1760958261.025595,-15.400233842661395,-0.1412793559083532,0.7475515722333531,0.08500289702350176,-15.86345738213638,-9.322266444963036,-62.227260949579374
1760958261.0355868,-15.959766700925279,-0.12297385628625324,0.7290552406189029,0.060150133874093875,-11.102319525148337,-9.314975969493608,-59.3105890094179
1760958261.0455694,-16.474681991405806,-0.11229570356348952,0.7187399581997285,0.03706640547596034,-5.416668917122566,-10.212740779044118,-55.32310450335657
1760958261.0555258,-16.938283845450087,-0.11018985318881155,0.7171202175058592,0.018812899780211174,0.9810168711471698,-11.89024344885985,-50.4260891525045
1760958261.0655696,-17.346241789273037,-0.11680876797994756,0.7240279862325708,0.008158210228833113,7.803058993181854,-14.179329574989534,-44.848161332605216
1760958261.0757554,-17.69682600833975,-0.13148697961153616,0.7386499994529632,0.0071199639712287,14.70449572836084,-16.87843339915437,-38.86841886185891
1760958261.0857139,-17.990911702924958,-0.15279782599009786,0.7596061245572108,0.01660714983378896,21.31067718797342,-19.761072089630943,-32.792967408729176
1760958261.0957499,-18.231751026600204,-0.17869210613969172,0.7850536465232472,0.03623541018619188,27.25149608291745,-22.58445394533284,-26.927542134264876
1760958261.1057196,-18.424544084911215,-0.20671071258548568,0.8128045591518164,0.06434847416696851,32.19778205407904,-25.099475937986274,-21.549534999259027
1760958261.1156585,-18.57586637180807,-0.234251756762704,0.8404504269908887,0.09823419015511577,35.89473059113322,-27.063145712655505,-16.882764845194583
1760958261.1255708,-18.693022956655785,-0.25886139241651174,0.8654998217837806,0.1344863743507543,38.1875842684,-28.253859947119352,-13.077834352182029
1760958261.13556,-18.783398515147795,-0.27850996842922476,0.885540928347401,0.16944193694005527,39.03613680802408,-28.4891019750723,-10.200053485433966
1760958261.1459062,-18.853860303799287,-0.29181511238053837,0.8984407536950788,0.19961898205900427,38.51668173116056,-27.644106375175088,-8.225851006745259
1760958261.155638,-18.910254502577022,-0.29818306894661917,0.9025800794690217,0.22209366186761362,36.812169408561665,-25.669102134001346,-7.04755089466162
1760958261.1656084,-18.957020347250207,-0.2978553057071451,0.8971038010642177,0.23477568186599007,34.19292833052128,-22.60220730014961,-6.485544931558137
1760958261.1760325,-18.99693383807707,-0.2918620333218686,0.8821492526756891,0.2365667445570073,30.991006702779107,-18.57514676771233,-6.306343427832554
1760958261.1857307,-19.030984931268325,-0.28189493444520997,0.8590087001741501,0.22740619042910404,27.571081276225932,-13.809720971409012,-6.24472297764316
1760958261.1956806,-19.05838923303282,-0.2701181496129727,0.8301857921191822,0.20822017764658876,24.30032850585709,-8.604203757174107,-6.028131687178501
1760958261.2058706,-19.07673399511992,-0.25893776560801895,0.7993136610134693,0.18079428568324424,21.51906356150995,-3.3103478746604367,-5.401557001611502
1760958261.2157269,-19.082253257663282,-0.25074608176524593,0.770913439118012,0.14758629035081608,19.513607802330785,1.6968459687572808,-4.1511248329838
1760958261.2256117,-19.070216336795326,-0.2476538661532158,0.749990339371988,0.11149100124862729,18.492839610083557,6.053246881886921,-2.124739894955815
1760958261.2358086,-19.035399726217193,-0.2512264803649702,0.7414912213961827,0.07556852365417695,18.57008734561675,9.439554865249324,0.7518934856957241
1760958261.2458174,-18.972597485813484,-0.26224602867403646,0.7496765419492321,0.04275389141289215,19.752153963600147,11.611008097469245,4.465462322636061
1760958261.2556882,-18.877112486731345,-0.28052731902714234,0.7774818351857602,0.015576752469064934,21.937075812312514,12.419340912936248,8.912845705741557
1760958261.265687,-18.74516659017789,-0.30481890889748875,0.8259543971933495,-0.004072891503626483,24.921628610364554,11.82462855959765,13.907493021714645
1760958261.2756047,-18.57417772832683,-0.3328205843870868,0.893850923453563,-0.015100079987257582,28.41865619952497,9.896096870542904,19.194610699424157
1760958261.2857194,-18.362875081719345,-0.3613413845362404,0.9774748365430294,-0.017262705291396844,32.08316381300399,6.802450259388454,24.474384000029488
1760958261.2956212,-18.11125211842967,-0.3866036549206935,1.0708175995605973,-0.011131847675280925,35.54500963185465,2.793496960552467,29.43132446414664
1760958261.305681,-17.820381752251613,-0.4046693707531187,1.1660416126615711,0.0020270714887012375,38.44518589124014,-1.824348359320806,33.7667624009908
1760958261.315637,-17.492133703362367,-0.41193399379775847,1.2542982598297467,0.020417783222174152,40.472278442594664,-6.715716885580968,37.230753609344376
1760958261.3255825,-17.12884360571935,-0.40561400671944775,1.326812168236448,0.04187682987387277,41.39572695233428,-11.544034349190285,39.649490745197724
1760958261.3357763,-16.732991156085447,-0.3841550587978858,1.3760881192839063,0.06400145725670331,41.09272993515857,-15.996478684785325,40.944783197439655
1760958261.345787,-16.306950461265796,-0.3475053174265926,1.397030646581334,0.08424042674141781,39.565757729392494,-19.80382432515234,41.14314252859655
1760958261.355725,-15.852873150976263,-0.2972237978306031,1.3877436784496413,0.09999088995430681,36.94768617670899,-22.75394904077311,40.373216990974356
1760958261.3656301,-15.37274615483369,-0.23641531626399628,1.349827664132051,0.10876362219972373,33.49198765581751,-24.69929681865089,38.85155234187604
1760958261.3756473,-14.868628558368728,-0.16949364672707173,1.2881059758250477,0.10845118150790878,29.54672895998541,-25.56004760568765,36.85787948645393
1760958261.3859994,-14.343021340445468,-0.1017759594280607,1.2098462193725037,0.09767203361892407,25.51352512696956,-25.32542618567914,34.702407699744214
1760958261.3956683,-13.799275243098505,-0.03892289909506918,1.123648322337412,0.07610307741875871,21.795774094374657,-24.054925705876034,32.688877206168485
1760958261.4057417,-13.24191578872604,0.013726756450453665,1.038224298977809,0.0446857976365157,18.743621581967105,-21.87931153864832,31.078096160559912
1760958261.4156797,-12.67677518829856,0.051831376315670745,0.9612895151241061,0.005613562552586279,16.605052070413922,-18.999019919079434,30.056976778847947
1760958261.4258127,-12.110868906772257,0.07260737724849686,0.8987318087178927,-0.03792849113347144,15.49229216896549,-15.676295119364076,29.717487131843853
1760958261.4357529,-11.552025433605527,0.07516320237961564,0.8541442667013757,-0.08222314999390017,15.370038925155923,-12.218048059843492,30.048503442267666
1760958261.4457438,-11.008345759235995,0.060545236108858466,0.8287269948570479,-0.12357602082275244,16.06755582770731,-8.948874745271015,30.941548952957607
1760958261.4557543,-10.48760611908274,0.0315029607731322,0.82150466371552,-0.15884236378331193,17.311809483461058,-6.176886922565814,32.209242347511086
1760958261.4656367,-9.996710127559064,-0.007961686143022902,0.829775895417107,-0.1858214061527558,18.77493370797541,-4.157665330406144,33.613403069997574
1760958261.4759707,-9.541255785825003,-0.053164722485297126,0.8496996637411389,-0.20345776557370665,20.127180152248823,-3.0628676824636196,34.89854946232541
1760958261.4857795,-9.125233858928718,-0.09932931900514752,0.8769241773500073,-0.21184054696184643,21.086286208521983,-2.959537453158453,35.82614668583499
1760958261.4958441,-8.750836996990694,-0.14210666672457542,0.9071728788793836,-0.2120320640493002,21.455618916997246,-3.804165141780533,36.20531636697704
1760958261.505958,-8.418343575282613,-0.17796748386486022,0.9367195269783433,-0.20578238981819838,21.14606134289662,-5.452601682558655,35.91653889431311
1760958261.5158179,-8.126047619094873,-0.20443470620843596,0.9627080285104437,-0.19519448443203566,20.179778399744215,-7.683779392426873,34.92591269697123
1760958261.5256062,-7.870229259495914,-0.22015752800231522,0.9833010893392297,-0.18240144071235276,18.677111944370385,-10.232633565355512,33.28865927140589
1760958261.53558,-7.645186424055844,-0.22484931720603588,0.9976701989116533,-0.1693043528700461,16.830384958596248,-12.826228457690103,31.14173612288493
1760958261.5455446,-7.443365869945927,-0.21912516370881982,1.005860005267735,-0.15739905696932652,14.869968939671157,-15.217115817832202,28.686600953594752
1760958261.5555854,-7.255633421776306,-0.20427989427442572,1.0085700280808072,-0.1476983853267726,13.028448545439824,-17.209191577196545,26.164286399634967
1760958261.5656006,-7.0717090331037005,-0.18204651992387177,1.0069001165393443,-0.1407393111252279,11.508220086375,-18.673248531571026,23.825887502954252
1760958261.5755985,-6.880766179216136,-0.15436946583104225,1.0021049344061768,-0.13665327105555056,10.456647179261173,-19.551487389135524,21.90219446473646
1760958261.5858386,-6.672162922940245,-0.1232166738470224,0.9953943490487438,-0.1352724229598726,9.95125928146149,-19.852022540588354,20.57636905429875
1760958261.5958524,-6.436240353310554,-0.09044141661117018,0.9878009699327464,-0.1362443374590827,9.995721579027435,-19.63565812133282,19.963160086514687
1760958261.6055958,-6.165100864685048,-0.057692577046078136,0.980118175231509,-0.13913255022257429,10.525731703467445,-18.997846406480846,20.097204409701458
1760958261.6156194,-5.8532720088607615,-0.026365241143115392,0.9728973013393467,-0.14348906088617142,11.422829461132363,-18.04885742424244,20.931626065176324
1760958261.6256895,-5.498175673276156,0.0024175956242104574,0.9664842191322998,-0.14889449782530914,12.533411268042968,-16.894944433669057,22.346660144912477
1760958261.6358335,-5.100353498667536,0.027799561389126953,0.9610734822089863,-0.15496974647974165,13.68998182110261,-15.622824358002152,24.16663738964151
1760958261.6456325,-4.663437046267651,0.049167811900004806,0.9567612550835352,-0.16136810191552087,14.731786861009017,-14.289173912801417,26.18260852065627
1760958261.6555665,-4.19388376288662,0.06611872213806061,0.9535846283957373,-0.16775931904987512,15.522397179693927,-12.916095055427434,28.17733519090288
1760958261.6656177,-3.700520808272881,0.07841932677896585,0.9515427573951865,-0.17381660614626074,15.96248473594453,-11.492681330298806,29.94936568204004
1760958261.6756861,-3.193947572237663,0.08597142310420135,0.950602135166356,-0.1792149037483627,15.996844306233369,-9.982026234630013,31.33335933167106
1760958261.6855812,-2.6858471869742946,0.08878447444963687,0.9506922943432972,-0.1836441526564836,15.615549081022237,-8.332355088625176,32.21458276012029
1760958261.6957421,-2.1882522751463815,0.0869616260739402,0.9516989766513059,-0.18683586400033675,14.8498689146331,-6.490480533996195,32.536434505306595
1760958261.7058153,-1.7128049391247848,0.08070022115443908,0.9534605026596994,-0.18859691232634712,13.764130556294932,-4.415506511359162,32.30082828693459
1760958261.71559,-1.2700478871610361,0.07030485685798638,0.9557711415200554,-0.18884237959254876,12.445010571212096,-2.090677418462053,31.562144664970138
1760958261.7256203,-0.8687826411284942,0.05620815388528927,0.9583931870821433,-0.1876195387729714,10.989823925573363,0.4684762479103634,30.4161377908384
1760958261.7356424,-0.5155304234076725,0.03899279537249875,0.9610768964105753,-0.18511676043021946,9.495239846947563,3.2110010174251706,28.985603670009475
1760958261.745845,-0.21412945559334717,0.0194082557688642,0.9635846574514288,-0.18165341079923214,8.047578295456054,6.052910276336648,27.404772724824987
1760958261.755565,0.034502571234181496,-0.0016235914760393062,0.9657137607694862,-0.1776495436666952,6.715476786842104,8.88472092651189,25.80430030767684
1760958261.7656925,0.23242057011690778,-0.023018949765480745,0.9673117566711782,-0.1735775970820774,5.545324091121464,11.58295255729251,24.298432165227567
1760958261.7756572,0.3845092159950169,-0.0435631439339577,0.9682798367343884,-0.16990236935245373,4.559492392914211,14.023863532713612,22.97548584943917
1760958261.7857156,0.4981468491484735,-0.06196636416138814,0.9685631627542505,-0.1670195127467181,3.7571239903205367,16.097480528763803,21.892297519093923
1760958261.7958522,0.5826886657116161,-0.07694664141491107,0.968131872093142,-0.16520496039279525,3.1170768343889845,17.720059531837958,21.07280147983847
1760958261.8058374,0.6487943463688572,-0.08733824278170575,0.9669603549646779,-0.16458634871629943,2.6025794307380394,18.843439164212604,20.510469021084354
1760958261.8155856,0.7076410152269638,-0.09221704168579198,0.9650134057690726,-0.16514250326610996,2.167116482115077,19.46023090373484,20.173949964660146
1760958261.8255746,0.7700797430223377,-0.09102735009253686,0.9622460804704513,-0.16673023860517325,1.7610046626582363,19.604338206037013,20.014956492639815
1760958261.8355758,0.8458099316837673,-0.08368825441851815,0.9586203552450959,-0.16913116653578777,1.338031034434677,19.346828368020525,19.97722851747557
1760958261.845759,0.9426574236362208,-0.07065319718253758,0.9541366122871402,-0.1721063110216884,0.8614672555132299,18.78766021285391,20.005339994276067
