timestamp,angle,linear_acceleration_x,linear_acceleration_y,linear_acceleration_z,angular_velocity_x,angular_velocity_y,angular_velocity_z
1760515171.3312848,-5.408683154279162,-0.12781307064524133,0.91483236306213,-0.44269201158958116,5.501505524268759,0.7681963827679187,5.949423865835272
1760515171.3412893,-5.460332207281934,-0.12675617783145166,0.9122063186335007,-0.4375339742981197,4.790101405435494,1.0047346758966897,5.494191005848288
1760515171.3512886,-5.508321240777048,-0.12416429269005626,0.9093747371218736,-0.4315785399506229,4.039047825710767,1.216166022613311,5.140790780186668
1760515171.3613253,-5.548442070295299,-0.12023858482825422,0.9063826808536928,-0.42534300109686024,3.276436461466388,1.3834850537587426,4.901281262097312
1760515171.3714721,-5.577354055350603,-0.1152808760207808,0.9033084302488981,-0.4193914676897098,2.5314613315362315,1.4887927348722614,4.779565663477181
1760515171.381287,-5.592847773979821,-0.1096876740493677,0.900270589455038,-0.41428038603437645,1.8328668673082489,1.5189544197205973,4.770686404244622
1760515171.3912892,-5.594062437442999,-0.10393862258982217,0.8974237502802407,-0.41049375904257096,1.207481489901573,1.4692823836183775,4.8606334954773915
1760515171.4012818,-5.5816397799892865,-0.09857769050926028,0.894942699113311,-0.4083778273816537,0.678887853662399,1.3466520242669633,5.026800172388184
1760515171.4112825,-5.557795901500263,-0.09418605126343527,0.8929984294016841,-0.408087720949458,0.26628389674378494,1.1714330089548084,5.2392029392318955
1760515171.4213145,-5.526291826948852,-0.09134580377926077,0.8917309347214875,-0.40955767146408145,-0.01641122472654721,0.9776626827076345,5.462517769153304
1760515171.4312859,-5.4922841986186555,-0.09059411749453437,0.8912240816026081,-0.4125021164787366,-0.16117117834384356,0.8110402378483752,5.658872735409361
1760515171.441281,-5.4620414445879675,-0.0923686563946949,0.8914875597897658,-0.4164492968311005,-0.16619587190949478,0.7245909842921902,5.791196157328188
1760515171.451298,-5.442519460996736,-0.09694725864026764,0.8924505476922315,-0.42080338075430374,-0.03599795089449872,0.7722228636576544,5.826779629742206
1760515171.4613318,-5.440805091369768,-0.10438755414892106,0.8939708904871168,-0.42492652995110064,0.21870090890613744,1.0008164356805445,5.740615204478982
1760515171.4714074,-5.4634555460612715,-0.11447506949715042,0.8958612050040875,-0.42822912685858133,0.581196126373477,1.4418706494510376,5.5180359989966075
1760515171.4813263,-5.515785072473936,-0.12669037650917875,0.8979291691286346,-0.4302548371495188,1.029078096433339,2.103980588337006,5.156242838395571
1760515171.4912906,-5.601170624918742,-0.14020551489496166,0.9000245847284969,-0.43074720086817336,1.5344954676574967,2.967481401397233,4.664429320812373
1760515171.501317,-5.720459132306818,-0.15391677788540464,0.9020824087896605,-0.4296862639168192,2.0643545984856533,3.9824219554772347,4.0624007609957165
1760515171.5114152,-5.871557600342454,-0.16651630067625237,0.9041500102866291,-0.4272881545184086,2.580444754855527,5.070642550199193,3.377789907520824
1760515171.5213747,-6.049275931360376,-0.1766003958064938,0.9063887792893951,-0.4239675422031475,3.0395428057774394,6.132179356783129,2.6421775413719577
1760515171.5312922,-6.245474313727732,-0.18280870964091805,0.9090445816989654,-0.42027076180786194,3.393636340805464,7.055592823571619,1.8866043772771377
1760515171.5412855,-6.449544177565318,-0.18398463186760838,0.9123876375320954,-0.4167931742415579,3.590495018842319,7.731205426792259,1.1370902975263277
1760515171.5513418,-6.649224187191789,-0.17934353371016998,0.9166292499185689,-0.4140963035026966,3.5748850361957554,8.0656946799132,0.41084316082631617
1760515171.5612888,-6.831719015506105,-0.16863096027348987,0.9218293931540756,-0.41263863826116054,3.2907201575319305,7.996061305315373,-0.2861700187103754
1760515171.571308,-6.985046272453674,-0.15224773891915788,0.9278141849256473,-0.4127297056694482,2.684347010958273,7.500738184049803,-0.9597222019610868
1760515171.581309,-7.099485679115405,-0.13131419289814059,0.9341244763210553,-0.414510702525906,1.7089756539823981,6.605620517409303,-1.625555304557579
1760515171.5912962,-7.168950918186734,-0.10764440345177687,0.9400156165646475,-0.4179573256756923,0.33002939932779873,5.383200524086321,-2.3053538134938663
1760515171.6013052,-7.1920639333855325,-0.08360784852244718,0.9445234055383944,-0.42289360931951336,-1.4690355626808942,3.9438646239397337,-3.020924857894048
1760515171.6116474,-7.1727036878572745,-0.061871937939423444,0.9466008619278802,-0.42900296973909224,-3.681062033276318,2.419748341904376,-3.787502448607033
1760515171.6215749,-7.119842881084777,-0.04504365653995637,0.9453133780608504,-0.43582669117595685,-6.270448087708395,0.9432043317869665,-4.607448722863184
1760515171.631334,-7.04658465312232,-0.03525798429406137,0.9400583546821755,-0.4427495535532927,-9.170286920130868,-0.37640861355220545,-5.465768840915732
1760515171.6413054,-6.968461151105793,-0.033788066340345355,0.9307579639941189,-0.44898282387458177,-12.282523831740304,-1.4728186946171595,-6.328707957534184
1760515171.6512887,-6.901227717247097,-0.0407649105103777,0.9179720551017374,-0.453562221404201,-15.482229369631566,-2.3350885088240845,-7.14624129388817
1760515171.661346,-6.858527037991659,-0.05508060748733921,0.902897161932398,-0.4553803742815353,-18.626631488032086,-3.0087530871266286,-7.85856500034611
1760515171.6713278,-6.849853878652552,-0.07450928091838105,0.887247708238976,-0.4532682873248467,-21.568648350036337,-3.585097723275247,-8.405878621693464
1760515171.6815531,-6.87920233315844,-0.09603014630135365,0.8730419365607502,-0.4461285718363181,-24.17354753178096,-4.18063410168387,-8.739993859650248
1760515171.6914837,-6.944643921060437,-0.11629571102832914,0.8623310659871756,-0.43310757458578897,-26.336395609664983,-4.911139572741489,-8.83578792928859
1760515171.701319,-7.038907460024586,-0.13216298168943486,0.856916827808536,-0.4137780201720605,-27.997470112132824,-5.8658423804611335,-8.700375946170675
1760515171.7113166,-7.150849422155603,-0.14119493389042412,0.8581012666795854,-0.38829215603673944,-29.152909603267826,-7.087219688630306,-8.378151111356186
1760515171.7212954,-7.267547481444417,-0.14204320411537769,0.8665050519035233,-0.35746270418523923,-29.858527420527427,-8.560526677556329,-7.950489311592232
1760515171.7312894,-7.3766455831445485,-0.13464321265220863,0.8819796819610832,-0.32273878000791073,-30.225784456940332,-10.214951900083673,-7.5298177216458635
1760515171.7413065,-7.468542091757219,-0.12018665315342375,0.9036257826718237,-0.28606351665069996,-30.410231991323034,-11.93571602973518,-7.248728607095277
1760515171.7514699,-7.538048012717793,-0.10087644214142252,0.9299120442848667,-0.24962310710231858,-30.594047412781492,-13.58410843844085,-7.24567966144018
1760515171.761323,-7.585247235911592,-0.07951138330540491,0.9588690373065802,-0.21552035608749137,-30.965314481931326,-15.020951266880699,-7.649390789801707
1760515171.7713253,-7.6154511249409955,-0.05898575270447142,0.9883183508684809,-0.18542821702581047,-31.69723587704716,-16.128601374725307,-8.564220654368217
1760515171.781314,-7.638320946346867,-0.04180972479352516,1.0160980882503907,-0.1602940580132511,-32.930418973834975,-16.82730333861744,-10.058561789761365
1760515171.7914302,-7.666385996354259,-0.029749734965608985,1.0402579234523086,-0.14016471055860655,-34.76076044379237,-17.083202711185837,-12.157701241421012
1760515171.8012984,-7.713274904331993,-0.023656050156452384,1.0592108795925432,-0.1241820966440908,-37.234365096449416,-16.907243932080497,-14.841805609673964
1760515171.811342,-7.791988784153786,-0.023499275955634443,1.0718383649695535,-0.11076357376439061,-40.349539804435864,-16.346128946971227,-18.04887507751858
1760515171.8213093,-7.913487039440777,-0.0285898144799161,1.0775496448423216,-0.09793881312554806,-44.064467257055306,-15.46813389639256,-21.68180537137945
1760515171.831304,-8.08575455133217,-0.03791423068850552,1.0762988102335287,-0.08377696805285402,-48.308033371581494,-14.347548933874618,-25.618207602465958
1760515171.8413012,-8.313403847022075,-0.05049841188250877,1.0685629758238868,-0.06681485273144146,-52.990789677067895,-13.051590682851156,-29.721450814115688
1760515171.8512983,-8.597764480669781,-0.0657037511571783,1.0552854794561128,-0.04639448821695755,-58.01334081976267,-11.632783394173316,-33.85151852076094
1760515171.8615584,-8.93733977422884,-0.08337897258486346,1.0377864071927863,-0.022835283225788372,-63.27045525182976,-10.128188713875865,-37.87459913794312
1760515171.8715258,-9.328473546288786,-0.1038241585801552,1.0176399697187777,0.0026018980000649355,-68.65057379033692,-8.564854332584204,-41.670711373209905
1760515171.881401,-9.766066256190534,-0.1275712489955728,0.9965182008222393,0.02795826628660915,-74.03173067644575,-6.968928688125121,-45.139017374076225
1760515171.8913033,-10.24420765357744,-0.15503913828531782,0.9760074651427777,0.05097950709174756,-79.2759013755677,-5.374580264929112,-48.20078685489742
1760515171.9013379,-10.756644495571887,-0.1861694050501996,0.9574174234944985,0.06958663639267725,-84.22431585093659,-3.8286960107675134,-50.80023750293457
1760515171.9113622,-11.297065462508145,-0.2201740489677683,0.9416161310928417,0.08230326433520024,-88.69629619178542,-2.388709854958507,-52.903676493585564
1760515171.9213536,-11.85924398059774,-0.25550815088023676,0.9289318857276341,0.08853653007952218,-92.49368657766665,-1.1137000935526271,-54.49748622094281
1760515171.9315243,-12.437113682284032,-0.2901058965575311,0.9191523977623787,0.08865270186472977,-95.41194754225796,-0.05202774504798839,-55.58547787979428
1760515171.941326,-13.02484862948112,-0.32181022197557496,0.9116224970135458,0.08385414130650437,-97.2575609860253,0.769394754920538,-56.18595005050634
1760515171.9513166,-13.616987085255147,-0.3488419922205513,0.9054081947315265,0.07592150960185168,-97.8697296340503,1.3496633290971343,-56.32856541282102
1760515171.9613416,-14.208595448812613,-0.3701461770929818,0.8994792309985086,0.06690428017319915,-97.14277147157472,1.710253866539564,-56.05110117252068
1760515171.9713173,-14.79544012772358,-0.38552182581995514,0.8928704240945313,0.058822327251072684,-95.04455809342161,1.8843247678075858,-55.39626534828051
1760515171.9814138,-15.37412693905591,-0.3955388007756022,0.8848023395064252,0.05340941468209588,-91.6263722670553,1.9024787721025935,-54.408908495002464
1760515171.9913964,-15.942172883160435,-0.4013090638425594,0.8747597739764348,0.051912606769951866,-87.02105118303287,1.7794465639951615,-53.133909177503604
1760515172.0013711,-16.497985326492845,-0.40419681325533746,0.8625357935536928,0.05495981549464127,-81.42903457746088,1.5055622549430754,-51.61479253391222
1760515172.0113099,-17.040737535050337,-0.4055410239292905,0.8482498839979977,0.06250427648481045,-75.09498755985128,1.045302468655049,-49.89294687125318
1760515172.0213244,-17.57014824630542,-0.4064458522911397,0.8323445407421897,0.07384368421855708,-68.27978629948691,0.3432812283274132,-48.00726605663775
1760515172.0313232,-18.08619328169738,-0.4076716342644947,0.8155593225053563,0.08770172402166461,-61.23317050762134,-0.6635498940739013,-45.99411380874705
1760515172.0413253,-18.58879292310568,-0.40963155482918234,0.7988785424787033,0.10235817178198732,-54.17148773300371,-2.0299530901997316,-43.887561680157134
1760515172.0515199,-19.077525430822487,-0.41247191702521746,0.7834503158114025,0.11581854356711012,-47.26334171010386,-3.7858705710464045,-41.719842735067054
1760515172.061305,-19.55141314768608,-0.41619387558849164,0.7704795528932872,0.12601914404606068,-40.6241991673501,-5.922592798736921,-39.5218919885557
1760515172.0714033,-20.008814072388518,-0.420766144707252,0.7611024923147744,0.13106358454485825,-34.31947624675166,-8.384387715221061,-37.323746597148016
1760515172.0813308,-20.447432097658837,-0.42618448867107017,0.756253511586147,0.1294807108013768,-28.374505316487117,-11.067238357010844,-35.154525774216374
1760515172.0913212,-20.864439062433462,-0.43245471055413937,0.756536813123117,0.12048218505738915,-22.789086923423632,-13.824908267966666,-33.04177771000625
1760515172.1013331,-21.256687556944012,-0.43950604250715775,0.7621172262180981,0.10418398498190261,-17.55394710365613,-16.481223055925874,-31.010181845448034
1760515172.111562,-21.62098864989788,-0.44707118901453297,0.7726457316582755,0.08174519670810744,-12.666258226658892,-18.846592696061528,-29.07986963929651
1760515172.1213255,-21.954432043320825,-0.4545871450155368,0.787235741874009,0.05537521264092273,-8.14148685973528,-20.736518843350392,-27.264874003457603
1760515172.1313226,-22.25473168580107,-0.46117095669386643,0.8045047173803218,0.028170282342278908,-4.019332704324398,-21.989966975721,-25.5723214312486
1760515172.1413307,-22.520580434558017,-0.46570651556201537,0.8226907852213617,0.003763272334726932,-0.36248554467505906,-22.4857524363759,-24.002856768148348
1760515172.1513724,-22.751988924229355,-0.4670466372290369,0.8398438482226521,-0.014194139324896849,2.7517374847103544,-22.155296146659243,-22.552446053097846
1760515172.1613872,-22.950568062145347,-0.46429514256449794,0.8540743294274811,-0.022650720875395963,5.245366761249551,-20.990253109872487,-21.215245109758005
1760515172.1713412,-23.119698708056674,-0.45709348980777886,0.8638215165665871,-0.019755452511069884,7.056655762523777,-19.043786560368012,-19.986804647323726
1760515172.1813254,-23.264527025802977,-0.4458107728686205,0.8680840779151261,-0.005273796576270947,8.156460895849607,-16.42487243457302,-18.866655454497653
1760515172.1913395,-23.391740506371043,-0.43155105627409296,0.866551965305255,0.019330000249732693,8.560716557824184,-13.286045468925044,-17.859386289542197
1760515172.201329,-23.509120180713577,-0.4159600098012395,0.8596043351712557,0.051193850831024776,8.336366442048407,-9.806213558579413,-16.973709450122335
1760515172.2113163,-23.624916161785016,-0.400898389219317,0.8481845752986856,0.08664592894311939,7.599622960458047,-6.171092821662747,-16.219582904902328
1760515172.2213576,-23.74713397154324,-0.38809449617800057,0.8336022158969213,0.12188982574513399,6.5072269612691125,-2.5540785804934147,-15.603985540436328
1760515172.231309,-23.88283220612564,-0.3788712483307082,0.8173203660278799,0.15360266017393517,5.242752357231314,0.899986132958792,-15.126219083703136
1760515172.2413602,-24.037517861882705,-0.37399535236549003,0.8007709656568107,0.1793340057183941,4.000519889057225,4.086337006097288,-14.77360640327318
1760515172.2514105,-24.214695234105374,-0.37365157182180786,0.7852174647713058,0.19767372141180903,2.9694753411721617,6.946030520555058,-14.518280654077417
1760515172.2614067,-24.41559039911894,-0.3775175384371168,0.771668193692965,0.20821502420014845,2.318837111220503,9.465568812033627,-14.315530339908335
1760515172.2716079,-24.639045206234414,-0.3849026026389052,0.7608356528922464,0.21137103059785065,2.186733216810659,11.67082240263431,-14.103947040151109
1760515172.2813108,-24.881558990396318,-0.394913806283136,0.7531340009544275,0.20811349606810411,2.672554195563682,13.616359855270193,-13.807443083701608
1760515172.2913175,-25.13745610487064,-0.4066188069925587,0.748705504759575,0.19969795387832542,3.8333236977557434,15.371830541212082,-13.339071666350362
1760515172.301359,-25.399168581894983,-0.4191839124383952,0.7474653408806783,0.18742513792553694,5.68395168073087,17.007320281350022,-12.606482324731099
1760515172.311321,-25.65763355694079,-0.4319708855644443,0.7491542736508163,0.1724689631619261,8.200773550103989,18.57959699314094,-11.518757363180912
1760515172.321353,-25.90280322837621,-0.44457949294785365,0.7533915626646102,0.1557812533737681,11.327404791594768,20.12101526500489,-9.994250474029249
1760515172.331316,-26.12424994912267,-0.45682828326697456,0.7597244486446174,0.13806681091369466,14.98179588496024,21.632713932903872,-7.968830809417159
1760515172.3414955,-26.311827066345508,-0.46867524309144076,0.7676735095103594,0.11981124664344918,19.06350141397843,23.083573090330106,-5.403649243527929
1760515172.3514953,-26.45632323141508,-0.4800897483530339,0.7767752227557597,0.10133910911900058,23.460521430970598,24.415879311230565,-2.29133812476034
1760515172.3613193,-26.550030751927704,-0.4908969991300385,0.7866250613010541,0.08288103630452659,28.055518533789442,25.557520758653606,1.3404099098153888
1760515172.3714054,-26.587148935601693,-0.5006286153019639,0.7969248413540485,0.06463347800575277,32.731602211833284,26.439008028741608,5.428634785740351
1760515172.3814516,-26.563969623969687,-0.5084249084098483,0.8075342983385322,0.046800369301773226,37.37803293424699,27.012304710557522,9.878531787404441
1760515172.3913295,-26.478837414574578,-0.5130351953500756,0.8185190617180077,0.029612120948698473,41.896044401692826,27.267868755900803,14.570183112706237
1760515172.4013412,-26.33192389984087,-0.5129475680589689,0.8301789536294826,0.013322446467453458,46.2045628928521,27.246558808355836,19.36772513338536
1760515172.41134,-26.124889205032062,-0.506652931202628,0.8430370572516682,-0.001813457977717401,50.245060186531504,27.043933444619224,24.129682875154728
1760515172.421341,-25.860518634304587,-0.49301382617477657,0.8577752706379892,-0.015573876668605014,53.98428593589296,26.805595533733985,28.71904392648659
1760515172.4313405,-25.542415464074317,-0.4716701756287254,0.8751160966040773,-0.027809816664739983,57.41339841765875,26.71328631157985,33.01173772767004
1760515172.4413223,-25.174805217816633,-0.4433818708592648,0.8956679998616148,-0.038475183469753156,60.54227723859642,26.96242123391059,36.902526256998016
1760515172.451326,-24.762470153807218,-0.41019726936450174,0.9197650648122824,-0.0476325991766862,63.38866950546753,27.73296236123401,40.30783107505535
1760515172.4616106,-24.310797297703907,-0.37536094955193205,0.947335728480271,-0.05542562606351789,65.96317400871135,29.156984302722137,43.165558982966466
1760515172.4713397,-23.825900276696768,-0.34293584574015734,0.9778297118440193,-0.06202444922084473,68.25257783329062,31.28757232057039,45.43239943247743
1760515172.481683,-23.314768333129006,-0.3171931746755943,1.010219942948995,-0.06757115331321993,70.20527235373116,34.07429929799421,47.079356322524525
1760515172.4915168,-22.785400232024276,-0.30188590946261856,1.0430806103089099,-0.07215897620343589,71.72292333570559,37.35037897408418,48.0865697909238
1760515172.5019684,-22.246888714551567,-0.2995537791462662,1.0747255289192845,-0.07587010551608056,72.66193833500454,40.83579980428806,48.43882684384415
1760515172.5113482,-21.7094283391556,-0.31101292320393353,1.1033758199319548,-0.07887195551436031,72.84654531289523,44.15908220721786,48.12335761044059
1760515172.5213687,-21.184223690524917,-0.3351551869366602,1.1273198752113496,-0.08154003462262709,72.09277518671398,46.89726309962992,47.13123158860635
1760515172.5313559,-20.683274201071484,-0.3691111003647928,1.1450387352055766,-0.08454831690605906,70.23990688578856,48.62936967347074,45.46276001604426
1760515172.541442,-20.219008524346137,-0.4087358329875253,1.1552925223699404,-0.08886414219122607,67.18374118777402,48.99436213177813,43.13602231058022
1760515172.5513642,-19.80374330638911,-0.44930058696716774,1.157183400192704,-0.09561680055368481,62.90513780236198,47.74237448426598,40.19645615221536
1760515172.561354,-19.448955478294845,-0.4862373130977874,1.150214939329945,-0.10586509884856579,57.487949346403056,44.76933976155615,36.72482609429323
1760515172.5713584,-19.16438450563064,-0.5157870179441776,1.1343569146776094,-0.12033653666506565,51.12261532186888,40.12933328882214,32.84105395333085
1760515172.5813355,-18.95701676544012,-0.5354304155692184,1.1101086581136803,-0.13922180830602726,44.09452535239182,34.0244853072705,28.702344249369116
1760515172.5913556,-18.830043377026847,-0.5440326955320373,1.0785431177046871,-0.1620809191447079,36.75896199380072,26.777110049527376,24.495475225214268
1760515172.6013584,-18.78192229819672,-0.541708581266966,1.0413099994902801,-0.18787154733233213,29.506416844248278,18.791385149400533,20.424517482664868
1760515172.6113353,-18.805711255170067,-0.5294911224367916,1.000577202527431,-0.2150729140485176,22.72320662565355,10.51210692807733,16.696032108530634
1760515172.6213398,-18.888858311027935,-0.5089366388546732,0.9588956376439824,-0.24186537927996768,16.75270107893999,2.3862799359595126,13.503743997712357
1760515172.6313322,-19.01361888565422,-0.48179393231886664,0.918986791248772,-0.2663347785212513,11.862208259446417,-5.169311901129715,11.014063189708438
1760515172.6413333,-19.158189734265466,-0.4498105295674899,0.8834735449851948,-0.28668540970448486,8.219679321035947,-11.793661038840058,9.353242385199945
1760515172.6513543,-19.29851342580705,-0.41467450720458926,0.8545941917055864,-0.3014511547929338,5.882922304869602,-17.20054138470021,8.596817752356271
1760515172.661326,-19.410547595251934,-0.3780363796534167,0.8339488197520142,-0.30968661286831684,4.802082058781013,-21.19156208454819,8.762182312402608
1760515172.6713462,-19.47266694101286,-0.34154050604546987,0.8223240124615612,-0.3111082394275225,4.834087587002267,-23.663727214096614,9.805300958955517
1760515172.6813486,-19.467817963294177,-0.30681347741989057,0.8196283823691934,-0.30615185003736856,5.766059740310928,-24.61176808127646,11.622415842911598
1760515172.6914256,-19.385091261096846,-0.2753901036255418,0.8249509005579279,-0.2959232074048156,7.34367571670322,-24.125366188610702,14.057090279702537
1760515172.7013297,-19.220494292392985,-0.24858893714763478,0.8367299729886902,-0.28204020573699096,9.300308488348131,-22.381259620521636,16.912247062797736
1760515172.7113428,-18.976859385341605,-0.22736889221195433,0.8529992264297898,-0.2663918216270744,11.383282178202101,-19.63013589109759,19.96615199698521
1760515172.7213714,-18.662967970866045,-0.21220474070985448,0.8716624501057669,-0.2508618169307152,13.374576242187768,-16.17825621649655,22.9907132069283
1760515172.731336,-18.292085829989304,-0.20301573468812972,0.8907492536046206,-0.237074722056242,15.104516802653174,-12.364095038352435,25.770110748172332
1760515172.7413287,-17.880173560581962,-0.19917249280427868,0.9086136607754454,-0.22621321477391498,16.45818992899245,-8.53104312741474,28.11770684727324
1760515172.7513318,-17.44405752131268,-0.19959320021826285,0.9240547500975504,-0.21893393574276673,17.375322958226267,-4.998337291368891,29.8894373129366
1760515172.7613208,-16.99981687719943,-0.20291932981665345,0.9363559521781142,-0.2153828829995106,17.845075956893375,-2.033468751819584,30.99242842058835
1760515172.7713573,-16.561564015913522,-0.20773589227305428,0.9452541779362131,-0.2152901886607007,17.897494170087867,0.17015308740232837,31.38834017266409
1760515172.781351,-16.140684073672812,-0.2127817026777272,0.950859866896845,-0.21811116525414714,17.59329966181976,1.5069325462933203,31.09172755638296
1760515172.7913458,-15.745486669408868,-0.21709355110006134,0.9535534876640188,-0.2231767051574738,17.01333794008295,1.962260686490219,30.164307092367
1760515172.8013616,-15.381147531617401,-0.22004959352834813,0.9538822420037285,-0.2298207322606235,16.24850057714545,1.6051640989533984,28.70627512844386
1760515172.8113747,-15.049806666665678,-0.2213152818183044,0.9524724006781973,-0.23746364039854365,15.390498423759984,0.5724232261830112,26.845775073847154
1760515172.82151,-14.750743483543301,-0.22073405923649014,0.9499604787793898,-0.24564512616488648,14.523619657176155,-0.9525528854152198,24.727408956818547
1760515172.8314698,-14.480634297864098,-0.21822520434119916,0.9469369880122296,-0.2540128979563066,13.717645867325363,-2.762531911558194,22.500511875540465
1760515172.8413322,-14.233958194604899,-0.21373861703709454,0.9438955231107907,-0.262281992544116,13.02233477552998,-4.648010062920388,20.307854079024157
1760515172.8514326,-14.003611742926552,-0.20727699823888274,0.9411863180580151,-0.27018314893194745,12.464081152382066,-6.415638848194099,18.275481342277697
1760515172.8613274,-13.781727173642443,-0.19895662772623401,0.9389806710653513,-0.27741970013203016,12.04531747220227,-7.902633755114169,16.504444011392046
1760515172.871353,-13.560607200481112,-0.18906316637346107,0.9372556601027926,-0.28365008849612305,11.746872221197668,-8.986902131969927,15.065087559134875
1760515172.8813598,-13.333636773565381,-0.17806967960583162,0.9358066077080109,-0.28850582160028726,11.533014110639181,-9.592924979523959,13.994338692604188
1760515172.8915792,-13.096024497106319,-0.16660511953803314,0.9342896017277261,-0.29164377635569577,11.358468662420325,-9.69352482794674,13.296075021409452
1760515172.9013402,-12.84525803453748,-0.15538002865433176,0.9322902846591752,-0.2928207842288997,11.176416181689333,-9.307684243672092,12.944318304178347
1760515172.9113562,-12.58121400602925,-0.14508816915186376,0.9294099365341857,-0.2919709975555202,10.946388136488771,-8.494666415882392,12.888715402574768
1760515172.9213784,-12.305927984735478,-0.13630790032756368,0.9253564615661183,-0.2892652618271144,10.641035247179875,-7.344911136140111,13.061586276692243
1760515172.9315073,-12.023089195440862,-0.12942551562692095,0.9200259656069784,-0.2851365070844378,10.25088402332542,-5.968528566451481,13.385725106881468
1760515172.9413712,-11.737365213251394,-0.12459533103892574,0.9135595383533232,-0.2802626373602755,9.78638073357706,-4.4825867270576,13.782147373367684
1760515172.951423,-11.45367738555078,-0.12174047717655515,0.9063598288877804,-0.2755048194383082,9.276747677870397,-2.99864202254424,14.177088173978435
1760515172.9614651,-11.17653717174716,-0.12058733729349154,0.8990543948228679,-0.2718037727466033,8.765512924963703,-1.611980428109019,14.5077528676242
1760515172.9716105,-10.909522522070452,-0.1207186709683901,0.8923999701914697,-0.2700423382058123,8.303106618389009,-0.39377815376012953,14.726541741109692
1760515172.9813719,-10.654932208490976,-0.12162866397687899,0.8871373815307649,-0.2708930838913362,7.9376549424980904,0.6131095456360555,14.803646667377096
1760515172.991356,-10.413617816772868,-0.12276901057426812,0.8838311001702657,-0.27468451146181744,7.705851205792145,1.3946495090028035,14.728014221920215
1760515173.0013459,-10.184969097329068,-0.12358550442874705,0.8827464432352796,-0.2813274295907871,7.626102803334854,1.9629074136886135,14.506711122188541
1760515173.011561,-9.967021638762517,-0.12355155394842075,0.8838090538547274,-0.2903296297009425,7.695646181459163,2.35092327903259,14.16277793075031
1760515173.0213668,-9.756660029743077,-0.12220369013284027,0.8866546100307272,-0.30089483083465157,7.892098360896631,2.606087350833953,13.731759005618406
1760515173.0313542,-9.549895874757052,-0.11917840028313688,0.8907397669288379,-0.31207312982050034,8.178611327286797,2.7828554885102395,13.257233871775652
1760515173.0413482,-9.342204058989907,-0.11424615163546209,0.8954717725590177,-0.3229213882874539,8.511023359453034,2.9355664208720507,12.78579499467241
1760515173.0513334,-9.128902913820284,-0.10733881378126389,0.9003212983591178,-0.3326398976491127,8.845294189754187,3.1120608923203013,12.361980423029953
1760515173.0613472,-8.905564693199182,-0.09856818913058474,0.9048970908550813,-0.3406655467363285,9.14384483069313,3.3487086551814857,12.02366639714057
1760515173.0713925,-8.668440476029843,-0.0882338620171815,0.9089745702606149,-0.3467151821534724,9.379933316423195,3.667277034935314,11.798360573357295
1760515173.0815248,-8.414877114519049,-0.07681806555736331,0.9124817305398876,-0.35078348502079887,9.539715151434743,4.073819706334686,11.70072566763751
1760515173.0916984,-8.143694431326928,-0.06496481925774665,0.9154540514617986,-0.35310642504928963,9.622073870094662,4.559468781156757,11.73152469880585
1760515173.1013863,-7.85548163449425,-0.053441017878569516,0.9179750918925055,-0.35410396055361076,9.636625132854004,5.102748610902712,11.878027810420171
1760515173.1113715,-7.5527662003681,-0.043078562918467594,0.9201205670765575,-0.3543146327870368,9.600489211178719,5.672862099086873,12.11576781883465
1760515173.1213505,-7.240009422166105,-0.03469895095661108,0.92192076617404,-0.3543312170735547,9.534496626237903,6.233363857780912,12.41138851085564
1760515173.1313534,-6.9233936478586955,-0.02902510973612439,0.9233494665868034,-0.35474230889584035,9.45945130521051,6.7457281952363,12.726212063931518
1760515173.1414282,-6.610389486667447,-0.026589794510849318,0.9243385412448066,-0.35608139441643044,9.392944965978675,7.172515109506486,13.020081644145236
1760515173.1513867,-6.309126983652519,-0.027654906434562185,0.9248091046805855,-0.35878379341933386,9.347031266380036,7.480071632089358,13.255032238664436
1760515173.1615725,-6.0276372120300445,-0.03215925684932822,0.9247058153907453,-0.3631527437982022,9.326880533917842,7.640879735915609,13.398410028939251
1760515173.1713612,-5.773066120524719,-0.039709668437129315,0.9240228180184848,-0.36933710337438336,9.330393815122239,7.635691717036844,13.425180708131217
1760515173.1813755,-5.550975088152573,-0.04962064305825323,0.9228158706399572,-0.3773227686314143,9.348672574380972,7.455487075357108,13.319311759577033
1760515173.1913648,-5.364827505289727,-0.06099580634836397,0.921200851828658,-0.3869380067326485,9.367194259870006,7.1031285041311065,13.074249888199697
1760515173.201378,-5.2157266582868695,-0.07283618765980429,0.919341314089222,-0.3978713476175733,9.367503701307468,6.594465455578261,12.69261306684785
1760515173.2114613,-5.102429425574784,-0.08415766581454318,0.9174280620467458,-0.40970040142662395,9.329185814565395,5.958563650791018,12.185266199226342
1760515173.2214983,-5.021619894936901,-0.09410033384416923,0.9156538900740273,-0.42192954607112715,9.231851677763986,5.236747029445767,11.56996119841699
1760515173.231378,-4.96839076174744,-0.10201455485251441,0.9141870853275752,-0.43403246608545387,9.056878018095409,4.48023975452311,10.869713546181774
1760515173.241385,-4.936853187143301,-0.10751250974350639,0.913147494971079,-0.4454931543463787,8.78871168478895,3.7463806610744053,10.11106632692765
1760515173.2513862,-4.920783740179066,-0.1104805538927087,0.9125884548865907,-0.4558389713930988,8.415676579824042,3.093617846498542,9.322358764859924
1760515173.2613764,-4.914222952608706,-0.1110553872720353,0.9124868504582551,-0.46466290241554387,7.930359318645902,2.575738094302024,8.532073571898856
1760515173.2714148,-4.911960436092776,-0.10957327484304633,0.9127425495926432,-0.4716372253722536,7.32974878315427,2.2360086866876365,7.767301253459107
1760515173.2817192,-4.909869511537235,-0.1065047891978302,0.9131877875897755,-0.4765238116560013,6.615326611715537,2.102064080458425,7.05234175041393
1760515173.291394,-4.905083931716014,-0.10238810167539102,0.913606560184518,-0.47918545066774343,5.7932495937401125,2.182399357407734,6.407460249961995
1760515173.3013415,-4.896035887856958,-0.09777223945266382,0.9137628393704254,-0.47959920161555286,4.874662559627308,2.465192884452489,5.847816514135254
1760515173.3113875,-4.882393084274424,-0.09317789049161139,0.9134339289812745,-0.4778690659126003,3.876070569224397,2.9198747439246744,5.382597908145453
1760515173.321434,-4.864938853145263,-0.08907770847261476,0.9124426170249409,-0.47423250577966225,2.8196127941955353,3.5014300846196407,5.014411491657944
1760515173.331375,-4.845432048566659,-0.08589226039850487,0.9106812741141358,-0.4690543471276086,1.7330427109615458,4.1569453193253825,4.739024743538667
1760515173.341401,-4.826466586605283,-0.08399380894412577,0.9081238092522952,-0.46280331125721436,0.6492443962318034,4.833453939058104,4.5455681120033375
1760515173.3513656,-4.811331049000692,-0.0837091933836207,0.9048259547932593,-0.45601063582931284,-0.3948103961435046,5.48581603421169,4.417302299274951
1760515173.361347,-4.803853459225012,-0.08531479350569494,0.9009181096701357,-0.44921520547345395,-1.3596748202599658,6.083265565428149,4.332994204748005
1760515173.3713665,-4.808208510670005,-0.08901951406535627,0.8965962725060618,-0.4429033557475174,-2.2055591659758926,6.613427495887434,4.2688402098811835
1760515173.3813543,-4.828664062217892,-0.09493465742786435,0.8921151930433641,-0.43745306765695513,-2.8948985245109395,7.0830068057079325,4.200748625923168
1760515173.3914485,-4.869249701323411,-0.1030323081042457,0.8877845127258639,-0.43309153852081855,-3.395246682804133,7.514890835381329,4.1066843310580206
1760515173.4014652,-4.933343336393143,-0.1130972232797504,0.883964954400372,-0.4298726381673466,-3.6823614929092146,7.941991237035322,3.9687233214459474
1760515173.411347,-5.0231934984379905,-0.12468158301789306,0.8810594421176488,-0.4276776029787867,-3.7433168452780143,8.398703901877328,3.774480371850612
1760515173.4213777,-5.139423215436241,-0.13707596626007112,0.8794943573494513,-0.42623924665831636,-3.5794332119644228,8.911309564724634,3.5176590953492495
1760515173.4313736,-5.280588007693723,-0.14931106276727757,0.879688530383947,-0.4251867168335786,-3.2087589451140883,9.488902529079745,3.1976173277816042
1760515173.4414763,-5.442875473062509,-0.1602014660479049,0.8820108297665,-0.42410405563245057,-2.667773336747924,10.11646966669047,2.818016440188543
1760515173.4513593,-5.620030988207432,-0.16843634584460032,0.8867300733596675,-0.42259250888110195,-2.0119518598970907,10.751533533346992,2.384796282175501
1760515173.461373,-5.8035736403933,-0.1727138876857633,0.8939625363418539,-0.4203256016079704,-1.314865161309286,11.325345514080821,1.9038530404442862
1760515173.4713547,-5.983332797729213,-0.17190853078347584,0.9036227054988205,-0.4170886751587767,-0.6655874000668803,11.749008628463162,1.3788682975991517
1760515173.4813926,-6.148293616633695,-0.16525293747074618,0.9153832669317236,-0.41280027190416735,-0.16435436452625635,11.924169000213354,0.8097327539550707
1760515173.4913926,-6.287693745878308,-0.15251079969101156,0.9286514579930532,-0.4075189553151293,0.08338634744404247,11.757099215737991,0.19193596109542668
1760515173.5013742,-6.392267773154778,-0.13411262641089242,0.9425704000610666,-0.4014423246808269,-0.025819665833979075,11.174208400185801,-0.4828294102997506
1760515173.5113227,-6.455495369441407,-0.11122538989274632,0.9560545695510793,-0.39490247973614706,-0.5855110145394306,10.136400459564234,-1.224766839911237
1760515173.5213635,-6.474679048503417,-0.08572923592584165,0.9678670447466998,-0.3883542493861844,-1.6713273006812335,8.649424196003556,-2.042911850896305
1760515173.5314472,-6.451664183994343,-0.06008144884204066,0.9767418436209819,-0.3823430356192753,-3.333638418862389,6.767565941344103,-2.941304361801886
1760515173.5413878,-6.3930272050526735,-0.03706176790878243,0.9815466340633844,-0.37743508846661744,-5.5913654899554075,4.58885787816898,-3.915099733527163
1760515173.55145,-6.309612490632743,-0.019416698791209303,0.9814686385292584,-0.3741013639194426,-8.427434270414984,2.2414840404608762,-4.947601198578492
1760515173.5613642,-6.2154040623836035,-0.009451638264193185,0.9761916094941097,-0.3725674345393302,-11.786246828867661,-0.13685433709481837,-6.009340541642811
1760515173.5713787,-6.12586088203119,-0.008647236896297136,0.9660209463399777,-0.3726659836957325,-15.573665758829138,-2.4226701313352095,-7.0601946356302285
1760515173.581356,-6.055981929222126,-0.017384859677329667,0.9519160080498623,-0.37373985834320206,-19.660187279558453,-4.52811751741042,-8.055004265064731
1760515173.5913649,-6.018448102466429,-0.034846900419383285,0.9354073825091548,-0.3746350891477434,-23.88798577582511,-6.4147982925633675,-8.952303774403099
1760515173.6013765,-6.022180841212995,-0.05911679019496039,0.9184070876710135,-0.37380080729211257,-28.08212503045658,-8.096470745886018,-9.724793553544224
1760515173.6113634,-6.071564788602032,-0.08745689450711398,0.9029493766297909,-0.3694879946168578,-32.06547275374493,-9.630157640799677,-10.369415043264341
1760515173.6215446,-6.166435415705639,-0.11670629359587147,0.8909169145580993,-0.36001777799657675,-35.67597763197299,-11.098168685444797,-10.914611895841142
1760515173.63157,-6.302775738198833,-0.14372245032075776,0.8838058671327704,-0.34407316473476734,-38.78425472005146,-12.585659527865348,-11.4227095113846
1760515173.6413875,-6.473936721198234,-0.1657901780832258,0.8825671055936497,-0.32095755369583634,-41.30905244628106,-14.159043344354592,-11.986235808529287
1760515173.6513717,-6.672117247265825,-0.18093458977657403,0.8875381678992235,-0.2907645793504241,-43.228232036737374,-15.849822413940418,-12.718203861946286
1760515173.661364,-6.889821150906342,-0.18809863786087816,0.8984601130113195,-0.25442036304665294,-44.58340965518065,-17.646570943883567,-13.737593370973425
1760515173.6713893,-7.1210474115532305,-0.18717553757607933,0.9145595489123949,-0.2135871894220688,-45.477320686876084,-19.495518265006694,-15.152236950003264
1760515173.6813896,-7.362049722160732,-0.17891423721115798,0.9346704821174759,-0.17044783084827347,-46.06404788347807,-21.308192588269584,-17.0418437953911
1760515173.691425,-7.61160044733498,-0.16473535298345376,0.9573725014468594,-0.1274136586727414,-46.533229689196,-22.97345101655738,-19.443888319806376
1760515173.7015498,-7.870788829100842,-0.14650308209072668,0.9811279693895688,-0.08681258038648272,-47.09004527785959,-24.371101193752782,-22.34459223214021
1760515173.7116072,-8.142457661159465,-0.12629691722810318,1.0044071028768837,-0.0506133218461207,-47.933141855577965,-25.38495590432839,-25.67638526223693
1760515173.7216253,-8.430427754540734,-0.10621801872177129,1.0257938352217628,-0.02023128419569753,-49.23280891837481,-25.914097471957863,-29.32224758034397
1760515173.7313786,-8.738673131313941,-0.08825079851167587,1.0440679519741571,0.003559324780882254,-51.1116646269273,-25.881982099944572,-33.126395751952614
1760515173.7414057,-9.070594451946372,-0.0741824057665892,1.0582619255042505,0.020607555761666962,-53.62986133321363,-25.243585933984722,-36.90997481872204
1760515173.7513683,-9.428499380647088,-0.06556415207894033,1.0676945144229808,0.03128607889760108,-56.77627590337626,-23.991003198978163,-40.489798302930915
1760515173.7613904,-9.813344636565567,-0.06368439183199909,1.0719859993412362,0.03634933022081418,-60.466375472107835,-22.157710882831747,-43.69776747069549
1760515173.771412,-10.224736005025111,-0.06951874311733633,1.0710599685829167,0.036790845049572404,-64.5466488921523,-19.821139862707888,-46.398466522934974
1760515173.7816195,-10.661131648706933,-0.08363551618650618,1.065134017269528,0.03372908647019741,-68.80489271190918,-17.10243988227533,-48.50263656012051
1760515173.7917747,-11.120161361181315,-0.10606007476062221,1.0546989925629258,0.0283308898048338,-72.98531947517486,-14.161805093843721,-49.97477737322447
1760515173.801382,-11.598966500494342,-0.13613349530387983,1.0404851829289485,0.021762871787203084,-76.80737247274064,-11.187907611203864,-50.833943417520565
1760515173.8113825,-12.09448274537514,-0.17242560141260616,1.0234131653698437,0.015151821781069138,-79.98718703049629,-8.38113113744558,-51.14777970461641
1760515173.8213847,-12.603623152516803,-0.21276471594409685,1.0045261799360117,0.009537783355135354,-82.26064625893798,-5.932199359030365,-51.02080418360038
1760515173.831409,-13.123357976139207,-0.25441776672280786,0.9849027992970926,0.005813635758161243,-83.40669603511446,-3.999703622990502,-50.57865809972189
1760515173.8416119,-13.650716090933189,-0.2944053743244391,0.965556045948759,0.004654605913856479,-83.26892952559237,-2.69099103127069,-49.95041842298691
1760515173.8513832,-14.182744137166939,-0.3298910750346801,0.9473341919701649,0.006447479627217056,-81.77266887221464,-2.050323676131325,-49.2512014249519
1760515173.8614016,-14.716456023173933,-0.3585598408158869,0.9308420704527692,0.011235461899179096,-78.93437308514463,-2.0563842550772047,-48.56728057969054
1760515173.8715034,-15.248793983755553,-0.37890389488841825,0.916397876539386,0.018700140124133895,-74.8607628020781,-2.6289211317796,-47.94571901884141
1760515173.881442,-15.77661032001871,-0.3903613589227882,0.904032612534853,0.028198963890236847,-69.73684194825465,-3.642523629872428,-47.389950847070736
1760515173.8913808,-16.296671980685364,-0.3932964261246945,0.8935304075663344,0.038860757011447436,-63.80457384126651,-4.944661292298309,-46.86185076720117
1760515173.9013922,-16.80569009887848,-0.38885112584757736,0.8844993273413915,0.04972154117847445,-57.336263131844305,-6.375072166450355,-46.28979795524799
1760515173.9113793,-17.300379829755148,-0.3787210590329076,0.8764565300899777,0.05987161966984407,-50.60768899297936,-7.783967115594325,-45.58133305067102
1760515173.921381,-17.77755606759942,-0.364906252553518,0.868911028794121,0.0685862230056989,-43.87543975614875,-9.047088069722923,-44.63841525446432
1760515173.9315474,-18.234264424549302,-0.3494730744003985,0.8614313451029333,0.07542006947091223,-37.36120262675396,-10.076325578694982,-43.37304932231888
1760515173.9416463,-18.667936174789116,-0.33434709740887675,0.8536915507821843,0.08025542578593849,-31.243764393296154,-10.82526636301518,-41.721126515351905
1760515173.951397,-19.07654606678347,-0.32114726628662177,0.8454952703515006,0.08330239751636997,-25.657814289027467,-11.289576956036191,-39.65267423220293
1760515173.9613826,-19.45874807584978,-0.31106864627871683,0.8367813469837795,0.08505793445428629,-20.69759349491143,-11.502476842605423,-37.177306643146416
1760515173.9713953,-19.813968364778006,-0.3048200772294812,0.8276158852350088,0.08623375365935955,-16.42302214328866,-11.525775208317643,-34.344432509743555
1760515173.9815364,-20.142445295456742,-0.3026201247800416,0.8181736015417699,0.08766274095539706,-12.866050910765484,-11.4371648532466,-31.238559144269168
1760515173.9915287,-20.4452191633792,-0.3042489279671377,0.808708863424734,0.09019180011578343,-10.035502001324813,-11.314794237760392,-27.970669855106543
1760515174.001688,-20.724084307848287,-0.3091463983763735,0.7995159312712529,0.09457050147068104,-7.9194722612087425,-11.220616785774329,-24.667044509391097
1760515174.0115056,-20.981518719869676,-0.3165402964334956,0.7908800910861581,0.10134931017650867,-6.485369632605806,-11.184575562373015,-21.45703341419848
1760515174.021411,-21.220599413479412,-0.32558263528571113,0.7830260727710173,0.11080345746438046,-5.678654914772746,-11.192111620623571,-18.46122655371402
1760515174.0314689,-21.44489833099488,-0.335471650915222,0.7760747060021378,0.12289374754886423,-5.422025454425298,-11.177506902842392,-15.781222872883456
1760515174.041382,-21.65833908981549,-0.34553996574191315,0.7700199224516079,0.1372665304017587,-5.616776014540088,-11.024995652963085,-13.491852947036907
1760515174.0514405,-21.86498639704815,-0.355297142128699,0.7647353747485429,0.15328870365654265,-6.147342119305457,-10.578400742675644,-11.636328365343019
1760515174.0615373,-22.068745344502755,-0.3644262447560376,0.7600146209601437,0.17011149695535868,-6.888882308194733,-9.658478100939902,-10.224449288970789
1760515174.071408,-22.272971970529035,-0.37274693190302255,0.7556407827171737,0.18675572660322068,-7.71671681032914,-8.08559460762719,-9.233718638364016
1760515174.0813825,-22.48003489193611,-0.3801664732369934,0.7514704638092856,0.2022099221772541,-8.515919493431939,-5.704332961327309,-8.61299692497563
1760515174.0913727,-22.69090634718625,-0.3866408535569731,0.7475071827253332,0.2155314912829454,-9.189404478834716,-2.406431975106147,-8.288201009103204
1760515174.1015544,-22.9048832846214,-0.39216136142214403,0.7439385832551322,0.2259393920613547,-9.663254094808604,1.8509292951710488,-8.169489415059438
1760515174.1115456,-23.119533491039103,-0.39677070617383725,0.7411208495617596,0.232885657047073,-9.888616840405762,7.03342909450196,-8.15933599460741
1760515174.1214242,-23.330924660379235,-0.40059977142272135,0.7395086927250883,0.23609529938245322,-9.840177621286562,13.025246742226457,-8.160837940809461
1760515174.1314204,-23.534132527915727,-0.4039052532610667,0.7395442845351419,0.2355702757799631,-9.511874021193204,19.631910063720095,-8.085555278024856
1760515174.1414945,-23.72395466692817,-0.40708392090990686,0.7415292811348281,0.23156063300189478,-8.91104130888561,26.589768936843107,-7.860190728827381
1760515174.1514032,-23.895701348129013,-0.4106442941857887,0.7455091119676323,0.22451101405436472,-8.052358335188005,33.58146157057778,-7.43151965114543
1760515174.1614256,-24.045912197790578,-0.4151309005492349,0.7511989130852489,0.2149914341687408,-6.952786302488235,40.256684717430154,-6.769151559885976
1760515174.1713703,-24.172863058567554,-0.4210147831489723,0.7579755177545051,0.20361945450570182,-5.628230015168861,46.257175131829854,-5.865917924499691
1760515174.1813984,-24.276773383078165,-0.42857916010702934,0.7649473021629076,0.1909800022026638,-4.092074934420309,51.24404910635895,-4.735921945177593
1760515174.1914847,-24.359685453137853,-0.4378361090796165,0.7710936482275825,0.17754970378717275,-2.355226937919761,54.924890647006585,-3.410534561262051
1760515174.201397,-24.425047983638983,-0.4485072522201891,0.7754450366481672,0.16363244745858563,-0.42690600541920165,57.0776883824935,-1.9328332398803156
1760515174.2114222,-24.477086726696786,-0.46008734698585124,0.7772635614255873,0.1493112485980151,1.6847396485303958,57.56910149547036,-0.3511201136055204
1760515174.2216215,-24.520074911324784,-0.4719823175339755,0.7761877685193221,0.13442130325002333,3.973088893452569,56.36539234142884,1.287784541135031
1760515174.2314618,-24.55762216392125,-0.4836779465080642,0.7723207488319729,0.11855275130435804,6.435133811349116,53.53532535714877,2.944803873597797
1760515174.2414806,-24.59208479118241,-0.49487424420477083,0.7662554241403416,0.10109533732567998,9.07514810987593,49.245157397076305,4.593866974753835
1760515174.2513943,-24.624172116357606,-0.5055348405516621,0.7590391140242877,0.08133429207152876,11.909145124356236,43.746473425033585,6.225779406832989
1760515174.261539,-24.65278913268981,-0.5158389122626793,0.7520836193777158,0.05859737756332939,14.968706980249882,37.3580736322247,7.8504265345718975
1760515174.271507,-24.67511337234541,-0.5260496846238161,0.7470333934758329,0.03244276435641326,18.30248815601456,30.443483521145584,9.497055369145222
1760515174.2815442,-24.686855172968993,-0.5363176087878473,0.7456121720333666,0.0028677492286122075,21.973862678122767,23.38601062401143,11.212350681853017
1760515174.291378,-24.68261281634329,-0.5464435517289995,0.7494707789054237,-0.02949379564247132,26.053740027236056,16.56345781787098,13.056054716308035
1760515174.301382,-24.656230975208892,-0.5556556736267668,0.7600525722050357,-0.06323029315955861,30.60837260049752,10.32435131550524,15.094065779208067
1760515174.3114407,-24.601107757292827,-0.5624817717836842,0.7784814528247356,-0.09611698045859736,35.68286503037459,4.96690074408181,17.389285238084646
1760515174.3213844,-24.51044986712013,-0.5647915317746836,0.8054656852051911,-0.12522297899038504,41.28198760850005,0.7213098215135484,19.990882655615266
1760515174.3313875,-24.37751575235852,-0.5600349369553203,0.8412052953110033,-0.14717287012629027,47.35075776634187,-2.2641629923165465,22.923016980311072
1760515174.3414307,-24.195898195679632,-0.5456428306095557,0.885296700542953,-0.15854955918564548,53.758001150955025,-3.9328336491442,26.174330003774426
1760515174.3515785,-23.959886322226996,-0.5195126198514189,0.9366423783770711,-0.1564044352348474,60.28655349152456,-4.323937068485025,29.689709334696634
1760515174.3614154,-23.66492409108178,-0.4804834987841796,0.9933860351989457,-0.13881825932025915,66.63369546861824,-3.570191773362329,33.365887424754035
1760515174.3713982,-23.30815500315793,-0.42870701692672736,1.0528995409406146,-0.10543002343273497,72.42465060873484,-1.88677420547063,37.052322718828684
1760515174.381439,-22.88901485057035,-0.36583992271672594,1.1118490370482692,-0.05783220112729919,77.2404198001238,0.44970913795461637,40.55839510212973
1760515174.3914187,-22.409810170396327,-0.2950243735314932,1.1663654460419124,0.00026818530092853545,80.65889046861477,3.1320918866014,43.66720288258944
1760515174.401554,-21.876203072080074,-0.22066031695417,1.212334619806388,0.0632002197332959,82.30529939762893,5.860430526005129,46.15524687795223
1760515174.4113967,-21.29751409896624,-0.14799832267157392,1.245800030325753,0.12382762749953247,81.90533117154935,8.380543247121704,47.816189051092174
1760515174.4213958,-20.686753938258775,-0.08258800025835948,1.2634383786179957,0.17437290220228568,79.33223617371422,10.514951730882904,48.48588176734834
1760515174.431469,-20.060304403435563,-0.029626094899313414,1.2630351527150947,0.2074720057106118,74.63918295915491,12.178290218153942,48.06521788034526
1760515174.4414604,-19.437193404210998,0.006720300345289099,1.2438678280666493,0.21729201839305706,68.07000709711346,13.372876435495503,46.53729812346133
1760515174.4513793,-18.837949611052885,0.02389302739124715,1.2069131788313328,0.20049980119980926,60.04515290149145,14.165875983588068,43.97608499156747
1760515174.4614003,-18.28307488829905,0.021289218262576227,1.1548323733664063,0.15688290462579577,51.12385974631781,14.654957583110948,40.545007046375396
1760515174.4714746,-17.79122686111291,0.00030378914192183816,1.0917354490143407,0.08949866135088257,41.94748258218199,14.932292413756898,36.48555040976313
1760515174.4815547,-17.377259462030295,-0.03589875412198152,1.0227647058322038,0.004329137967797823,33.17166387475066,15.05633494940904,32.09727506815745
1760515174.4915783,-17.050335342612453,-0.08279483217149991,0.9535566352906517,-0.0904951152397632,25.39664157235746,15.037676397431344,27.711577807488997
1760515174.5016687,-16.81239652961277,-0.1350239360637426,0.8896488562679236,-0.18578273640769388,19.10516257607911,14.8407959376513,23.661844278068767
1760515174.5114033,-16.657320482786027,-0.1869831844135519,0.8359004643047567,-0.2725190296067617,14.616219269353039,14.399221606761458,20.25265007132235
1760515174.5213966,-16.571044548639964,-0.23345144415414149,0.7959951420396443,-0.34306227972113107,12.060248514173066,13.63862449221926,17.730713145324064
1760515174.5314336,-16.532791261092463,-0.27017281193321757,0.7720918995813845,-0.39210762343080324,11.377964187438405,12.50130872391043,16.260460047941024
1760515174.541393,-16.517304667958275,-0.29431298407242207,0.7646708597415263,-0.41726830459385744,12.341364401060904,10.96628507356458,15.907114986479087
1760515174.5514257,-16.497783284965486,-0.304712805541476,0.7725909849484175,-0.41919834721577454,14.59239014633875,9.060951627312399,16.62981512686787
1760515174.5614212,-16.44903547127976,-0.30189600483338896,0.7933419469470364,-0.4012656425784258,17.692684731215714,6.862623291475969,18.286240542917483
1760515174.571398,-16.350332821659755,-0.28783291892107754,0.8234427721470432,-0.36885939221886416,21.17708844918665,4.4902972888010675,20.648728784038628
1760515174.5814002,-16.187511528071287,-0.26551022148208947,0.8589204474595842,-0.3284689111513031,24.6038478157197,2.08888522305706,23.430103144206043
1760515174.5914056,-15.954047458859291,-0.23839646425961053,0.8957951575331733,-0.2866969132164646,27.59582418140928,-0.19052607871298052,26.315863695103726
1760515174.601646,-15.651051064104621,-0.20991116105471325,0.9305059511074942,-0.24936759675490114,29.868961679003444,-2.210262821347266,28.99836745138243
1760515174.611697,-15.286328526803365,-0.1829947918019227,0.9602280586718025,-0.22085865006810007,31.246550828867427,-3.861789068069261,31.20841518302008
1760515174.621495,-14.872789839112324,-0.15984223608378959,0.983055525336024,-0.20373250131710074,31.659987726803994,-5.075205592163033,32.74029532222321
1760515174.6314034,-14.42653346321084,-0.14181318706732501,0.9980462290209168,-0.1986792369700088,31.1384096905552,-5.822063948790604,33.46762973566205
1760515174.6413858,-13.964906729648925,-0.1294854491399974,1.005147307048171,-0.20472893202207598,29.790558901980518,-6.112785427526697,33.34898540084914
1760515174.6514733,-13.504758780957436,-0.12278843872647396,1.005033827328756,-0.21965680350191713,27.782453135954714,-5.990868963441772,32.42376699174882
1760515174.6614895,-13.06100793001219,-0.12115530415459054,0.99890011035285,-0.24049238851093385,25.31407095789862,-5.525865972334887,30.800089232430622
1760515174.6714807,-12.64557042999332,-0.12365713844597989,0.9882420073001761,-0.2640476134192562,22.597517143196455,-4.806152442099621,28.63702825116119
1760515174.681429,-12.266655033945593,-0.12911279188951633,0.9746610943489511,-0.2873898132858994,19.83823831372058,-3.9315340039374185,26.12390266043436
1760515174.6914387,-11.928410890301166,-0.13618581886069483,0.9597093842593825,-0.3082003841852522,17.219988555102077,-3.0052503326685263,23.459139090317358
1760515174.7015884,-11.630913483710923,-0.1434832842325702,0.9447786298236633,-0.3249798950947299,14.893575350101688,-2.125155473790771,20.830934015539405
1760515174.7114723,-11.37047523512659,-0.14966610478487152,0.9310265949742415,-0.33708807765595483,12.969099484374809,-1.374513986178726,18.401414956202302
1760515174.7214844,-11.140263430057455,-0.15357092302010875,0.9193280534995888,-0.3446377943211733,11.511471354859918,-0.8135718028127652,16.295407853600665
1760515174.731407,-10.931186154846747,-0.15432980295767917,0.9102421616549233,-0.34828823569386297,10.539285597720976,-0.4734321088723859,14.594309046493953
1760515174.741475,-10.732966031060828,-0.15146296378394786,0.9039981218546417,-0.3489979933225431,10.027372740578281,-0.3535436954761379,13.334991844564113
1760515174.7514064,-10.53528027047632,-0.14492126128194466,0.9005100949657704,-0.3477978259408085,9.913231089546905,-0.4233868459965604,12.513181600378006
1760515174.761523,-10.328827899311394,-0.13506925013371543,0.8994302967935799,-0.3456239068729789,10.106978890353327,-0.6280972532645862,12.090342311404006
1760515174.77142,-10.106200017859827,-0.12261575227531729,0.900235471343442,-0.3432238181959813,10.503687047836811,-0.8971166981664936,12.002866522004748
1760515174.7814164,-9.862468119278757,-0.10850839263453821,0.902327868848203,-0.34112498638673777,10.996380898511985,-1.1545565778386515,12.172268686314364
1760515174.7914479,-9.595454310224234,-0.09381133984753354,0.905127903322187,-0.33964652558503383,11.48791016993297,-1.3297587247457467,12.515144384368726
1760515174.801409,-9.305694135578904,-0.07958445727424578,0.9081417734560214,-0.3389367773964021,11.900237543787233,-1.366552718934027,12.951848561585129
1760515174.8115065,-8.99613997177756,-0.06677882224175263,0.9109975636399933,-0.339023333773025,12.180273943740957,-1.2299781718819196,13.413135477423328
1760515174.8217137,-8.671676210266067,-0.05615872439356167,0.9134525909137905,-0.33986623732468435,12.301997138846977,-0.9097303902297365,13.844356107512908
1760515174.8316143,-8.33852573167925,-0.048254649262860556,0.915380359860024,-0.34140736514198183,12.265113995436245,-0.420181182080638,14.207174133132595
1760515174.841391,-8.003622850614418,-0.043346588967483834,0.9167469774955034,-0.34361007795819687,12.090913471881208,0.20262947631920605,14.47907950161948
1760515174.8514104,-7.674015463971882,-0.041473338402134935,0.9175853480802504,-0.34648416726187464,11.816193190047553,0.906264360832952,14.651202615517773
1760515174.8613966,-7.3563431664564884,-0.042461527769695064,0.9179723889551636,-0.35009310769272145,11.486234541187931,1.6285049636490923,14.725043801033234
1760515174.8715444,-7.056421778064181,-0.045967588907397036,0.918011213919957,-0.3545439216531451,11.147767636288599,2.3044337269890427,14.708740530913348
1760515174.8815978,-6.778949563131453,-0.05152611920692953,0.9178177825498547,-0.35996359707463793,10.842728637262264,2.8732613111191245,14.613426618398368
1760515174.8914008,-6.527337062477887,-0.058598924643253454,0.9175103642765184,-0.3664683059587842,10.603390923854777,3.2843766867094946,14.450125767826629
1760515174.9014032,-6.303651642110853,-0.06662034519305837,0.9172001309888151,-0.3741317708973655,10.449182414397342,3.502273777744689,14.227490051522137
1760515174.9114075,-6.108660714383563,-0.07503629054987297,0.9169819162606325,-0.3829578279903871,10.385237392705417,3.5101200488181346,13.950552941464018
1760515174.921572,-5.9419546870500035,-0.08333637143947048,0.9169253499871424,-0.39286107507683904,10.40253156830161,3.3117728342549566,13.620522538405977
1760515174.9316158,-5.802130501571491,-0.0910796333582326,0.9170677270792696,-0.40365883836505473,10.479347913922696,2.9320514045957817,13.235504960116872
1760515174.94143,-5.687016249644221,-0.0979140934901082,0.9174104146273326,-0.41507651486269365,10.583804603866092,2.415095063585339,12.791937685877983
1760515174.9514925,-5.593915853504546,-0.10358938741125794,0.9179197953053005,-0.4267659838312999,10.677191107179747,1.820729421739318,12.286442547380757
1760515174.9614134,-5.519851810055794,-0.10796152687937724,0.9185318856963045,-0.43833391593901205,10.717846372188566,1.2189391597899444,11.717783007656829
1760515174.9714215,-5.461784491318929,-0.11098891709393453,0.9191581253002169,-0.44937468425581745,10.665256236438317,0.682789733262637,11.088625521112208
1760515174.9814153,-5.416787474278777,-0.11271877746811723,0.9196899846134505,-0.4595020774556214,10.483979541505793,0.28042292981954176,10.406848775506266
1760515174.9914613,-5.382159980853718,-0.11326357806681628,0.9200022947588508,-0.4683753571518299,10.146985977027215,0.06702933092036413,9.686205540405144
1760515175.001445,-5.3554629598188335,-0.11276925202526768,0.9199579788930371,-0.475717687284028,9.638034715208155,0.07790488710257874,8.946212449252185
1760515175.0115106,-5.334478313332364,-0.11138068545025114,0.9194179745016593,-0.48132729525122864,8.952844340800768,0.3237410518072877,8.211220796299342
1760515175.021743,-5.317111139954298,-0.1092134819007493,0.9182584180468749,-0.48508310618164496,8.098983941574573,0.7891118082121785,7.508705252401803
1760515175.0314217,-5.301276614707885,-0.10634173064707571,0.9163931932354036,-0.48694698771996375,7.0946152934935665,1.4346973425618512,6.86689623648416
1760515175.04144,-5.284826320985578,-0.10280798853349721,0.9137958942052355,-0.4869642055514224,5.966386756702345,2.203181367865309,6.311975505019467
1760515175.051429,-5.265565735070066,-0.09865501305221726,0.9105137399908106,-0.48526240092684625,4.746879428961185,3.028094330054155,5.86514968044376
1760515175.0614407,-5.241395222654869,-0.09397223055701501,0.9066681116525059,-0.48204806092573044,3.472017886293065,3.84429622421156,5.539992465657553
1760515175.0714371,-5.2105781060300185,-0.08894607312530384,0.9024409870552947,-0.47759878830935987,2.1787879520996594,4.598432940402908,5.3404667993730355
1760515175.0815141,-5.172108179322288,-0.08390209267370217,0.8980512451151208,-0.4722497988896156,0.9034786712977992,5.2576358501084535,5.259977818311566
1760515175.0915692,-5.12611985539628,-0.07932692560315184,0.8937274898557791,-0.4663736325405116,-0.31947707468888054,5.814976456628678,5.2816720483596376
1760515175.1015258,-5.074261165384169,-0.07585969998354625,0.8896838474053869,-0.46035287080557685,-1.4581161365826956,6.290686832958801,5.380015176441851
1760515175.1116831,-5.0199389253952775,-0.07424628419112661,0.8861030428166483,-0.4545469822556592,-2.4831635749136005,6.728815227290581,5.523482118137876
1760515175.1216109,-4.968351505385465,-0.07525603946001357,0.8831288867431091,-0.44925654414048627,-3.368078239199507,7.189686313484553,5.6780103626851215
1760515175.1317358,-4.926249143709072,-0.07956838136186782,0.8808690505987802,-0.4446905190437046,-4.089196910643794,7.739166419091809,5.81073091399957
1760515175.141426,-4.901402008619389,-0.08764387765548065,0.879407876161382,-0.44094366969558335,-4.626270432674049,8.436208537484957,5.893426343706982
1760515175.151435,-4.901806121694453,-0.09960020470262354,0.8788268597958121,-0.43799024978151163,-4.963664958635162,9.320415255136748,5.905188565876738
1760515175.1614082,-4.934708196395041,-0.1151157509290747,0.879227596027679,-0.4356964580386979,-5.092417804695831,10.401393913712845,5.833860457377934
1760515175.1714234,-5.005573240734869,-0.13338240215969638,0.8807495872735477,-0.43384892246281487,-5.013175081691505,11.651504723340988,5.6760294961506546
1760515175.1814573,-5.1171452881512085,-0.15312400706021387,0.8835745857257564,-0.432192022616899,-4.739804733704158,13.003250516262225,5.435570910752372
1760515175.1914606,-5.268755002648808,-0.17268826998770143,0.8879107934534367,-0.4304653387102466,-4.303210364447486,14.352053273149602,5.120979615056663
1760515175.2014227,-5.4560042989816395,-0.1902082123776162,0.8939544472751538,-0.4284344467531003,-3.75462625855554,15.564530208862529,4.741949744317238
1760515175.2116892,-5.670910060648803,-0.20381724800248655,0.9018321575743259,-0.42591234723198956,-3.167516391141171,16.491662445951274,4.305822351443072
1760515175.2215867,-5.902525770495375,-0.21189212032525084,0.9115332121351264,-0.42277299527520856,-2.63718246185738,16.98552342083078,3.8145917534852893
1760515175.2314339,-6.137993079909481,-0.2132919631876281,0.9228453840021421,-0.4189609034562788,-2.277337029889248,16.917609159764712,3.263117756624277
1760515175.2414408,-6.363914536208797,-0.20755961059654568,0.9353097933245119,-0.4145005406349508,-2.2132186853066664,16.196383473890656,2.6390364894544005
1760515175.251438,-6.567889350970032,-0.19505246116509595,0.948209958970057,-0.40950638286322644,-2.5712875383295812,14.781490472262789,1.9246160423223226
1760515175.2628014,-6.7400186951850065,-0.17697442981253358,0.9606074605021246,-0.40419023693588596,-3.46608484249839,12.692260648909622,1.1004888325830728
1760515175.271448,-6.874167883055371,-0.1552883337969539,0.9714314761937469,-0.3988582088226725,-4.985402229759626,10.008700899396832,0.15084039818395864
1760515175.281433,-6.968775237443751,-0.13250070048347876,0.9796209930453815,-0.39388663210319114,-7.175418534607438,6.86413195737902,-0.9307145566332181
1760515175.291448,-7.027031469924788,-0.11132988475077109,0.9843050072244441,-0.38966683120288276,-10.02786214746434,3.4299744352788055,-2.135628481231535
1760515175.301472,-7.056331802824828,-0.09429427179677866,0.9849878485175447,-0.38651610427901334,-13.47146856535497,-0.10526320520963539,-3.4365109059871197
1760515175.3114722,-7.067030046362338,-0.08328674163280005,0.9816912463310917,-0.38456665063901607,-17.36991985117636,-3.5592966725388173,-4.785986033115039
1760515175.3214593,-7.070678188449303,-0.0792224220375112,0.9750048463762824,-0.3836586835447366,-21.527945856866314,-6.777339970232718,-6.119170191506516
1760515175.331446,-7.078067328203498,-0.08184291296685844,0.9660192130291381,-0.38326992074392996,-25.706257672321833,-9.647249377062725,-7.36001462244296
1760515175.3414338,-7.097443535876059,-0.08972677501666458,0.9561514684951681,-0.3825080290001553,-29.644547124322,-12.10588929072361,-8.430955721144453
1760515175.351448,-7.1332340848319955,-0.10050759218676439,0.9469064490043377,-0.38017957576378575,-33.09019537945712,-14.136280390599024,-9.26451159287455
1760515175.3614333,-7.185505069457701,-0.11125814358101083,0.9396325139596255,-0.37493378325342913,-35.82900010931218,-15.757310048824966,-9.81490752779116
1760515175.3714647,-7.250221231148535,-0.11897194514746129,0.9353277330015797,-0.36546346749557546,-37.713543322113395,-17.009347980169295,-10.067685240930688
1760515175.3814685,-7.320230240262494,-0.12106064607826147,0.9345338636054676,-0.3507298731389017,-38.684963166187934,-17.9396522254325,-10.04558042102144
1760515175.3914196,-7.386773237319999,-0.11578646742950738,0.9373304050476228,-0.3301672888028624,-38.784780821577414,-18.590925897590626,-9.809631944065393
1760515175.401427,-7.441248975418315,-0.10256414648925939,0.9434165289173668,-0.3038236979985242,-38.154823599748646,-18.99503535589821,-9.455337123765412
1760515175.4114506,-7.476938470474834,-0.08209367121764982,0.9522503245885512,-0.272407384171079,-37.024902849955694,-19.1721854580346,-9.10448956735419
1760515175.4215398,-7.490426072824237,-0.05631473695812685,0.9632060337327308,-0.2372314023152602,-35.68951745222592,-19.134292629938177,-8.893945539278745
1760515175.431539,-7.482517179078405,-0.028197784616341853,0.9757114762916876,-0.2000690475160206,-34.47628276824821,-18.890320618850808,-8.962856660109535
1760515175.4414248,-7.45853625052874,-0.0014016902681640107,0.9893372050507354,-0.1629466416661816,-33.70988669425998,-18.45116897844246,-9.439884143157585
1760515175.4514587,-7.427979289994092,0.02016256484509616,1.0038221491093882,-0.12790424981697499,-33.676021184302975,-17.832330659551157,-10.431649751068777
1760515175.4615283,-7.403585370672481,0.03281504110094293,1.0190349506413627,-0.09675487781904704,-34.58982393577463,-17.0537102102278,-12.013295794501994
1760515175.4719727,-7.3999743142103735,0.03358266461200662,1.034884380310369,-0.07087204415878788,-36.57282625855202,-16.13724002134403,-14.221658324779584
1760515175.4815228,-7.432057218057965,0.02061245451082822,1.0512033070268931,-0.05103291522404721,-39.64125773782437,-15.103745054731961,-17.05132283714891
1760515175.4914641,-7.513447413288687,-0.006526268288229308,1.0676352376609763,-0.03733648309813992,-43.706958700514555,-13.970634481052171,-20.453753259770483
1760515175.501457,-7.655079329028434,-0.046689595984297276,1.0835501779242473,-0.029204696264236156,-48.59036299068225,-12.751545080366476,-24.339667024669588
1760515175.5115628,-7.864194482148078,-0.09718719556243985,1.0980102868791672,-0.025462647230133154,-54.04331694303231,-11.458340050582393,-28.58473707075169
1760515175.5214665,-8.14379233412272,-0.15400886729853883,1.1097978508799795,-0.02448409459015097,-59.77813394437336,-10.105164601616556,-33.03845503072765
1760515175.5319047,-8.492578199998526,-0.21224482890108146,1.117510155733849,-0.024383185611565848,-65.49844925639033,-8.713685630636869,-37.53557815603002
1760515175.5416262,-8.905377103857216,-0.26666625881142686,1.1197193409886865,-0.023235366276318947,-70.92730430750194,-7.318165863235317,-41.90906534885445
1760515175.5516975,-9.37392803365952,-0.3124061012563205,1.1151885193528397,-0.0193177771286682,-75.82856407268537,-5.9686425374647065,-46.00294430104867
1760515175.5614355,-9.8879327299041,-0.3456578026702804,1.103122928440188,-0.011361227101831387,-80.01922452976027,-4.730350498655849,-49.68335378016873
1760515175.5714374,-10.436209229844302,-0.3642866575790566,1.0834131521739738,0.001209371877525763,-83.37211632662054,-3.6779578359530625,-52.84620728615351
1760515175.581461,-11.00779340518211,-0.36822382144007526,1.0568020687442197,0.018101404724174812,-85.8104784089974,-2.8845055394617782,-55.42053612160216
1760515175.5914843,-11.592843259940679,-0.35950582854986807,1.0248976801466794,0.03813079573684676,-87.2973933469667,-2.4071208910156883,-57.36748753972407
1760515175.6015625,-12.183234968129886,-0.34187622441901916,0.9899848553110034,0.05941611117013153,-87.82378190761476,-2.273686910227885,-58.675918674882794
1760515175.6114945,-12.77280003044635,-0.320005399190509,0.9546605924675605,0.0797799803976358,-87.39833479959287,-2.4752099531905216,-59.35617877235262
1760515175.6214983,-13.357232786201616,-0.29855065380271295,0.9213904124732796,0.09724098171915983,-86.04152139784397,-2.9669413644394185,-59.433785348925774
1760515175.6314588,-13.933772492869856,-0.28135064313835595,0.89211077649511,0.11042254558952139,-83.78414956820646,-3.678293825120967,-58.94433058944764
1760515175.6414738,-14.500801508312598,-0.27096525220655526,0.8679733604515883,0.11874615982065022,-80.6694474872765,-4.528878920287365,-57.9303233355435
1760515175.6515334,-15.057483450719218,-0.268597919275933,0.8492698158236218,0.12238340149032927,-76.75665716667777,-5.446562288633019,-56.43999463450913
1760515175.661457,-15.603505520411145,-0.27429213739125935,0.83552394546835,0.12203785204981486,-72.12380346485553,-6.38333048169007,-54.52752848401741
1760515175.6717823,-16.138919942614972,-0.28724357304985226,0.825706552182067,0.11866325281576055,-66.86770950480359,-7.3255914900787875,-52.253826002857856
1760515175.6815093,-16.664030076098417,-0.30609908996973034,0.8185142498443588,0.11320591009394154,-61.10042747702776,-8.296846473951188,-49.68681818898408
1760515175.6914933,-17.17925129908163,-0.32917700124637894,0.8126518731590713,0.10642238279401059,-54.94265213504646,-9.352129981962538,-46.90051614750673
1760515175.7015262,-17.684895097422476,-0.3546033910571489,0.8070669150700492,0.09879167022548285,-48.51574321228335,-10.56503333575486,-43.97239780815047
1760515175.7114718,-18.180865816196718,-0.3803978060019913,0.8011019948097804,0.09052008320778526,-41.93429672514406,-12.009425612348297,-40.979287314922004
1760515175.7214448,-18.66630587830052,-0.40455036356593593,0.7945526312288614,0.08162474606605624,-35.300875757607265,-13.739053157328964,-37.992429056792936
1760515175.7314541,-19.139259868558007,-0.4251173198964912,0.7876361072343904,0.07207462053917722,-28.703896565416617,-15.768796625605724,-35.07279890666104
1760515175.741471,-19.596440091011125,-0.4403390774786968,0.7808892916840765,0.06196166761332088,-22.218996994441035,-18.061240222545855,-32.26768037036038
1760515175.7515113,-20.03316457895208,-0.44876799207677637,0.7750193731772063,0.05166666877472068,-15.913521671290614,-20.52126944213252,-29.609164838208414
1760515175.7616246,-20.44351022344799,-0.4493887589316756,0.7707341313313693,0.04197682845804882,-9.853047229285442,-22.999850072635304,-27.114703490008555
1760515175.7716997,-20.820689936300553,-0.4417183984333287,0.768579586969153,0.03411189334156545,-4.10823909755739,-25.306387039772467,-24.78938782701161
1760515175.7814474,-21.157632413059744,-0.42587897947839926,0.768812680004623,0.029627136490110877,1.240054576820414,-27.22759364805607,-22.629386927713544
1760515175.7915127,-21.44771893732976,-0.4026389767596152,0.7713334819959377,0.030185876640394852,6.099518904627143,-28.549908595390153,-20.62590400496709
1760515175.8014665,-21.685611418593563,-0.37341692517575276,0.7756934296288027,0.03722884069591696,10.370314616450408,-29.08222174112967,-18.769071375593004
1760515175.811494,-21.868085173138493,-0.34023499619341196,0.7811822128907018,0.0516077665729017,13.954446723875957,-28.67592822611385,-17.05131570916508
1760515175.8214593,-21.994757884776774,-0.305605266921368,0.78697698299352,0.07328363138848054,16.769178611063822,-27.240032847257126,-15.469816086678406
1760515175.831478,-22.068590876996108,-0.27233718234923054,0.7923174761944745,0.101191760753489,18.761632898341766,-24.750016942738103,-14.02770866839223
1760515175.8414729,-22.096045655634985,-0.24327614287320753,0.7966592346355748,0.13332895682975215,19.921005971270663,-21.250127206888425,-12.733738809088171
1760515175.8514693,-22.086817612474572,-0.22100978258490914,0.7997641616570516,0.16703962898951466,20.285372435791935,-16.849323788469608,-11.60025018981968
1760515175.8614542,-22.05313471857604,-0.20759173533257982,0.8017102081811588,0.19941587613798314,19.941666315465042,-11.711413701337813,-10.639747443218083
1760515175.871463,-22.008686088253835,-0.20432639193704552,0.8028253578216016,0.22771040643646034,19.019232781429846,-6.040317499663783,-9.860641629797936
1760515175.881465,-21.967315461829145,-0.2116416050453985,0.8035656678294166,0.24968147917101555,17.678590089637435,-0.062135506929538564,-9.263028430013504
1760515175.8914568,-21.94166123151412,-0.22905920643227534,0.8043646116826619,0.26382189483476537,16.097567928598636,5.99364132333921,-8.83537724478128
1760515175.901507,-21.9419355817163,-0.25525900103272436,0.8054849344530058,0.26945573266682027,14.456982298738582,11.911202983693961,-8.552827866165064
1760515175.9114895,-21.9750086933901,-0.28822181684105924,0.8069044137497141,0.26671190935472266,12.927652056894704,17.501549636549722,-8.377451458776918
1760515175.921526,-22.043907599398835,-0.32543095608049855,0.8082614572840837,0.2564003027771918,11.660005464059157,22.61029183467837,-8.26041300711626
1760515175.9317353,-22.147765468993256,-0.3641069829021242,0.8088748631406307,0.23982442825634426,10.77692094540478,27.11992267411988,-8.145567816914117
1760515175.9414606,-22.282181901789176,-0.40144939902740817,0.807836806662677,0.21856561209467287,10.369924184313065,30.94766793824098,-7.973732777519101
1760515175.951475,-22.43989797847853,-0.43486486844864775,0.804164144686307,0.19426800401239716,10.498503392796888,34.04104136960896,-7.686776311307195
1760515175.961476,-22.611664518665624,-0.4621736441056203,0.796985099974035,0.16844483318897757,11.192139939695485,36.37353462589799,-7.230815469221671
1760515175.9714885,-22.78718489778281,-0.481794010906349,0.7857374358483367,0.14231949054905763,12.454644848037454,37.942279003657426,-6.558168356056429
1760515175.9814553,-22.956031355803585,-0.49290140366571655,0.7703561530718164,0.11671298602470989,14.270411274072714,38.76825218970788,-5.628155317937933
1760515175.991467,-23.10845452852508,-0.49554480283763597,0.7514275074428461,0.09199053668541014,16.612076795973085,38.89818697160181,-4.4071879993504535
1760515176.0016243,-23.236023923980362,-0.49068409880580977,0.7302814201756274,0.0680809192195256,19.448762645495183,38.40635139612453,-2.868707805305257
1760515176.011457,-23.332051217369344,-0.480100904747745,0.7089928098247571,0.04457823279642443,22.753588894240455,37.394183961535795,-0.9934271885333276
1760515176.0214791,-23.39176295513724,-0.4661495342871586,0.690270225053135,0.020923665192294234,26.508736233570684,35.98636241032592,1.229938996845236
1760515176.0314598,-23.412211430017884,-0.45136238294813696,0.6772274692203946,-0.0033535107087907957,30.706176870678135,34.322877180457816,3.8035619078641214
1760515176.0414846,-23.39194606824271,-0.4379874293648565,0.6730562939484586,-0.028375342483279834,35.342559209585204,32.547568447048306,6.719285717154511
1760515176.0514736,-23.330509658857494,-0.42757949998772615,0.6806400484499353,-0.0536882509971507,40.407698412826726,30.79408864766245,9.957536983729259
1760515176.0614574,-23.22786215286419,-0.4207610981455757,0.7021629727044849,-0.07812673527221141,45.86755912758601,29.17048230745558,13.48635007812427
1760515176.0716412,-23.083852797037594,-0.41720950428880443,0.738771540329136,-0.09981516414427254,51.64419511403545,27.74384868854061,17.260257186674302
1760515176.0814748,-22.897850331187183,-0.4158459070134826,0.7903315403346182,-0.11633290122330038,57.59646917571902,26.527072728517314,21.21869793897178
1760515176.091469,-22.66860805506592,-0.41514425103685654,0.8553041739123323,-0.12503875922294957,63.50620867731647,25.470307419631407,25.28374754364014
1760515176.1014612,-22.394399853063508,-0.4134623824780393,0.9307478956612988,-0.12352058767193051,69.07453640284056,24.460434111138447,29.357331522753523
1760515176.1114755,-22.073423050183653,-0.4093160082831336,1.0124476018882433,-0.11010937959758538,73.93230377077597,23.33162242256113,33.31861602161731
1760515176.1214776,-21.70442637205249,-0.4015519652460233,1.0951756678472993,-0.0843781122646106,77.66675109463003,21.888869823677606,37.02280464338729
1760515176.1315246,-21.287488145951848,-0.3894204710370282,1.173087706871396,-0.047534058426144186,79.86376540446145,19.94376903380165,40.30294084014237
1760515176.1415017,-20.824844405317705,-0.372584089941437,1.2402394998030846,-0.002610131769588074,80.16170893642573,17.35803257111642,42.97630491946118
1760515176.1516027,-20.321651091499252,-0.351121151802238,1.2911837100270598,0.04562676138680199,78.30939716106988,14.086538072553132,44.85646672930931
1760515176.1614761,-19.786558425530234,-0.32557105413357446,1.3215790443880768,0.09109591382728587,74.21830381254321,10.209310046288891,45.77098227542676
1760515176.1714633,-19.23197595673534,-0.29702366279868153,1.328729337038671,0.12713764955770093,67.9983753037402,5.9421889689436735,45.58327275614176
1760515176.181502,-18.673913636466583,-0.2671951566805978,1.3119671132962578,0.14747624489915528,59.96857237295574,1.6195460862239066,44.21581329629248
1760515176.1914818,-18.13130346895352,-0.23839817558529625,1.2728079701342836,0.1472545713888853,50.637380119545504,-2.351148149712277,41.670887372303426
1760515176.201471,-17.624747437979718,-0.21333162757538468,1.2148326560724554,0.12394135162766395,40.6541540968558,-5.555491184804576,38.04511378864483
1760515176.2114596,-17.174708778217312,-0.19467997242417903,1.1433008169003152,0.0779173907044606,30.73789510181619,-7.645437360834107,33.53465428842817
1760515176.2216885,-16.799268244530747,-0.18459501746434318,1.0645520274177622,0.0126019667423376,21.594517322700558,-8.403552820189526,28.429153359013586
1760515176.2317166,-16.511695974593852,-0.18419663882413476,0.985288933608308,-0.06593111418909882,13.835938498290485,-7.784102139038486,23.093736082819838
1760515176.2414787,-16.318212428377784,-0.19324000976867103,0.9118512572435784,-0.14979612036810405,7.91392393394156,-5.922651291256541,17.93971130727277
1760515176.2514925,-16.216376579198826,-0.2100498089799112,0.8495779614392495,-0.23044983857601722,4.078658185209298,-3.1134060898358586,13.386146132041297
1760515176.261557,-16.194495876579676,-0.23174074798730374,0.8023296242121947,-0.2999453398792982,2.3671094365936636,0.23971033125666805,9.816234893515363
1760515176.271478,-16.23228903932396,-0.2546659227000981,0.7722154652764817,-0.3520533018676182,2.6204402643055307,3.68785672444798,7.534005131618063
1760515176.28147,-16.302791856357334,-0.27498744548915954,0.7595421861125963,-0.383051608211764,4.524416258645916,6.805884334830288,6.727733361223837
1760515176.2914908,-16.375251721079657,-0.2892535459613773,0.7629730239429082,-0.39206048677935007,7.663377945201631,9.253196273025255,7.445981767917085
1760515176.30158,-16.418575810992888,-0.29488288592114453,0.779857358073656,-0.3809012285161133,11.57759907872655,10.817452316699265,9.590355600030096
1760515176.3116608,-16.40481714549061,-0.2904875421346622,0.8066704043089857,-0.35355416265835443,15.815424299407487,11.435170411161707,12.926325290361083
1760515176.3214717,-16.312207244922167,-0.27600318992055817,0.8394937774245969,-0.3153612155504035,19.97440938348689,11.187559068117283,17.110421316981196
1760515176.3314626,-16.12735758658338,-0.25263376131094584,0.8744707595127853,-0.27214669479262615,23.72871011124659,10.274273966352828,21.729480661696073
1760515176.341451,-15.846421636387564,-0.22265027734990042,0.9081823288988171,-0.22941694182220684,26.842538312772003,8.971294009223197,26.345971345762557
1760515176.3514614,-15.475186773524632,-0.18909786950211643,0.9379089944385719,-0.19175554486737964,29.17139460367638,7.581018450558806,30.543054278059955
1760515176.3614511,-15.028202200853512,-0.15545605055873232,0.9617664071867839,-0.1624716616458944,30.65397229454169,6.382844873542589,33.96386932562977
1760515176.3714688,-14.527120630702182,-0.1252757058078248,0.9787249237994163,-0.14350029095687816,31.298150357320857,5.591315603223013,36.341145988001394
1760515176.3814626,-13.998448616483683,-0.10180108093065018,0.988539182471507,-0.13550654864877187,31.164422354566064,5.32700796304442,37.515148182935626
1760515176.3914526,-13.470893613656992,-0.08758727226146089,0.9916197666693064,-0.1381176824134366,30.349532947952095,5.603140518271931,37.439739819047496
1760515176.4014895,-12.972494500124442,-0.08414085650747687,0.9888759865445653,-0.15019978378913626,28.972173324855394,6.328660559088501,36.17768987592349
1760515176.4114723,-12.527742981353917,-0.09163411837435362,0.9815510995295056,-0.1701114761825653,27.16158022456643,7.326571258621858,33.88709099163515
1760515176.4214828,-12.154947314230967,-0.10876152205644471,0.9710637128918422,-0.19589989043373007,25.04906570257978,8.36456474657141,30.801023351908956
1760515176.4316933,-11.864139593986582,-0.13280826822478073,0.9588639305851117,-0.22544187913504113,22.762032487084962,9.193632180724798,27.202577822723516
1760515176.4417734,-11.655845124389078,-0.15997105885966675,0.9463096936541383,-0.2565571264335812,20.419888195884514,9.589166196880875,23.39729622282383
1760515176.4514709,-11.520972548977152,-0.18590700871516794,0.9345673839095754,-0.2871197620119266,18.131323138425607,9.388315583643026,19.685130210830934
1760515176.4614947,-11.441930036895654,-0.20641076679179682,0.9245411159580504,-0.3151797041932835,15.992488336165497,8.517470547287376,16.334153534086663
1760515176.4714723,-11.394861060044377,-0.21807380299504864,0.9168350499538255,-0.3390896686538269,14.08560152130056,7.005164590291204,13.558346194563917
1760515176.481502,-11.352690799343831,-0.21878875025985062,0.9117498920778947,-0.3576248013245148,12.477464550628477,4.978239275667306,11.50159993257205
1760515176.4914837,-11.288536848203819,-0.20801306965896893,0.9093097655864988,-0.37007772132056965,11.217448777132894,2.642158649073362,10.229530401967146
1760515176.5014856,-11.178987092624176,-0.18676769456501355,0.9093117416491829,-0.3763118236082442,10.33481820518233,0.24914118612257483,9.729762103395599
1760515176.5114758,-11.006782170086353,-0.15739629232035593,0.9113877299934644,-0.3767598495980792,9.835802564603743,-1.9402060392315275,9.920273114729845
1760515176.5214984,-10.762551252799542,-0.12314628863516518,0.9150670517161116,-0.3723615868312604,9.701441147082953,-3.695131359954456,10.664367169185018
1760515176.531476,-10.445419859590361,-0.0876556766807495,0.9198301321756189,-0.3644440174565166,9.887576611522888,-4.846561578589464,11.79005027883882
1760515176.5415263,-10.062502553919556,-0.05443758663388029,0.9251499009244788,-0.35455899927601686,10.328119244976781,-5.307703652048022,13.111148916714221
1760515176.5517251,-9.6274681627439,-0.026444666519641905,0.9305234839176896,-0.3443034251497628,10.941755255228905,-5.080921927225196,14.447485372205037
1760515176.5614607,-9.158484471811388,-0.0057698947799256555,0.9354983648238612,-0.3351496266584202,11.641091573649698,-4.25092822779139,15.641820023249185
1760515176.5715702,-8.675897683880821,0.006492128468797092,0.939694851998637,-0.32830892192060684,12.342460721485782,-2.9665849521349954,16.571988068500797
1760515176.5814815,-8.199985155725754,0.010229514241614841,0.942823851982966,-0.3246421589200493,12.974546124061881,-1.4152508355047018,17.15752684880296
1760515176.5914757,-7.749055157365176,0.006171510806384198,0.94469797482085,-0.3246217397859696,13.484468031855657,0.20560459644514825,17.360914992926574
1760515176.6014931,-7.338072813134489,-0.004336611873919845,0.9452349699325162,-0.3283420577650952,13.840666169575854,1.7148954629655497,17.184188687866385
1760515176.6115124,-6.9778850477509,-0.01959432937500091,0.9444540753994829,-0.3355697855466064,14.03257631693432,2.9687965922826396,16.662109032242604
1760515176.6215124,-6.675019482634371,-0.037798140240297186,0.9424664562141513,-0.34582138864808487,14.067601645734905,3.8736770682377437,15.853231472255501
1760515176.6317031,-6.4319601365738786,-0.05725291375430454,0.9394601103322779,-0.35845263563034085,13.966200513436615,4.390305239216354,14.830209830843955
1760515176.64148,-6.247761793038834,-0.07652389247144799,0.9356788882170951,-0.3727447836747297,13.756064656907293,4.529938050050462,13.670506772143435
1760515176.6514928,-6.118849645632143,-0.09452214486788811,0.9313961943852759,-0.3879751439354469,13.466355750867791,4.3440223145229035,12.448431022239312
1760515176.6614838,-6.03985632505975,-0.11052492217088647,0.9268861017331648,-0.4034650339411808,13.122820248486057,3.909993835718918,11.22911631967719
1760515176.6715035,-6.004373571310723,-0.12414078421713515,0.9223961598753879,-0.4186042737620565,12.74435676953533,3.315968955938657,10.064729802709145
1760515176.6814792,-6.0055370149215905,-0.13523668523095164,0.9181259916633494,-0.4328571239482172,12.341323963535872,2.646922989635133,8.992888092209595
1760515176.6914923,-6.036410778873586,-0.1438478693403502,0.914214169600615,-0.44575836076834185,11.915592426489408,1.9743084589904498,8.037007757893065
1760515176.7017298,-6.090183754424417,-0.1500906031060516,0.9107339154570252,-0.4569086052265471,11.462091369854033,1.3501538764675969,7.2081423475259765
1760515176.7114873,-6.160223964308371,-0.15409351319268663,0.9076968317942652,-0.4659752762579446,10.971406983369604,0.805701546655971,6.507755432298566
1760515176.7215798,-6.240057652361597,-0.1559572339237538,0.9050633880283381,-0.4727016853871686,10.432881512746555,0.3537945822813614,5.930839931525968
1760515176.7315142,-6.32334542856876,-0.15574581127659146,0.902758778436078,-0.47692386868942555,9.837658899583323,-0.0063136123513667115,5.46882219427836
1760515176.7414663,-6.403920953713182,-0.1535078431466684,0.9006924207557279,-0.47859297231361647,9.181220634545603,-0.28319914876873853,5.11179220480054
1760515176.751513,-6.475940091106038,-0.14932055506536737,0.8987784227642424,-0.47779913645820027,8.465114601609779,-0.4878319494597031,4.849775278659875
1760515176.7615013,-6.534160662742743,-0.14334538347834389,0.8969531376610754,-0.4747902210923931,7.697739858375056,-0.6293343257063436,4.672985563835782
1760515176.7715404,-6.574336651855222,-0.1358799046883316,0.8951856599579724,-0.46997665751165374,6.894171969200674,-0.7123324326188791,4.571239135162788
1760515176.7816112,-6.593673207657714,-0.1273905950274106,0.8934788608488988,-0.4639145738714412,6.075101207705935,-0.7358844602151539,4.53289995197959
1760515176.7915244,-6.5912623487317665,-0.11851568730725211,0.8918617193472482,-0.4572642657239388,5.265036310259248,-0.6937023494363375,4.543831480226532
1760515176.8017194,-6.5684132419047785,-0.11003557110760587,0.890376270262467,-0.45072826732510135,4.490006934149938,-0.5752960419251139,4.5868047998734784
1760515176.811742,-6.528804989650879,-0.10281558185929388,0.8890632171079687,-0.4449790336507915,3.7750529491572986,-0.3677163646877136,4.641685291314691
1760515176.8214774,-6.478415095101016,-0.09772962461843236,0.8879496323484494,-0.4405878934498838,3.1417899048325966,-0.05767040560702798,4.68652396983303
1760515176.8314688,-6.425203046356871,-0.09557294964854453,0.8870411868413862,-0.4379647715820112,2.6062934139651066,0.3661370706876738,4.699459816101959
1760515176.8414795,-6.378550789875892,-0.09697077672968109,0.8863204355306017,-0.4373147983105766,2.17748472555948,0.9105540778333092,4.661137671155873
1760515176.8514917,-6.3484823117804,-0.10228900257875123,0.8857518373245336,-0.43861566200002766,1.8561483075899194,1.5755721156098634,4.557203317043229
1760515176.8616004,-6.344708965857583,-0.11155530725866745,0.8852932799003,-0.4416185562293459,1.6346636481900059,2.3521832626500947,4.3803876551948475
1760515176.8714867,-6.375578143809672,-0.12440244158776485,0.8849127302130047,-0.44587434607020243,1.4974727399079428,3.2208183781880013,4.131749611203462
1760515176.8814912,-6.447034317411708,-0.1400471477672786,0.8846072283470882,-0.45078398829805677,1.4222305016778585,4.150727013265544,3.820797489303103
1760515176.8916652,-6.561720933972928,-0.1573154296110199,0.8844201316776269,-0.4556684853082593,1.381506583577905,5.100620702960293,3.464412926756385
1760515176.9014976,-6.718348583063274,-0.17471794056726747,0.8844518953983095,-0.459850017667899,1.3448318236818693,6.02077023497347,3.0847150292639465
1760515176.9115005,-6.911427672468406,-0.19057083342058434,0.8848602950422947,-0.46273389073059,1.2808243223024671,6.856550537424364,2.70618311198213
1760515176.9214997,-7.131420114823558,-0.20315055681665356,0.8858478863138539,-0.4638812229508275,1.1591149781334067,7.553209494814913,2.352470766147337
1760515176.9314907,-7.365315370844244,-0.2108671291376631,0.8876369561406492,-0.4630644208967325,0.9518476275797989,8.06144395344815,2.043372317959587
1760515176.9414907,-7.597590557850359,-0.21243888606753775,0.8904342776784313,-0.4603004496117445,0.6346567588798318,8.34322191567964,1.7923503067719193
1760515176.9514809,-7.811477153392303,-0.20705155928891672,0.8943890292581101,-0.4558596877251341,0.18718757077335557,8.377200859255016,1.6049273408216715
1760515176.9614844,-7.990429794718863,-0.1944851646547369,0.899547512661154,-0.45024980756299204,-0.4066462921304238,8.163063034780919,1.4781209936525586
1760515176.9714751,-8.11967442664098,-0.17519329868392258,0.9058091977566147,-0.444174551821466,-1.158423448699695,7.724121423142353,1.4009779266729385
1760515176.9814825,-8.187699581085818,-0.15032095694145814,0.9128916209313647,-0.4384676981448253,-2.074786308372849,7.10763184108341,1.356150144050242
1760515176.99152,-8.187542090920166,-0.12164900063016126,0.9203161007139202,-0.4340041061328809,-3.156703748240229,6.382361077246168,1.3223533793919815
1760515177.0016136,-8.117707879634738,-0.091456702894613,0.9274287364084124,-0.43159227443785686,-4.3984173305512435,5.633121984545581,1.2774567597827475
1760515177.0116177,-7.982568698204752,-0.062300643635430156,0.9334680460572102,-0.4318553699346518,-5.786189208047217,4.952256876839926,1.2018728240077146
1760515177.021564,-7.79210403503438,-0.0367217146864204,0.9376802507906596,-0.4351105071758389,-7.2970959089877745,4.428511400136905,1.0818404638544363
1760515177.0316074,-7.560931130785799,-0.01691275886825719,0.9394668528349214,-0.44126043288856676,-8.898224410241765,4.134414694045949,0.912117234965578
1760515177.0414877,-7.306686252970064,-0.004401506233572479,0.938531939328036,-0.4497173421008752,-10.546723316303972,4.114046976745356,0.6975431464713848
1760515177.0514991,-7.047960714386257,0.00018468974872313504,0.9349876945815169,-0.4593819611036535,-12.191220304299604,4.373640027161125,0.45296442664339714
1760515177.061582,-6.802109175930676,-0.002785493928965748,0.9293838580217696,-0.46869818108900013,-13.7750623744069,4.87745514489017,0.20118967490145964
1760515177.071479,-6.583292893580306,-0.012019365911550775,0.922649230438658,-0.47579287442159457,-15.241592985700498,5.550601591498739,-0.03097473052129635
1760515177.0815413,-6.401079609583766,-0.02552819444735688,0.915959273687415,-0.47869413491856155,-16.541261217135098,6.289013131949063,-0.21807311683131697
1760515177.091587,-6.259809237982556,-0.04096522878449647,0.9105602321383593,-0.4756031640581514,-17.63986026114773,6.975112831806797,-0.34176823666524203
1760515177.101571,-6.158784623490043,-0.056008847398686404,0.9075831460340125,-0.4651793957127149,-18.52672985870087,7.496287884969386,-0.3958847561805519
1760515177.1116266,-6.093195317736327,-0.06872235753588306,0.907876748408124,-0.44678887429161274,-19.22143130755811,7.762586529925709,-0.3897440249614174
1760515177.121723,-6.055559292370383,-0.07783103143693879,0.9118830262309814,-0.42066619329236565,-19.777316765321157,7.720232824477786,-0.3492519415334492
1760515177.131697,-6.037396840786336,-0.08287668505392147,0.9195733011649395,-0.3879522985488698,-20.2806485595375,7.358529514808762,-0.3157746494689227
1760515177.141776,-6.030844892672263,-0.08423605861745401,0.9304535585159002,-0.3505914527690575,-20.844495643869,6.709121925796037,-0.34333257748427404
1760515177.1515274,-6.029971637395774,-0.08301387702500787,0.9436362516210753,-0.3110953370662119,-21.597478733794308,5.838001490130739,-0.4948982016303159
1760515177.161602,-6.0316390808938465,-0.08083908527114639,0.9579653732156769,-0.2722064576573969,-22.668417358524707,4.831760480894566,-0.8385399553199663
1760515177.1715963,-6.035860278521954,-0.07960209303266923,0.9721744445973851,-0.23651350889517486,-24.168864931917344,3.7803869163337382,-1.443873815305353
1760515177.1815405,-6.045687442740912,-0.08117271822564502,0.9850537376194726,-0.20608351782785395,-26.176196919014643,2.75931244645059,-2.3788956462933526
1760515177.1915045,-6.066730444432752,-0.08713376447613123,0.9956038221335162,-0.18217457128189438,-28.720154457531372,1.81349328312906,-3.706912745124057
1760515177.2015457,-6.106432557736998,-0.09855569358673383,1.0031570902846183,-0.16507772540750792,-31.775417666233317,0.946034139195805,-5.4830842018346475
1760515177.2115078,-6.173223367124396,-0.1158280538097067,1.007455130581175,-0.1541118494725489,-35.2618926270524,0.11334817013444243,-7.7500890863770175
1760515177.221535,-6.27564228961242,-0.13855839575929962,1.0086750264850672,-0.1477675555448841,-39.05310671803606,-0.7718283444588366,-10.532705701814029
1760515177.2318137,-6.421499792674408,-0.16555059310840015,1.0074010133519722,-0.1439715487978831,-42.99168959890553,-1.829114644256647,-13.831577810685975
1760515177.2415607,-6.617128944911831,-0.1948767689086171,1.0045412381238963,-0.14042419166460485,-46.909656773057115,-3.191583285044539,-17.61703096537878
1760515177.2514954,-6.866776321412295,-0.22405350011366248,1.0011954904774987,-0.13495367273240078,-50.65034665756312,-4.981468062555134,-21.824270958264993
1760515177.2615013,-7.1721803138318485,-0.2503210285769278,0.9984894964020912,-0.12583222541628056,-54.08853599622187,-7.28410849489212,-26.35146038548256
1760515177.271507,-7.5323791264280215,-0.27100600241234446,0.9974010277864362,-0.11201240110374494,-57.14549856655764,-10.124680579404977,-31.06194422744272
1760515177.2815008,-7.943776342711534,-0.2839273902624665,0.9986067606888857,-0.09325877266073951,-59.796520602888975,-13.45231832313925,-35.7913068985962
1760515177.291513,-8.400468682026254,-0.28778585104345794,1.0023739947830141,-0.0701658806711983,-62.069543485765614,-17.135354354194938,-40.359117057340434
1760515177.301503,-8.894811361208122,-0.2824646446760059,1.0085112636191882,-0.04406403056208503,-64.03501211300951,-20.969770098545762,-44.584349739441876
1760515177.3115807,-9.418165869244516,-0.26917130437535747,1.0163818995554348,-0.0168229997920997,-65.78843351524178,-24.70079716479542,-48.302748781728404
1760515177.3215199,-9.961747282460196,-0.2503679522793392,1.0249777014251282,0.00942601546776591,-67.42833669988802,-28.055220981884318,-51.383898107167994
1760515177.3315136,-10.517467585511953,-0.22947334313842135,1.033045173336639,0.03261616934470022,-69.03308269973436,-30.779648314819173,-53.745557082101755
1760515177.3415818,-11.07866244589059,-0.21036449340563101,1.0392516779910634,0.05107050570474645,-70.64024313902827,-32.678270660402006,-55.36295172037486
1760515177.351599,-11.640596391086762,-0.19675221438549761,1.042371917786778,0.06377100275773225,-72.23207350428528,-33.6430027414069,-56.271248628603914
1760515177.3615386,-12.200669050686846,-0.19154722698268606,1.041468311190166,0.0705163293327576,-73.72997918796011,-33.66977504679443,-56.56035048769996
1760515177.3715136,-12.758291975896821,-0.19635684767269515,1.0360357355093024,0.07192840745938558,-74.99978616004104,-32.857447461911846,-56.362347299062144
1760515177.3815014,-13.31446133132968,-0.21122787377734625,1.0260836351231548,0.06930057594236584,-75.86803724934981,-31.389853225554624,-55.83323216257068
1760515177.3915052,-13.871100806953757,-0.2346742435227572,1.0121360275099864,0.06432532164262797,-76.14747720312761,-29.505493033585957,-55.131522396140774
1760515177.401522,-14.430282338202606,-0.26394801377616756,0.9951423916002938,0.05877409874253964,-75.66765965962169,-27.461672488264156,-54.39694890185135
1760515177.411491,-14.993449960666196,-0.29548014061095257,0.976310693427914,0.05420525379418886,-74.30484535175927,-25.499720716920404,-53.732344500845336
1760515177.4215155,-15.560773415248992,-0.32541988126739463,0.9568954951465732,0.0517546565358357,-72.00487538940202,-23.816207818852494,-53.19136985033581
1760515177.4315102,-16.13073770560094,-0.35019776872100417,0.9379904526433632,0.05203660746053628,-68.79403582677892,-22.543194354749684,-52.77382542727547
1760515177.4415314,-16.7000334533219,-0.3670273373218027,0.9203744540292323,0.05515673511506421,-64.77586046809277,-21.73910007733439,-52.42907065384688
1760515177.451522,-17.263761362558853,-0.3742701780065222,0.9044413114527606,0.06081253971635907,-60.115306287119864,-21.390458472202454,-52.06670511040993
1760515177.4616718,-17.8159145953725,-0.3716196937766845,0.8902149116418075,0.06843781535870477,-55.01450731222275,-21.423298557267206,-51.57247640603331
1760515177.471828,-18.350062226356176,-0.3600931806419865,0.8774296638739153,0.07734520237964816,-49.68562021455577,-21.721410463481053,-50.826625928115966
1760515177.481674,-18.86012837923571,-0.3418481054823522,0.865646397119615,0.08683693830018069,-44.326093182905055,-22.147845264837905,-49.72168749911544
1760515177.4915018,-19.34114808214083,-0.31985684934521363,0.8543746117243242,0.09627599378462164,-39.100381760874505,-22.565950003174866,-48.177128441847586
1760515177.5016036,-19.789884812436394,-0.2974875141756895,0.8431787286694014,0.10512580030493117,-34.13017256350249,-22.85689412027944,-46.149073359418466
1760515177.5115125,-20.205215902632723,-0.27804734485773386,0.8317545965570803,0.11297231538368448,-29.493092162943398,-22.93165674536013,-43.63443648457963
1760515177.5215223,-20.58822662802717,-0.26434869838569086,0.8199703840136705,0.11954034407418249,-25.228183739041278,-22.736544080716623,-40.66979329023403
1760515177.531507,-20.9419962664271,-0.25835379181284485,0.8078724213561675,0.124711274636835,-21.34545190166338,-22.25234957696787,-37.32602358697764
1760515177.541508,-21.271104448821223,-0.2609436836047618,0.795661457453722,0.12854332407616853,-17.836583720432614,-21.488153998903847,-33.70010090536156
1760515177.5515127,-21.58092896896443,-0.2718406907560137,0.7836475852845295,0.13128807680244683,-14.68441473299473,-20.471394777718295,-29.905429000357397
1760515177.561499,-21.876841222647215,-0.28969325989397826,0.7721928278995093,0.13339045328924468,-11.869546056212371,-19.236170912626047,-26.061908806990285
1760515177.5715382,-22.16342531387148,-0.31230931565271886,0.761650398196262,0.13545755792274355,-9.373460746715365,-17.811797319157147,-22.286569244389668
1760515177.5815117,-22.44384464264789,-0.337000956698857,0.752309715097513,0.13818813570477076,-7.178378275050504,-16.21339431981105,-18.685253637843164
1760515177.5915053,-22.719452815871822,-0.36098524597017345,0.7443553103931672,0.14226706688958857,-5.264838157470981,-14.435818917886786,-15.345623695630989
1760515177.601635,-22.989698162966945,-0.3817779574435466,0.7378447452784654,0.14824345633234942,-3.6084944866263484,-12.451614833709094,-12.331648667265393
1760515177.6115842,-23.252313033634163,-0.39752146268297334,0.7327070696920727,0.15642074763247982,-2.1776847608324275,-10.213075946900261,-9.67976059147674
1760515177.6216242,-23.50372397821485,-0.4072029894828372,0.7287621567694011,0.16678766630603542,-0.9329462770630461,-7.658145268670907,-7.396929804775083
1760515177.631594,-23.739581681999756,-0.41074169239322006,0.7257618398124994,0.17900752549881205,0.17111114230886715,-4.719625408992351,-5.460964206602846
1760515177.6415365,-23.955301671203685,-0.4089468822347846,0.7234508825200642,0.19246530111998558,1.1820524668373764,-1.3367819743391793,-3.823255553162578
1760515177.6515248,-24.146529771179967,-0.4033690016325054,0.7216371210269277,0.20635592775792852,2.145133506746325,2.5321848757391328,-2.4139567956629318
1760515177.661505,-24.309488173809292,-0.39607497799602026,0.7202513699483805,0.21978942412346028,3.0994376072231877,6.898801121013832,-1.1492675449598384
1760515177.6715207,-24.4411990613183,-0.3893798354871049,0.7193759741987572,0.2318894664651102,4.075682166859552,11.736074585153451,0.05975942335711832
1760515177.6815407,-24.53960768333157,-0.3855608859989286,0.7192278308418869,0.24186915339916337,5.096101091068493,16.974726321784953,1.297674912642598
1760515177.6915123,-24.603633087843303,-0.3865760536200018,0.7200950401024523,0.24907605501084934,6.176066887978399,22.504399589315724,2.6352955137505085
1760515177.7015362,-24.6331695166234,-0.39380785275222724,0.7222418771504403,0.2530049394463571,7.3265211417527585,28.179454815373106,4.121617249048988
1760515177.7115278,-24.629052495154802,-0.4078576084968974,0.725808146130819,0.2532818669938695,8.556072615935756,33.828286789895934,5.778013226565458
1760515177.72187,-24.59299507539683,-0.4284167272323253,0.7307311997390775,0.2496293132881956,9.871938974032435,39.26478730281303,7.59557407865549
1760515177.7316737,-24.52749356298368,-0.45424073158235967,0.7367127949822849,0.24182719307457373,11.279660020468555,44.300578693645775,9.536123076141783
1760515177.7415397,-24.435699539860465,-0.48324649145971493,0.743243185232469,0.22968599025932138,12.7823647115688,48.75681535266663,11.537001099180207
1760515177.7515626,-24.321256572975447,-0.5127429244291091,0.7496842503820649,0.21304373993639983,14.380914589589494,52.4746236073221,13.51923815144795
1760515177.7615662,-24.188105567954512,-0.5397891705018668,0.7554016266823849,0.1917892859588717,16.0761724238041,55.32366127820165,15.398284893058625
1760515177.771526,-24.040270577308394,-0.5616494693126347,0.7599233130414861,0.16590434821912564,17.873901916736497,57.20880609448632,17.096118114998564
1760515177.781521,-23.881642029644418,-0.5762788434816792,0.7630936812543625,0.13551267992085322,19.79162025584458,58.07537489081574,18.553254819771333
1760515177.791512,-23.715770734585448,-0.5827355676846383,0.7651916996498426,0.10092974371524925,21.86553847645441,57.91312773707522,19.739008174488887
1760515177.8017714,-23.545673622490938,-0.581398381407737,0.766989372383517,0.06271682046078761,24.15498985623434,56.75852528808782,20.658286477017466
1760515177.811524,-23.373640237055746,-0.5738953362555682,0.7697366429369015,0.02174777900219381,26.74173236413491,54.693825904353034,21.353532228092792
1760515177.8215256,-23.201028815743122,-0.5627317805622607,0.7750702152345734,-0.02071366051383592,29.722245687777495,51.841406092337124,21.901076748225435
1760515177.8315241,-23.028055561908566,-0.5507044233141307,0.7848538344526397,-0.06294814005862544,33.192481490282624,48.3524515119951,22.40209923183711
1760515177.8415308,-22.85360317083721,-0.5402543933290418,0.8009624944280296,-0.10276251721060117,37.2262100386539,44.39058971880976,22.969280965872105
1760515177.8515136,-22.675093790758517,-0.5329168137611628,0.8250233977913816,-0.1375555037878108,41.84980556041617,40.112642920245825,23.71093196448447
1760515177.8616316,-22.488480096518614,-0.5289826238994232,0.8581302228828808,-0.16449280496478877,47.01767004541718,35.650026226466565,24.71472035740059
1760515177.8715384,-22.28840402551018,-0.5274303127981523,0.9005596585996001,-0.1808021710839942,52.593200344095195,31.094947697530305,26.03313007742371
1760515177.8817291,-22.068556848783,-0.5261281777876224,0.9515346136359815,-0.18417721748125326,58.34007954701647,26.495162564461083,27.672495231235942
1760515177.8916373,-21.822248382262973,-0.5222564820023015,1.0090858300756058,-0.1732474857697913,63.927715436651425,21.8596356107585,29.587049088396153
1760515177.9015422,-21.54315958064164,-0.5128572278985511,1.07005725338167,-0.14803530847775073,68.95294813610089,17.175376623501776,31.678966041732576
1760515177.9115548,-21.22621587468285,-0.49539835255002923,1.1302838388311909,-0.11029315390518273,72.97778988007026,12.43325621810411,33.80486924795362
1760515177.9215696,-20.868486058683953,-0.4682526374353123,1.1849488424308106,-0.0636155767123694,75.58005746055511,7.658077701721062,35.78870179811942
1760515177.9315698,-20.469991549639364,-0.4310347418186234,1.2291002827726187,-0.013251632616457473,76.41066398986055,2.935973596095961,37.44018379352733
1760515177.9415607,-20.034307065702006,-0.38478094520106193,1.2582704973332504,0.03440428953470019,75.24876640578357,-1.5690193558391559,38.577261940794315
1760515177.9515448,-19.568843471469975,-0.3319653475272104,1.2691063258172885,0.07260340460598563,72.04484171213169,-5.616620686484042,39.050056392744615
1760515177.961829,-19.084722164472787,-0.2763298988720905,1.2598976520710674,0.09520825416090031,66.9428325648514,-8.914181144344472,38.763085430574975
1760515177.9716094,-18.59617735699066,-0.2224995629117624,1.230900831895343,0.09766734508981127,60.275856765174154,-11.160966212419515,37.69236897233443
1760515177.9817095,-18.119461748925545,-0.17538344343791537,1.1843907048844293,0.07780942837101625,52.53480921435747,-12.10473940549527,35.89456888452678
1760515177.991756,-17.671287424262292,-0.13942291866590517,1.1244296797333504,0.036296468636676814,44.31413786562496,-11.598148232488436,33.50648384198496
1760515178.0015519,-17.266911528298316,-0.1178155754397561,1.0563960707733255,-0.023358280539441514,36.242959211613595,-9.641591440199687,30.73459777984784
1760515178.0115042,-16.918075070617615,-0.11188974869956182,0.9863495752212976,-0.09522040928373543,28.91188074827105,-6.402184661377161,27.835580245157104
1760515178.0216734,-16.631108139455595,-0.12079916269023631,0.9203260789856644,-0.17174964265598194,22.806286862092882,-2.204078857482261,25.08949885972186
1760515178.0315404,-16.405585951488455,-0.14163699689215098,0.863654422139554,-0.2448711967304775,18.25554529188293,2.5081065016164272,22.768212591059342
1760515178.0416145,-16.233900556682034,-0.16995428396225526,0.8203813992365415,-0.30712609793673723,15.404832863041259,7.22551192382468,21.102229723058663
1760515178.051538,-16.101965774003613,-0.20055625433083946,0.7928787778001405,-0.3527060413052567,14.212429899127851,11.440520206848344,20.250196625066057
1760515178.0616071,-15.991021893646003,-0.22838557525051922,0.7816837529571925,-0.37820092226025614,14.471079397521597,14.7104023075691,20.275710229260174
1760515178.0717745,-15.880237252213538,-0.2493000611739098,0.7855896439837684,-0.382945794207468,15.848295214630909,16.70941839669907,21.135786437925677
1760515178.0816107,-15.749615917784775,-0.26060384979672196,0.8019612999239928,-0.3689323120327608,17.938115939014736,17.262468376462376,22.683808781321584
1760515178.0917492,-15.582673706187387,-0.26126953434103994,0.8272111123542191,-0.3403286997140042,20.316017284632984,16.356919353420892,24.687351420838098
1760515178.101849,-15.368435141165744,-0.2518659757797261,0.8573486010551842,-0.30271754292676634,22.589334966279605,14.132832321366458,26.858527230576783
1760515178.1115663,-15.102481482112701,-0.23426053363088362,0.888514301102656,-0.26220133490088393,24.437213921638886,10.854924510723777,28.892165334275752
1760515178.1215577,-14.786979231628745,-0.21118498332005,0.9174239477923812,-0.22453345395899968,25.63635533048931,6.8718497299861925,30.505750585599046
1760515178.1315541,-14.429786952763509,-0.18574577384531635,0.941674279228165,-0.1944070356472628,26.071272785935122,2.5695374022992685,31.474953178945096
1760515178.1415482,-14.042852043403945,-0.16093936248232665,0.959889719774885,-0.174987127505416,25.730020808886014,-1.6745927069866782,31.65965711088685
1760515178.1517575,-13.640174332362083,-0.13922300598553713,0.9717138209221389,-0.16771842383703908,24.688127106033523,-5.5305636430864995,31.017272466348906
1760515178.1616316,-13.235648568278496,-0.12219614585592083,0.9776670485821528,-0.17239351695547298,23.08459601053012,-8.743533841183055,29.602307630727065
1760515178.171527,-12.841109413148702,-0.11044932525197086,0.9789039527191131,-0.18743036998741539,21.094361247901997,-11.148032629476921,27.55328532645062
1760515178.1815736,-12.464874845369156,-0.10361285556295013,0.9769116571528672,-0.21028473317717825,18.901512373865682,-12.668981960006995,25.069838803536165
1760515178.1915371,-12.110996891379493,-0.10058580530786089,0.9731992338211664,-0.23791490951698152,16.67700031349643,-13.311978080390627,22.384029202045724
1760515178.201531,-11.779286678511246,-0.09987426386768915,0.969029748907831,-0.26722315594799323,14.56332052132965,-13.146700927312454,19.73041825563244
1760515178.2115932,-11.466022638702048,-0.09994531083425119,0.9652387489058254,-0.2954177000460734,12.667020451508867,-12.287540370936,17.319126962712403
1760515178.2216723,-11.165127702831253,-0.09951675794365981,0.9621649517940334,-0.32026551303452894,11.058172303745996,-10.8747714644929,15.315120088129632
1760515178.2315464,-10.869545415254887,-0.09773765709953745,0.9596955732584459,-0.34023077761556497,9.774660349361032,-9.058417973844318,13.825577476192034
1760515178.2415755,-10.572556067694647,-0.09425079787051213,0.957405001198828,-0.35451178242052134,8.828574616095672,-6.9857912231099215,12.895783887030952
1760515178.2515543,-10.268831588698314,-0.08915425421976593,0.9547456591854196,-0.3629974434346593,8.2122853475359,-4.792802557323877,12.512740444839713
1760515178.2616863,-9.955108104256592,-0.08289272892006529,0.9512390929809296,-0.36616492570544784,7.902798163499841,-2.598572705967559,12.614811393505077
1760515178.27177,-9.630440214382338,-0.07611415099605488,0.9466194576614404,-0.3649368012335591,7.864387766397868,-0.5025885106546697,13.105217224773408
1760515178.281548,-9.296078560398229,-0.06952533967023988,0.940901695141103,-0.3605153739768318,8.050613855698288,1.4163446797872525,13.867062563505725
1760515178.2916615,-8.955069125277584,-0.06377286426423158,0.9343735679325195,-0.354213926453186,8.407022640856395,3.0999031064500797,14.77781057678699
1760515178.3016639,-8.611697709792347,-0.05936277363161913,0.9275304515993246,-0.34730524843358546,8.875125416711773,4.509073381098131,15.721612338515019
1760515178.3116312,-8.270895819799643,-0.056620352313118356,0.920978367983415,-0.34090333361577113,9.397273280721258,5.622125100282459,16.59853879256489
1760515178.321528,-7.937696201389342,-0.05568309418926714,0.9153285670898701,-0.33588591728051914,9.921483561818171,6.431884370273757,17.33038817885138
1760515178.3315349,-7.616791288945792,-0.05651715306573487,0.9111020944776789,-0.33285746185701115,10.405282093535524,6.94263830512324,17.863237403581557
1760515178.3415434,-7.312214772934049,-0.058947298987699646,0.9086575368027928,-0.33214671038006766,10.817976232595747,7.167152633773157,18.167229596885413
1760515178.3515606,-7.027139592267028,-0.06269118431729771,0.908149867449234,-0.33383026094637186,11.14119744061564,7.124313960874521,18.234253622806754
1760515178.361599,-6.763768727982285,-0.06739100450324957,0.9095230348180366,-0.33777336322384527,11.367895311165956,6.837795327465922,18.074208083660533
1760515178.3715804,-6.5232936255624026,-0.07264081849801218,0.9125333738408506,-0.343680747446796,11.500174210046502,6.335901191993974,17.710492704350884
1760515178.3816197,-6.3059097870907825,-0.07801423477647985,0.9167956417866365,-0.3511523849135128,11.546447703485265,5.652400921258426,17.175277617174153
1760515178.3917108,-6.110898194163941,-0.08309910221992182,0.9218404724532628,-0.35974001528566124,11.518378347164965,4.827793952757526,16.505003531698012
1760515178.401554,-5.936786445913449,-0.0875400102969318,0.9271725788969958,-0.3689998129605614,11.428003107762752,3.910220878211333,15.736477504589393
1760515178.4115677,-5.781588215743891,-0.09108067360283194,0.9323218798490959,-0.378536013226702,11.285344475041242,2.9552617664372502,14.903838020939197
1760515178.4215963,-5.643094650305266,-0.09359425702523308,0.936882679763447,-0.3880310829286715,11.096700239667713,2.0241314200402503,14.036552344461509
1760515178.4315708,-5.519172244437868,-0.09509249812219782,0.9405382148081697,-0.39726025178490937,10.863708793833325,1.1801847203480142,13.158480432684694
1760515178.4415476,-5.408016976055648,-0.09571102037669044,0.9430697925938241,-0.40609075743724476,10.583205697160103,0.4840686557903842,12.287911989235845
1760515178.4515522,-5.308324119712458,-0.09567488490660543,0.9443520021269145,-0.4144678970414508,10.247819624041398,-0.011805829567783642,11.43837305241819
1760515178.4615724,-5.219352222244784,-0.09525293287581439,0.9443378596383207,-0.4223911389578334,9.847200955399044,-0.26863058021690983,10.619915097198785
1760515178.4715936,-5.1408820258046575,-0.09471111059198525,0.9430394694924873,-0.42988499182145556,9.369731937102438,-0.2655728147713013,9.840553582975526
1760515178.4815855,-5.0730921677288245,-0.09427441918649818,0.940510082116566,-0.4369708451920341,8.804531445650111,-0.0024554318858176776,9.107524701666685
1760515178.4917133,-5.01639038820204,-0.09410516099062262,0.9368319184898064,-0.4436460631718505,8.143543317179441,0.4997411177876113,8.428082061662199
1760515178.5015879,-4.971248377367696,-0.09430169261565721,0.9321109585649074,-0.4498741361798967,7.383490791245378,1.200777704923927,7.8096587761565335
1760515178.5116968,-4.938086356015168,-0.09491688741994343,0.9264765477283854,-0.4555856075177442,6.527493664187186,2.04538795014371,7.259370385735472
1760515178.5217113,-4.917238457815231,-0.09599012867615798,0.9200825112509804,-0.46068615994068574,5.586178925801846,2.9694824261828154,6.783005919236293
1760515178.5316074,-4.9090056878365305,-0.09758300267392384,0.9131082315913107,-0.4650673256438601,4.5781655647260395,3.907685561927222,6.383797385577941
1760515178.5415711,-4.913777751126551,-0.09980836849804577,0.9057607535272191,-0.46861649033785346,3.5298588179053185,4.801308269331199,6.0613196416304005
1760515178.5515583,-4.932186041823147,-0.1028446721497322,0.8982796008321956,-0.4712247894084257,2.4745352736113606,5.60566594093904,5.810833779289227
1760515178.561554,-4.965240368625279,-0.10693035093826178,0.8909438164537702,-0.47279295552572564,1.4507313632110383,6.295591848093505,5.623268156555952
1760515178.5715714,-5.014399724726748,-0.11233549739400957,0.8840775150277201,-0.47323578523912274,0.49997019035665596,6.868130276836333,5.485870818537001
1760515178.5815673,-5.081530623104899,-0.11931007827002744,0.878048572867541,-0.4724859823710935,-0.3361087704904168,7.341729894901468,5.383406832257874
1760515178.5915616,-5.168716969626044,-0.12801169108663257,0.8732564041852149,-0.4704981900341024,-1.0191082999049448,7.751753616078317,5.29965250437162
1760515178.6015418,-5.277907265370502,-0.13842190127272533,0.8701083481516555,-0.4672539758329372,-1.517563065702748,8.142708983786047,5.218883143868897
1760515178.61181,-5.410418984255036,-0.1502669091254817,0.8689877548129469,-0.46276793984234643,-1.8107607198552034,8.558196208222117,5.127070619369507
1760515178.6215494,-5.56636001548886,-0.16296235344644364,0.8702183441931217,-0.4570939890581906,-1.8924530059338838,9.030066708476825,5.0125903393894005
1760515178.63167,-5.7440622626818,-0.1756012801121442,0.8740284514068348,-0.45032991931242217,-1.774161625120369,9.568584202605802,4.866358941452389
1760515178.6415813,-5.939642985411819,-0.18699877065448475,0.8805167160747599,-0.4426186628986775,-1.4877181395115375,10.155407944990715,4.6814529129297515
1760515178.651603,-6.146808542602851,-0.1957975060645232,0.8896194525077505,-0.4341461069632847,-1.0866178993513702,10.740935054501682,4.452368974725466
1760515178.6616354,-6.356989379865722,-0.2006269491086438,0.901080532178489,-0.42513738083113534,-0.6457426445678222,11.24695588914566,4.174165500615514
1760515178.6715534,-6.559846647337163,-0.2002972795759026,0.914427301935364,-0.4158545152898696,-0.2590419246727543,11.574756660389605,3.841764155745119
1760515178.6815798,-6.74412932467737,-0.1940007377812455,0.9289598325597823,-0.4065975358404079,-0.0348799223011896,11.617856736081617,3.4496851797921666
1760515178.6917207,-6.8987990194339535,-0.18148911970207898,0.9437635773591831,-0.39770856908812324,-0.08896312034025275,11.277640453993797,2.9924299324541366
1760515178.701769,-7.014287870371515,-0.1631962966027422,0.9577553531558395,-0.3895750796328029,-0.5350619990436294,10.479406002719852,2.4656071760082607
1760515178.7115548,-7.08371882920311,-0.14027795718619368,0.969768936187958,-0.3826243732178057,-1.474095595513154,9.1859808677569,1.8677309532945694
1760515178.721602,-7.10390054566003,-0.11454768136384905,0.978680399286032,-0.3772978709733151,-2.982496042198556,7.406193099098209,1.2024128273651342
1760515178.7315874,-7.0759168199714155,-0.08830078384892104,0.98356514587973,-0.37399317747664795,-5.101031142841894,5.196230532410569,0.4804572101514804
1760515178.741613,-7.005172267656099,-0.06403673848393523,0.9838675721825703,-0.37296884710505673,-7.825395464453491,2.653239124456904,-0.27880474808390515
1760515178.7516437,-6.900837285616553,-0.04411541353317941,0.9795508797132437,-0.3742222946953917,-11.099916690183326,-0.09780122947536113,-1.047664127287972
1760515178.7615929,-6.774747379849633,-0.03040428118296355,0.9711847807720162,-0.37736972561059573,-14.81570676087377,-2.9212302797990652,-1.7922470938549289
1760515178.7717452,-6.6399269115094475,-0.02398356457292264,0.9599327814752523,-0.3815677899286079,-18.814457468834323,-5.688110456681456,-2.476997792055212
1760515178.7816987,-6.508991549081506,-0.024968814870812983,0.9474236119802992,-0.385512919865471,-22.898678961730013,-8.29008618150692,-3.071083590152876
1760515178.7915974,-6.392712792666326,-0.03248782181939137,0.9355260393467432,-0.3875377692348977,-26.848393344247793,-10.64712630820038,-3.5557905413109623
1760515178.8016202,-6.298993003538051,-0.044817345531325936,0.9260762499949733,-0.3858017655140007,-30.44318470343595,-12.708591880991078,-3.9315435028612473
1760515178.8116343,-6.232407333570021,-0.059652509664757,0.9206181519696649,-0.3785502514949405,-33.48730766267217,-14.449030455213151,-4.223045721997342
1760515178.8215516,-6.194343903788802,-0.07445670260979813,0.9202072204384267,-0.3643980129140098,-35.83459587794942,-15.861272550199294,-4.481247411599229
1760515178.8316097,-6.183651534757191,-0.08682944482724075,0.9253062873443915,-0.3425826171123371,-37.409501778110695,-16.949549491146776,-4.781389159513266
1760515178.8415859,-6.19761685556,-0.09483409423812304,0.9357771013109863,-0.31313481133021565,-38.22090952379964,-17.724641036262778,-5.217107750288573
1760515178.851564,-6.233054880640976,-0.09724256831263976,0.9509516109487085,-0.27692855498798524,-38.366324447635215,-18.201868322486135,-5.891362608667181
1760515178.8616042,-6.287309700597519,-0.09367722591980976,0.9697561719072189,-0.2355999728265302,-38.025398636594325,-18.401498002604058,-6.905541363641427
1760515178.8717067,-6.359015099611711,-0.0846548067232512,0.9908611708895054,-0.19135548353006407,-37.44322790528512,-18.35021063081834,-8.348372848396444
1760515178.881797,-6.4485391922048825,-0.07155288176024924,1.0128341140638784,-0.14671334155150273,-36.90523414637695,-18.081975534365046,-10.286164737501005
1760515178.8919148,-6.5581078991602215,-0.056518010739338286,1.0342804154429697,-0.10423107098291312,-36.7065501403124,-17.637019726210948,-12.75547371407011
1760515178.9018402,-6.691650712292554,-0.04232118632950996,1.0539598503861802,-0.06626331088105225,-37.11951182153856,-17.05840750780245,-15.758770751467566
1760515178.9116507,-6.8544341339707096,-0.032152908012706184,1.0708687264971897,-0.034776763287494544,-38.36306729707529,-16.386738701107536,-19.263141418669615
1760515178.9216094,-7.052550156155294,-0.02934758270392861,1.084280884318748,-0.011228979540689887,-40.57763307968857,-15.65429959650431,-23.201671505682995
1760515178.9315693,-7.292319338185531,-0.03703719175711454,1.0937460439850937,0.0034982567822459407,-43.80822214027975,-14.880442541874688,-27.476980259247163
1760515178.9415843,-7.579658936555498,-0.057753688091328456,1.0990510038642902,0.00912818688304233,-47.99764706045047,-14.069935780581732,-31.966410514858644
1760515178.9515588,-7.919461408984094,-0.09302199183767808,1.1001561320761994,0.005996891139579918,-52.9904087515511,-13.215511688931011,-36.52861976431844
1760515178.9615715,-8.31502868223342,-0.14300328082821762,1.097124818061985,-0.004953067121760196,-58.54666118641957,-12.304903159058442,-41.01156688098904
1760515178.9716134,-8.767609965972605,-0.2062556691930341,1.0900656356299079,-0.02219780313493119,-64.36452889483526,-11.33141437808506,-45.26192883378185
1760515178.9816372,-9.276090718160079,-0.27967459523294247,1.0791051469219584,-0.043691991636112634,-70.1081362519369,-10.305756630289407,-49.135682316354725
1760515178.9916275,-9.836873571090786,-0.35865926671768994,1.0644032706755464,-0.06698588847317308,-75.43802372105381,-9.26586601407538,-52.50902031987854
1760515179.0016751,-10.443977020604775,-0.43752416129056404,1.046212212670089,-0.08941743840189229,-80.04027307331478,-8.281153467299061,-55.288202727890514
1760515179.0116546,-11.08935546047737,-0.5101337817180887,1.02496328026217,-0.1083767658530908,-83.65084866534848,-7.448482339700526,-57.416684540284955
1760515179.0216806,-11.763417494133591,-0.5706849528696275,1.001346741002993,-0.1216075623684255,-86.07252056421352,-6.879247258679464,-58.878137040688244
1760515179.0316253,-12.455691924222823,-0.6145050487919478,0.976340448795723,-0.12748267610181632,-87.1831454237964,-6.679883348295399,-59.694748173359784
1760515179.0415936,-13.155566755254721,-0.6387038120922737,0.9511571494149872,-0.12519055746563618,-86.93569404292407,-6.930859323311407,-59.921166343140705
1760515179.0515666,-13.8530117506033,-0.6425387201902966,0.9271144027185884,-0.11479753698448211,-85.35179588404495,-7.670175314753773,-59.63523072865513
1760515179.0616148,-14.539195129483964,-0.6274265956278995,0.9054609450594479,-0.09718634480133281,-82.51133792311039,-8.885857930704834,-58.926977967042895
1760515179.0715852,-15.206921270413531,-0.5966204438066613,0.8872013516653323,-0.07389241965066985,-78.54060196016718,-10.518768192424194,-57.88740616715682
