timestamp,angle,linear_acceleration_x,linear_acceleration_y,linear_acceleration_z,angular_velocity_x,angular_velocity_y,angular_velocity_z
1760596359.5561037,4.90648573796206,-0.1428189309027161,0.8162908073558703,-0.04782155795290553,26.596120247316577,32.50799626847985,-43.73371298929954
1760596359.56622,4.351180198587511,-0.1734680531203872,0.8039969875540461,-0.08119101360483028,28.372666233484175,29.765539383038227,-45.8722046008713
1760596359.5758886,3.773583426789119,-0.19479142428759091,0.8033865178650779,-0.11041024077498313,30.586415953515207,25.81625400637779,-48.21838004361476
1760596359.5858798,3.178028190963191,-0.20842848146385737,0.8134858899707642,-0.13304233942792665,32.932251482678424,21.28034540117231,-50.55506801881505
1760596359.595884,2.570390267005144,-0.2159446477424409,0.8327385331386398,-0.14745735941504715,35.077963204471665,16.742524563219607,-52.65236547034331
1760596359.6058586,1.9579349007280302,-0.2184756121187749,0.8590996801805414,-0.1531333429563309,36.707438581572085,12.684194209143106,-54.28899077364458
1760596359.6159153,1.3489972720593995,-0.2166055087043159,0.8901646210979063,-0.1507520036649306,37.56124552997877,9.439154848294374,-55.273001849155165
1760596359.6258655,0.7524681199606322,-0.21047864682163595,0.9233414508978308,-0.1420558540884223,37.46905237784226,7.176738956247962,-55.460309557410824
1760596359.6358938,0.17710215063639764,-0.20008624663269078,0.9560656253028277,-0.1294977575118378,36.369223784795814,5.910935935767024,-54.769110258520044
1760596359.6459167,-0.3692762451731873,-0.18562118217609402,0.9860344273737254,-0.11577322129969037,34.31278111553487,5.529335252225926,-53.188335327374155
1760596359.6558838,-0.8805414170443104,-0.1677642866295481,1.0114214261535104,-0.10335376752479891,31.45158025230585,5.832700427469744,-50.778701212057285
1760596359.6660604,-1.3528470821337293,-0.14777963854472248,1.0310261638087943,-0.09412568008301753,28.01338172886912,6.5755852518143865,-47.66586766333385
1760596359.6758785,-1.7848640743151898,-0.1273669211543771,1.0443277228753864,-0.08919474284547227,24.268595034986138,7.50073147661276,-44.026373143050755
1760596359.6859193,-2.177578954994873,-0.10831835563275796,1.0514351164649631,-0.08886743694621654,20.494369710418418,8.364055496550233,-40.06822466701284
1760596359.6958861,-2.533661848214616,-0.09210342873626445,1.0529527723778835,-0.09277885279149643,16.941457934972185,8.951119770197277,-36.00900136906177
1760596359.7058523,-2.8565358353849524,-0.07952581532724659,1.0497995804801523,-0.10011223201455084,13.808222603615098,9.088480484745626,-32.05472956677324
1760596359.7158546,-3.149381644627275,-0.07056573509322896,1.043028242797695,-0.10984517125703933,11.224612151911971,8.653427286587405,-28.382419848006965
1760596359.7258792,-3.414346834608877,-0.06445414424339527,1.0336827767742478,-0.12096373006992919,9.247143570384255,7.583728255630293,-25.128190640764117
1760596359.7358532,-3.6521774359504398,-0.05994723280763982,1.0227109048396859,-0.13260593294033027,7.864217004118403,5.8862777725000175,-22.3817016527818
1760596359.7458463,-3.8623693425763603,-0.0557105195746822,1.0109275889050253,-0.14412273076834256,7.009670652340743,3.641442127198674,-20.186505387189435
1760596359.7558558,-4.043790169342213,-0.05069986727800573,0.9990150148282447,-0.15506689869464532,6.581533156541978,0.9994039320367828,-18.545095724419077
1760596359.7658494,-4.195594603827711,-0.04443988668754393,0.9875423738996919,-0.1651323031611082,6.462535943845175,-1.8338643096667064,-17.426992061253962
1760596359.7758827,-4.318179995078162,-0.03713608814888861,0.9769909313017877,-0.17406841208760518,6.539134392125659,-4.620813278292007,-16.77815877239369
1760596359.7858863,-4.413921520860306,-0.02960344460922262,0.9677730116759086,-0.18159248915657103,6.716484459268432,-7.123827120981934,-16.530339426880936
1760596359.7958424,-4.487486664580496,-0.02303908030322038,0.9602374055592418,-0.18731836184269277,6.927857776304449,-9.139241224675317,-16.609327732639205
1760596359.8058891,-4.5456357990293,-0.018699777452481338,0.9546585477117467,-0.19071702255101416,7.138110408810865,-10.528388746793006,-16.941641997985734
1760596359.8158824,-4.596536670796131,-0.01755984481516877,0.951211846131822,-0.1911197464123061,7.341807966278549,-11.240602025784959,-17.459415671201143
1760596359.825858,-4.648725194085081,-0.020022382016395956,0.9499415657598457,-0.18776811772721078,7.557283596833352,-11.324275180706618,-18.10353767228882
1760596359.8359792,-4.709914232949451,-0.02574194150216004,0.9507300783667324,-0.17990776629730656,7.818199749952955,-10.923780053106658,-18.82519957228919
1760596359.8458877,-4.785878772103684,-0.03359419640751205,0.9532779766664614,-0.1669149016894384,8.164136269394229,-10.262026916055744,-19.586074347677812
1760596359.8558896,-4.879631323966632,-0.04180272196477795,0.9571035638829546,-0.14843815852163536,8.631455589999975,-9.610567115822493,-20.357391750238072
1760596359.8658574,-4.99105190586589,-0.04820771973828542,0.9615676963053164,-0.12453401668078537,9.245353188556996,-9.251069628622343,-21.11819700744667
1760596359.875848,-5.117060784432178,-0.0506386512479287,0.9659261952933653,-0.095773189704281,10.013708810018898,-9.43346872194616,-21.853080682984512
1760596359.885855,-5.252329070270138,-0.04733415887178483,0.9694077393779927,-0.06329837843894676,10.92316085287983,-10.336836879541412,-22.549645831835218
1760596359.895909,-5.390425037947072,-0.03734111683259056,0.9713111487848567,-0.028819982214336966,11.937712216636072,-12.038935665018712,-23.195943230890283
1760596359.905857,-5.525209529432891,-0.020823284361524294,0.9711126481267852,0.005456332468462746,13.000068447284589,-14.49938773768181,-23.778079478062846
1760596359.9158485,-5.65223936658171,0.0007796507444940737,0.9685706647823756,0.03697020785724064,14.035714509033347,-17.559584767794455,-24.278205972295996
1760596359.9258537,-5.769925931084063,0.02478098170876004,0.9638126396864781,0.06301074233669805,14.959404060351547,-20.960035052929005,-24.673124752634553
1760596359.9358635,-5.880230400732516,0.04747424148305121,0.9573859687324802,0.08097454571080315,15.683317353479966,-24.3732128350884,-24.933764222079652
1760596359.9458773,-5.988750705572742,0.06453894016037302,0.9502556729474627,0.08866046446030454,16.12577016440101,-27.447531307462988,-25.025731667487797
1760596359.9558854,-6.104153196832928,0.07157743068675024,0.9437371081582514,0.08457243579943685,16.21913385514604,-29.856260702518654,-24.911004670753766
1760596359.965868,-6.2370058898078256,0.0647153830169801,0.9393638552821619,0.06818585383240668,15.915609946684187,-31.344371934764144,-24.55058897930793
1760596359.9758453,-6.3981636525695595,0.04118780618401703,0.9387058782224142,0.04011734871449935,15.189754535419087,-31.766543880185626,-23.90770262574472
1760596359.98589,-6.5969288244107265,-0.00016911592167194098,0.9431633674725752,0.0021403613888308828,14.037225056143944,-31.110874352058925,-22.950835691658405
1760596359.9958851,-6.839258730219519,-0.058594807996801085,0.953760796958182,-0.042976916317616375,12.470038670249812,-29.504914957608197,-21.655981577641587
1760596360.0058668,-7.1263095143708375,-0.1313115299850363,0.9709571291517242,-0.09178224687563744,10.50943193900223,-27.20311202345164,-20.00750197216468
1760596360.015863,-7.453583927406236,-0.21370042441653098,0.9944835615106136,-0.14053052522384898,8.177950238848227,-24.557246766946527,-17.997451623068134
1760596360.0258632,-7.81087621322193,-0.29974721969950446,1.0232265567685723,-0.18557803768410336,5.492588185781911,-21.973805278278515,-15.623635938501192
1760596360.0359344,-8.183074662382893,-0.382709744068579,1.055186204412488,-0.2237175413815024,2.4606587441318895,-19.864111318604184,-12.88705627942998
1760596360.045871,-8.551710052438283,-0.45591203091615173,1.0875471541043062,-0.25241947383226404,-0.9204263733799001,-18.594169320780143,-9.789602869591182
1760596360.0558603,-8.89697349698038,-0.5135407101721975,1.1168922980476061,-0.26997278228292687,-4.659127421813308,-18.441189813402687,-6.3328188127907135
1760596360.0659223,-9.199826763030064,-0.5513184771870636,1.139565518740376,-0.27553656887561107,-8.762207907863075,-19.562617480174616,-2.5182576096825917
1760596360.0758846,-9.44382578081324,-0.5669541835145202,1.1521544719816237,-0.2691178014263676,-13.22528183610335,-21.98136840957608,1.6505449700796682
1760596360.0858815,-9.616369119466588,-0.5603111631584361,1.1520276642737206,-0.2514871493716886,-18.023664802369346,-25.588391428829915,6.164986586517919
1760596360.0958772,-9.70923198598111,-0.5332861578949512,1.1378321659523665,-0.22404264117769684,-23.105670047742773,-30.16113443574292,11.008029242914823
1760596360.1059062,-9.718405799593953,-0.489440065668599,1.1098470435579992,-0.1886327688104031,-28.389921943778205,-35.39438274446745,16.151383434709345
1760596360.1158907,-9.643394097944393,-0.4334575048278157,1.0700985784659303,-0.14735601265112092,-33.767428240453405,-40.93844169117064,21.553847408188705
1760596360.1259034,-9.486195301991204,-0.3705288288102571,1.0221792703780086,-0.10236073547146589,-39.1083490376867,-46.438935812029555,27.16110504265975
1760596360.1358638,-9.250225705925667,-0.30574610267587493,0.9707705098979427,-0.05567603224200957,-44.27272314382323,-51.572747403114604,32.907043323251784
1760596360.1458638,-8.939405503223746,-0.24358718806874202,0.9209382422089272,-0.009104294830056247,-49.12377178428357,-56.0758118150842,38.7164391392942
1760596360.155865,-8.557555285670771,-0.187535564877205,0.8773370405599503,0.03580992710594052,-53.541788456744236,-59.760344942464634,44.50862905217658
1760596360.1658604,-8.108146697039745,-0.13985675289292998,0.8435007438780281,0.07775286489806713,-57.436303810798584,-62.52109119826897,50.201544818809104
1760596360.1758773,-7.594349761452778,-0.10153225580903626,0.8213877792539755,0.11560258163982265,-60.75450156722441,-64.33183256638645,55.715355303740225
1760596360.1858814,-7.019259187742106,-0.07233922214880202,0.8112683329767864,0.14842338155986134,-63.48469341953144,-65.23442346242398,60.97495412508802
1760596360.1958647,-6.386181004485987,-0.051054358375887676,0.8119211588208369,0.175510397548821,-65.65452869902238,-65.32305096547462,65.91071148119133
1760596360.2058692,-5.698900728141311,-0.035750932321051254,0.8210217958021085,0.19646900569833803,-67.32405716310649,-64.72642634186198,70.45732043350561
1760596360.2158947,-4.961898977749084,-0.024148274941559876,0.8355932464969756,0.2112920138231181,-68.57388026848113,-63.59026424008297,74.55118158984222
1760596360.2259078,-4.180506787003253,-0.013966364434533857,0.8524330158868078,0.22039123565342655,-69.48901191084329,-62.061692710785096,78.12740317575488
1760596360.235948,-3.3609977928002706,-0.003235724967100635,0.8684784726036179,0.22455927139030685,-70.14016759001913,-60.27629290620591,81.11789684642599
1760596360.2458806,-2.5106056783218444,0.009483890206669673,0.8810967925122031,0.22487682807989537,-70.56568794167606,-58.34768713189587,83.45202540699634
1760596360.255887,-1.6374436518489237,0.025010741388939873,0.8882896960718282,0.22260658873662872,-70.75823150930533,-56.3593622368326,85.06073057156901
1760596360.26589,-0.7502993643854718,0.04358464339597533,0.8888073411738617,0.2191015211425062,-70.66000629653682,-54.35868966006856,85.88414291815354
1760596360.275879,0.1417093045627444,0.06502288471071588,0.8821798878869751,0.21572008267143594,-70.16867054352161,-52.353459168769064,85.88164016252732
1760596360.2862058,1.0296049182746916,0.08893244864503255,0.8686862874829103,0.2137212987214408,-69.15366111693126,-50.31135904340365,85.042501865464
1760596360.2959735,1.9050997161003504,0.11490613775360774,0.8492726628036128,0.21412951739803107,-67.48024900857273,-48.16274182384293,83.39490340549492
1760596360.305877,2.7611435412575234,0.14263698484079762,0.8254159251601655,0.21759464293264352,-65.03668708290179,-45.80687176081657,81.01104267181448
1760596360.3159165,3.5923736811664306,0.171914855476972,0.7989259048387958,0.22429369800831206,-61.75888128676002,-43.121683459417405,78.00669224226013
1760596360.3259199,4.395376532469349,0.20251341787215285,0.7716995055411594,0.23390942423916644,-57.6473137449285,-39.976755903847064,74.53439928473038
1760596360.3358965,5.168702963159324,0.234019399168156,0.7454670498919871,0.24569563708008638,-52.77249033509998,-36.24858660628765,70.77082181787875
1760596360.345873,5.912629877700725,0.2656817194014733,0.7215831231626721,0.25861430368001026,-47.26773479443744,-31.836444610901168,66.90004045704
1760596360.3558617,6.628716416764084,0.29635460778799716,0.7009042418101433,0.2715117450977304,-41.31105465791596,-26.676515281524615,63.09570197542241
1760596360.3658679,7.31924836793556,0.32457788820793415,0.6837707300776699,0.28329385740195107,-35.10015836184088,-20.752170807689772,59.505128745374904
1760596360.3759243,7.986685649317203,0.3487920230114822,0.6700832655912827,0.2930671648670224,-28.82583599880796,-14.099056131349942,56.237936702582395
1760596360.3858738,8.633219326835572,0.3676408045116212,0.6594451275719768,0.30023242680245,-22.648696033337373,-6.804840724176496,53.360477634992556
1760596360.395909,9.260508766329213,0.38028281946804937,0.6513326508717427,0.3045380061146893,-16.6830287703235,0.9956030021813463,50.896010815449316
1760596360.4058697,9.869615026796717,0.38662150446542687,0.6452585184241205,0.3061061925648456,-10.989914475690556,9.128440226265484,48.829373822586284
1760596360.4160748,10.461087869726379,0.3873773656566616,0.6409019230000732,0.30543513593583704,-5.5800543550530595,17.39140220520198,47.114352464570075
1760596360.4258935,11.035120182292527,0.38396584193845484,0.638189381706193,0.3033665039440498,-0.42533167999547705,25.56566789635938,45.6819850653833
1760596360.4358606,11.591673717437743,0.3782018899296147,0.6373151343556005,0.3010089478682687,4.523173240762433,33.42832819362917,44.44853701198192
1760596360.4458795,12.130508897729639,0.3719063726508297,0.6386946405303957,0.2996187709835808,9.314037318786815,40.764658118090615,43.32262486500857
1760596360.455877,12.651104178167106,0.3665168717631752,0.6428567705276736,0.3004507155304697,13.975256891839097,47.37921304186445,42.21166266914819
1760596360.465981,13.152502350122687,0.36279843627625946,0.6502981735440437,0.3045973449301379,18.499128113412265,53.10452320919623,41.028127773035905
1760596360.4759226,13.633153383293102,0.36071644311826484,0.6613341661000988,0.31283768734099066,22.835690168839765,57.8062343245589,39.69594750707643
1760596360.485992,14.090829833300425,0.3594890233238585,0.6759755808194058,0.32551931620562785,26.896252581736864,61.38413064226258,38.156768404774695
1760596360.4959283,14.522674983963498,0.35779438790278056,0.6938467963949937,0.34250019076333355,30.56594460257934,63.769369771053555,36.3753658380465
1760596360.5059347,14.925413509403894,0.35408003891871365,0.7141506062348905,0.3631653135937323,33.722073167433074,64.91901367653459,34.343253810300766
1760596360.5159118,15.295718116522533,0.34691140448018304,0.735686131753775,0.3865041185323753,36.25417755740678,64.80929060157533,32.07968023807998
1760596360.5258987,15.630690772907945,0.33530276121421626,0.7569289220918533,0.41120687988371474,38.08203335410767,63.42902762328362,29.629520626664707
1760596360.5358818,15.928388989895469,0.31898438521593364,0.7761777272637819,0.4357385937950025,39.16898943300016,60.774555488300656,27.057996695952667
1760596360.5458922,16.188309878144686,0.2985714627188269,0.7917595974690608,0.45837794334229454,39.529405411616914,56.84723431982112,24.44258289478038
1760596360.555888,16.411740555061797,0.27561290841780506,0.8022713965635638,0.4772427398382207,39.230188742450956,51.65461656118409,21.8628918800008
1760596360.5659304,16.601895347526593,0.25251326726740675,0.8068272728163611,0.4903388232134478,38.38721610390809,45.21613990835506,19.389703209074778
1760596360.5758853,16.763787394095512,0.23233657525331877,0.8052783556692019,0.49566184199221436,37.15769769788995,37.57401650928579,17.074520079867334
1760596360.5858889,16.903819741191352,0.2185134008073609,0.7983717814297084,0.4913600126273507,35.7295081757162,28.809468405850215,14.941002256059791
1760596360.5958896,17.029121799175034,0.21447906011298126,0.7878207489643461,0.4759446985528016,34.30842422141365,19.063569693962535,12.979326012297737
1760596360.6058898,17.146694967821183,0.22327354590715706,0.7762644912540714,0.4485220358494768,33.104173739432575,8.560773333343693,11.144099421601455
1760596360.61589,17.262462034583876,0.24713455013983826,0.7671049058254122,0.409010389118967,32.31616829685792,-2.3681421363056003,9.356081556988357
1760596360.6260085,17.380335525972754,0.28711575953260593,0.7642147457095911,0.3583011538272207,32.11969911321228,-13.268300328919175,7.507679677116972
1760596360.6359134,17.501426976674814,0.34276327956744385,0.7715229444457483,0.29831767932108594,32.65320478719889,-23.553730548913013,5.471956731728491
1760596360.645913,17.623505260199444,0.4118806793829884,0.7924986549495685,0.23193642386145724,34.007002393390096,-32.51699163542476,3.11455125561612
1760596360.6558805,17.74077137061331,0.49040575185741664,0.8295764486746182,0.16275850016801158,36.2137626671376,-39.36033491286345,0.30742957204586785
1760596360.6658857,17.843956443212537,0.5724158928244765,0.8835862658783503,0.0947527469917041,39.24120703529119,-43.25107351493336,-3.0571801145676605
1760596360.675882,17.920694571691797,0.6502847534229097,0.9532690168664645,0.031822787439983485,42.98803152421949,-43.400399917114484,-7.0547497236862755
1760596360.6858895,17.956098401832094,0.7150300276679785,1.034972017928838,-0.022629895252411863,47.284625953402916,-39.16066145224839,-11.720315199612362
1760596360.6959043,17.933479814004816,0.7569030379265385,1.1226274884384864,-0.06607351350616678,51.9003133546938,-30.131600694997232,-17.04540845765632
1760596360.7058964,17.835194525371183,0.7662530690135266,1.2081135704926278,-0.09708902077004596,56.55829939766622,-16.262030513914585,-22.979746614307857
1760596360.7158978,17.64362434472279,0.7346454484083299,1.2820620391138595,-0.1154649918005412,60.95832223801283,2.0692539811435675,-29.4358762688082
1760596360.7259502,17.342325691173652,0.6561365631507547,1.335094989898785,-0.12215175218596731,64.80538410697191,24.009951443347962,-36.29422235329737
1760596360.735877,16.917359779908562,0.528537654021968,1.359352413104196,-0.11910007833007062,67.84126202998802,48.2424264807947,-43.406334609259154
1760596360.745876,16.35877886347804,0.3544527183095557,1.3500465829412855,-0.10901369379509229,69.87413250742738,73.0528616911579,-50.595341730912025
1760596360.7558684,15.66217993381006,0.14186352169400143,1.3066891028635772,-0.0950444880067843,70.80106822778764,96.4632603269565,-57.6542226353028
1760596360.7658756,14.830163580395787,-0.09593791515123551,1.2336241733190052,-0.0804616829611846,70.61877119156715,116.41870316140525,-64.34401912787787
1760596360.7758749,13.873468057034318,-0.3411976900542892,1.1396087804833597,-0.06832683388000925,69.41983080159301,131.01148175448805,-70.39520179299491
1760596360.7858808,12.811508582497071,-0.5733427572742444,1.0364195609646372,-0.06119940473600575,67.37473403525375,138.71360317931106,-75.51580265353165
1760596360.7958775,11.672064111740449,-0.7712811971235002,0.9367720374779749,-0.060888538417168986,64.70296778935239,138.5828878432525,-79.40930468458336
1760596360.8058789,10.489937610811358,-0.9160624697425981,0.8520742412726905,-0.06826841504957587,61.63876816204199,130.4083400492873,-81.80323094619943
1760596360.8158877,9.304569050257468,-0.9934809724899265,0.7905834101674064,-0.08318608738299424,58.39777547874066,114.76833487276404,-82.4859846350901
1760596360.8258722,8.156771645760648,-0.9961838474467191,0.7563751843653693,-0.1044932454430804,55.15021239146399,92.98858875763545,-81.34579504653492
1760596360.8359299,7.084944803352363,-0.9249245066355429,0.7492577281103912,-0.13021423752523253,52.00473984979187,67.00271467566054,-78.40317695321384
1760596360.845872,6.12125003069773,-0.7887353268862116,0.7654913022182133,-0.1578308507344734,49.0052280566725,39.13329482992016,-73.82817954892336
1760596360.8558826,5.288290066120461,-0.603933111327678,0.7989989131625287,-0.1846383392379942,46.14040669515063,11.823533906297724,-67.93603135399285
1760596360.8659105,4.596791240727675,-0.392034550704685,0.8427100779032163,-0.20811532127820367,43.363797584829754,-12.642826964299413,-61.15907729250199
1760596360.8758678,4.044654281200785,-0.1768679285971192,0.8897454903845791,-0.22624826234046122,40.61891901744961,-32.39390234309586,-53.998254522432894
1760596360.8859289,3.617528593966317,0.018632285139280554,0.9342719824389352,-0.23775629185625075,37.86341583096752,-46.1600675532528,-46.96242945839688
1760596360.8959432,3.290820711448112,0.17537345847549665,0.9719830681691644,-0.24217979053091926,35.08632071468899,-53.37942502555534,-40.50708432639235
1760596360.9058955,3.032824666032078,0.2802958574566532,1.0002534589413297,-0.23982959733228665,32.31497464271948,-54.21007745020521,-34.983857785575694
1760596360.9158957,2.8085115209002014,0.32750666868482525,1.01805585099522,-0.2316309785426566,29.61124327218372,-49.455531456384435,-30.609314677680633
1760596360.9258869,2.5834628557189157,0.3183020738095734,1.0257227762828451,-0.21891902302455038,27.059442275877803,-40.4212785548394,-27.456373044285645
1760596360.9359257,2.3274713863079186,0.2602363471019089,1.024616089427327,-0.2032412041879081,24.750059539191863,-28.72767524029903,-25.466841230412367
1760596360.945887,2.017430690448014,0.16552667454046263,1.0167546128114657,-0.1862032463341246,22.763619888874274,-16.1060957932328,-24.479848814354426
1760596360.955889,1.639260612274136,0.049116401220519246,1.0044461426864502,-0.1693668155065268,21.158059986626984,-4.202954116251906,-24.269161003375277
1760596360.9659898,1.1887407911520216,-0.07331588283737267,0.9899642436998811,-0.15418336085629128,19.961349709001635,5.588495827857496,-24.582349674131727
1760596360.9760056,0.671240965900129,-0.18717841636793173,0.9752994140667476,-0.141937465268503,19.169473374550513,12.25407827788354,-25.17602222186031
1760596360.9859025,0.10044103632168196,-0.280459304247713,0.9619997292907411,-0.1336788472078345,18.748730859023606,15.233304857117409,-25.843117965610677
1760596360.9959502,-0.5037744399783239,-0.34478081417381556,0.9511007072514056,-0.1301390566042463,18.640819111943657,14.439148313772852,-26.43014987424004
1760596361.0058806,-1.1179867037991027,-0.37594977809245983,0.9431312009117497,-0.13164636370978824,18.76925034097989,10.224942082458611,-26.84393336742158
1760596361.0159752,-1.7181620502039656,-0.37398827535790163,0.9381747477513198,-0.13806199687308124,19.046136489158034,3.3055507196020284,-27.04874312401865
1760596361.0260577,-2.2824743320128578,-0.34268460171540704,0.9359650303846969,-0.14875989657387903,19.37895234545823,-5.3555856826424915,-27.055969210792977
1760596361.035946,-2.793691567602673,-0.2887572525489799,0.9359978879136445,-0.16266291210447742,19.677331445763176,-14.67866902474432,-26.909139944147675
1760596361.0459085,-3.240841834574517,-0.22076287968545508,0.9376470473089253,-0.1783364559073381,19.860065014675733,-23.602617287829787,-26.667510159541727
1760596361.0559075,-3.6199789615256353,-0.14789807676557,0.940274004325726,-0.19413052186838498,19.862229420363988,-31.207131363958585,-26.391183727973345
1760596361.065916,-3.93400789562616,-0.07884508619695683,0.9433239973858072,-0.20835339335665493,19.641909361137397,-36.80841238157936,-26.129986701171923
1760596361.075946,-4.191669909008365,-0.02079462798287652,0.9464003920089353,-0.2194547380494508,19.185547440289202,-40.01915489962991,-25.917215930930045
1760596361.0858898,-4.405896604478861,0.021253400263152433,0.9493097783930098,-0.2261928755622759,18.510748036422406,-40.7682244826524,-25.76822255355857
1760596361.095898,-4.591802212312539,0.04485425710106477,0.9520711136295815,-0.2277625109531262,17.66552981981127,-39.28049356104281,-25.682826817050138
1760596361.105932,-4.764597685798937,0.05013753058198645,0.9548860560308471,-0.22386675225376754,16.72355661357351,-36.022143132203134,-25.650015476715485
1760596361.115912,-4.937689785995813,0.03951312278270623,0.9580743145300262,-0.2147298651180939,15.775616165073886,-31.62074426548268,-25.65331644780726
1760596361.125955,-5.121185233327308,0.017129056733834826,0.9619847825123805,-0.20105891117897595,14.918332429396123,-26.77203374668612,-25.67557503198709
1760596361.1359487,-5.320959681266577,-0.011831432045900097,0.9668972281501874,-0.1839661321532343,14.241629700214705,-22.146163162180205,-25.702366573759267
1760596361.1458926,-5.538376158893771,-0.04191519019576802,0.9729296168745293,-0.16486001401380954,13.81673190741215,-18.30534489176468,-25.72378085769602
1760596361.1558802,-5.770652390397334,-0.0681298871232785,0.9799648520999457,-0.14530920449090212,13.686419541922815,-15.642479172525503,-25.734702111045618
1760596361.165877,-6.011790266139188,-0.08655588662421032,0.9876099067405681,-0.12688643234155467,13.858890311322554,-14.346892448539393,-25.73396590432235
1760596361.1758857,-6.253906191140431,-0.09477601513268226,0.995199376558716,-0.1110089808189992,14.306008017304434,-14.39928339069627,-25.72290535828549
1760596361.185889,-6.488750598986512,-0.0920862567331994,1.0018519834385122,-0.09880278980661933,14.966147206914162,-15.594004098043586,-25.703797894893185
1760596361.1958997,-6.709187751529228,-0.07947899301343177,1.0065811362980277,-0.09102254849795371,15.751331957554502,-17.583468216105924,-25.6785979671488
1760596361.2059097,-6.9104261247536805,-0.05941861330415007,1.0084504051239713,-0.08805524816032952,16.557908449592837,-19.937151702611636,-25.64814201773882
1760596361.215962,-7.0908405699877175,-0.03545391093904468,1.0067542001900287,-0.09001717659854971,17.27954868648717,-22.206514341757263,-25.611815397196867
1760596361.2258818,-7.252298075573911,-0.011729000958653526,1.0011952665411616,-0.09692495366566169,17.820980584382706,-23.987219024868914,-25.56753389957717
1760596361.2359245,-7.399973491148172,0.007538384517710493,0.992024795168366,-0.10888544605632684,18.11057725368486,-24.97112862407305,-25.511830230522445
1760596361.2459185,-7.541706204083993,0.01854639751418696,0.9801096841334394,-0.12622182621880654,18.10993703105873,-24.982494336691143,-25.439829436404978
1760596361.2558973,-7.68699708761044,0.018314999896318813,0.9668997782064042,-0.14945724530426543,17.81888819849949,-23.995178397634593,-25.344918625367526
1760596361.2659934,-7.84577825998717,0.004975480028670969,0.954289700583074,-0.17912759811689333,17.274886728786345,-22.130262142742374,-25.217956408067813
1760596361.2759018,-8.02710923332937,-0.02207116015895226,0.9443985959296339,-0.21547009804098816,16.546442328399785,-19.635647176243083,-25.045950528570412
1760596361.2859108,-8.237961586756128,-0.06212805235728388,0.9393119825511277,-0.2580899495446122,15.720965035918901,-16.85113301792434,-24.81029035532709
1760596361.2959096,-8.482247421119899,-0.11330096635940501,0.9408340628720905,-0.30571635225214566,14.888255254144047,-14.163941400649964,-24.484847461590462
1760596361.3058937,-8.76022026477836,-0.17270633110468833,0.9502881262569096,-0.3561293810321717,14.121690931217874,-11.960687979547366,-24.03448145754355
1760596361.3159413,-9.068325602755175,-0.23676224423954728,0.968382565329501,-0.4062915667400894,13.459838140482661,-10.582139710892877,-23.414594680881777
1760596361.3259127,-9.399502767972434,-0.30152258109587216,0.9951360009385328,-0.45266577155957166,12.891523495658003,-10.286452588340353,-22.57226954950838
1760596361.335896,-9.743858283716952,-0.363010458872077,1.0298345413216363,-0.4916525764814629,12.347191782930022,-11.224925994290412,-21.449180383217776
1760596361.345933,-10.08957224711039,-0.4175210113514976,1.0709868658959425,-0.5200479594401418,11.698579733985325,-13.432008824050598,-19.985985791102078
1760596361.3559098,-10.42388193197703,-0.46188466061127487,1.1162572782799187,-0.5354226392053311,10.767482041761353,-16.828941547480902,-18.127437148912982
1760596361.3658993,-10.734003993621267,-0.49369199275357556,1.1623927760339785,-0.536364679537338,9.342933851159701,-21.238559916977064,-15.827160067738873
1760596361.375891,-11.007891324390819,-0.5114755637783279,1.2052003962703084,-0.5225837090350719,7.204809936366363,-26.40776711962829,-13.05111107666567
1760596361.3859653,-11.234762674799505,-0.5148344328070191,1.2396509223439567,-0.4949091981705632,4.150900361931646,-32.034078981613234,-9.779090542441548
1760596361.3959148,-11.405388778600473,-0.5044833012612822,1.2601727888420082,-0.45521086855656473,0.024072160245615863,-37.7932525191047,-6.004265461694871
1760596361.4059088,-11.512161911609235,-0.4822095839847499,1.261161942376643,-0.4062454284960906,-5.263860673646237,-43.36591252916718,-1.7312133876261147
1760596361.4158893,-11.549008562653322,-0.4507273265549666,1.2376828968750582,-0.3514177553372211,-11.714549847226607,-48.46184136876731,3.0266361785763114
1760596361.4259036,-11.511221309841822,-0.4134272198026287,1.186286464124379,-0.29444986057243006,-19.234122509296327,-52.840892711970085,8.249229645487347
1760596361.4358983,-11.395283729006604,-0.374035761425928,1.1058304301556363,-0.2389750169021618,-27.63419518361664,-56.3293342405821,13.911126838809356
1760596361.4459107,-11.19874291129414,-0.3362112787459526,0.9981644900327403,-0.18810461839963835,-36.6432400505327,-58.8301181286724,19.981569541042713
1760596361.4558995,-10.920153659159661,-0.30311812071607425,0.8685313383522961,-0.14403705652081925,-45.92757477257249,-60.325565769182454,26.42366743996226
1760596361.4659076,-10.559084703782041,-0.27703055936387777,0.7255466580751665,-0.10778244015424629,-55.12025317800686,-60.871583658985784,33.19323819443993
1760596361.475927,-10.116149033003804,-0.2590221696983168,0.5806579929005992,-0.07906358328420306,-63.85517707757914,-60.58382603059532,40.23776725926083
1760596361.4860191,-9.59300612845543,-0.24879333550467833,0.44704855427164203,-0.05642659836705666,-71.80272235614457,-59.617841566887165,47.495575879135366
1760596361.4959047,-8.99228981952756,-0.24467813029750438,0.3380467551613568,-0.0375594418617963,-78.7021760217036,-58.14663688812399,54.89479408410464
1760596361.5062072,-8.317442843719197,-0.24385058269633775,0.26522613740550793,-0.01977722416378213,-84.38578676551526,-56.339704294117226,62.351478557392
1760596361.515947,-7.572483845104931,-0.24272070279210128,0.23652490351175873,-0.0005893383396226724,-88.78989347837903,-54.34701548156579,69.7664911444213
1760596361.5258932,-6.761782623113417,-0.23747895769252372,0.2548280987053788,0.021776087736915212,-91.95071667549942,-52.28983466365042,77.02154069096387
1760596361.5359037,-5.8899497754030055,-0.22471857256151775,0.31742815019344434,0.0480234719620068,-93.98544174424485,-50.258143095376056,83.975704396976
1760596361.5459597,-4.961927413317182,-0.20203809267197734,0.41653632268348456,0.07770517687200136,-95.06200988016899,-48.312964188715476,90.46429828789466
1760596361.555909,-3.9832934092629904,-0.16850812486635236,0.5406612650857434,0.10940863682264115,-95.36269496276702,-46.49136811798591,96.30190363810073
1760596361.5660567,-2.960696653124998,-0.12489161480824955,0.6764269950476568,0.14114719804864104,-95.04721334111474,-44.81203274546817,101.29075848245455
1760596361.5759337,-1.9022713807162854,-0.07354783230287473,0.8103885973207468,0.17084076453674443,-94.22137114004853,-43.27944856528074,105.23480512157427
1760596361.5859332,-0.8178618490154279,-0.018021960002044625,0.9305447493277581,0.19676358469721023,-92.91708690559366,-41.88519955017901,107.95856991399693
1760596361.5960443,0.28107344534531836,0.037597126531750784,1.0274131638218882,0.2178664646434231,-91.08834797652227,-40.605493610534545,109.32883794995253
1760596361.6059308,1.381931922267277,0.08941015232424017,1.0946593284391348,0.2339328803978503,-88.62484632673873,-39.395251352979244,109.27602729327275
1760596361.6159148,2.471775301370698,0.13437580694959148,1.1293330528182692,0.24557069699945702,-85.38123617581516,-38.180301149692085,107.81162956694224
1760596361.6259558,3.5383612474439254,0.17078055131157405,1.1317777127379312,0.25405540494902196,-81.21634915708594,-36.85028769962789,105.03827153528033
1760596361.6359358,4.571229812123023,0.19841941617751738,1.1052620404448998,0.2610416822055977,-76.03433542759602,-35.25561645928265,101.1497757500021
1760596361.6459322,5.562653623945282,0.21845383191080953,1.0553789960796325,0.2681762263644255,-69.81910693192499,-33.211907044888065,96.41985305361415
1760596361.6559417,6.508272684334298,0.232980887904701,0.9892728121819521,0.2766806359202232,-62.65480656082998,-30.514606529226377,91.17964246890092
1760596361.6659517,7.407282493810131,0.24441698109630478,0.9147780272538562,0.2870025742235644,-54.72811706021245,-26.964323486065386,85.78613151735924
1760596361.6761713,8.26212212679988,0.25484537365886795,0.8395647318053534,0.298632108584558,-46.31225399397555,-22.40039510973749,80.58525412270552
1760596361.6861992,9.07770176437188,0.2654845424770597,0.770379651810871,0.3101453872094755,-37.73616153945944,-16.73716268427713,75.8747458134885
1760596361.6961696,9.860297738346668,0.2764017473248243,0.712459541989647,0.3194791833661393,-29.34468085238292,-9.995536320354494,71.87228997345268
1760596361.7059495,10.616309838186806,0.2865375025086213,0.6691730622454611,0.32437301252860784,-21.456123742762408,-2.3223534838593336,68.69394804213562
1760596361.7159839,11.351106968367537,0.2940370148128659,0.6419160751106878,0.3228668707701641,-14.323387487688992,6.008282018084283,66.34634945173602
1760596361.7259686,12.068173141944179,0.2968135492137457,0.6302461227362546,0.3137352273020201,-8.104123825668287,14.614586528311596,64.73384719104679
1760596361.7359903,12.768702908441306,0.29320678054422866,0.6322077122522418,0.2967690101590783,-2.8445517530937448,23.04688415559102,63.67924069411218
1760596361.7460272,13.451694348537462,0.2825668307478188,0.6447815845466446,0.2728643650782106,1.5201157959802771,30.842916477219667,62.95427783166699
1760596361.758232,14.114475134989654,0.2656109048400058,0.664388088687938,0.24392113021883596,5.148151483121356,37.59040478315273,62.31453224865468
1760596361.7659717,14.753505516612481,0.24446240112937376,0.6873815618712378,0.2125869986314914,8.259223255403517,42.98636589697033,61.53280037607381
1760596361.7759595,15.365256417261888,0.22236735884847483,0.7104848306353264,0.18190187183560047,11.093076756768523,46.88253364375445,60.425943301401425
1760596361.7859728,15.946968747108789,0.20315959011344806,0.7311272437204821,0.15490256678388648,13.866247694473591,49.308241693462634,58.87184957387096
1760596361.7960355,16.497150622874713,0.19059451941386688,0.7476632392206075,0.13424719752543862,16.734552725471396,50.46589041737331,56.815416219680664
1760596361.8059464,17.015741669770854,0.18768795239656047,0.7594602791571269,0.12191428894087189,19.767993593667693,50.698997291960175,54.26455838077919
1760596361.816015,17.50394879475763,0.1961833539798198,0.7668553093662483,0.1190193247266308,22.942245212485005,50.437869104178695,51.27880608146474
1760596361.8259254,17.96382290988729,0.21623705835689874,0.7709886647664259,0.12576658779976094,26.147720855233615,50.13198541771481,47.953814090098604
1760596361.8359635,18.39769164839572,0.24636489935948086,0.7735354201649275,0.14152325189071616,29.21401706544297,50.18030124017903,44.40508468620193
1760596361.845988,18.807581620393794,0.28364556571681027,0.7763673776236333,0.16497979085032,31.94480515410538,50.87051427712186,40.75350910170268
1760596361.8559415,19.194752710121783,0.3241332092202795,0.7811910822853801,0.19435323089190518,34.156328461538976,52.33614837720565,37.11423515775747
1760596361.8659167,19.559431858510543,0.3634016876495667,0.7892132766010524,0.22759511808988153,35.71212250425753,54.5366790706223,33.58921667547886
1760596361.8759036,19.900786069560738,0.3971306713624711,0.8008826914495123,0.2625793693006087,36.547774473789595,57.26170372850255,30.262902710932245
1760596361.8859346,20.217125556605346,0.42164889031557357,0.8157485213458763,0.2972578992091181,36.682112880035746,60.15631838879792,27.200050987521692
1760596361.89593,20.50628622773544,0.4343670091607315,0.8324648039979964,0.32977572375484676,36.21420646243674,62.76218910479686,24.444601683509948
1760596361.9059265,20.766111419491473,0.4340580668065686,0.8489551438729032,0.3585369851323884,35.30811414894722,64.56758603114628,22.018790810224363
1760596361.9159248,20.994939087552016,0.42097264256331623,0.862730064350115,0.3822194454054036,34.16909195357384,65.05978912955312,19.922045180465265
1760596361.9259176,21.192003216623817,0.3968012806269089,0.8713209863839431,0.3997469848869935,33.01587728677724,63.77452725631107,18.12957432468654
1760596361.9359984,21.35767546981354,0.3645120707729658,0.8727677113064666,0.41024201055200354,32.05380645523185,60.33907208974756,16.59093583547659
1760596361.9459279,21.49350165896819,0.3280955265098141,0.8660787658229498,0.41298819833680706,31.452937935314957,54.507683744355845,15.22920509516842
1760596361.955918,21.602022031635684,0.29224382401649285,0.8515828788815045,0.40743037535045823,31.334093592086283,46.18968696865046,13.941677325167987
1760596361.9659235,21.68639840586126,0.26198101713703786,0.8311068585940747,0.3932194515003632,31.763972484507196,35.47111564695386,12.603130441261472
1760596361.9759352,21.749900112946776,0.24225151741984396,0.8079425072291047,0.3702893157642584,32.758625613017976,22.63044864346585,11.07242769905791
1760596361.9859874,21.79532121676186,0.23747143840237436,0.7865913850430902,0.33894377503834583,34.29301216674909,8.147673150221523,9.20261031421812
1760596361.9959428,21.824409755630384,0.25105214643819784,0.7722972077640161,0.29993330352601105,36.3133360227361,-7.295721516661789,6.853787388758447
1760596362.005923,21.837382544058375,0.2849153913347912,0.7703959219558665,0.2545044201699915,38.748518094995546,-22.82955885184758,3.9073470246642814
1760596362.015907,21.832577817071304,0.33903316060325656,0.785537239444927,0.20440565886871812,41.517613593053554,-37.424867359384066,0.27951614618259396
1760596362.02592,21.806269741537957,0.41104135052940616,0.8208583647465163,0.1518351821894177,44.53129939298843,-49.94451690776052,-4.0678115523164085
1760596362.0360105,21.75264219054587,0.4959913678066194,0.8772174104871174,0.09931828792047843,47.687599144915175,-59.21643340213156,-9.120787374366179
1760596362.0459204,21.663901189825513,0.5863151147572707,0.952613756610366,0.04951108088198102,50.864319961518724,-64.12831003570027,-14.813075332608543
1760596362.0559404,21.530501204786777,0.6720847902953031,1.0419262746723343,0.004941843668839541,53.912504380658405,-63.739125877964064,-21.031455106637896
1760596362.065987,21.341472196260803,0.7416441424450945,1.1370820909386534,-0.032278269552947755,56.655798819790355,-57.39894567302878,-27.626916038396605
1760596362.075929,21.08485846135136,0.7826590727470023,1.2277281495495909,-0.06072690651501396,58.89958242302822,-44.86472627617246,-34.429472638261906
1760596362.0859473,20.748305368585015,0.7835692267837857,1.3024142714108324,-0.07987134006299018,60.45113396561941,-26.396509331526236,-41.26395027411409
1760596362.0959744,20.319841258706425,0.7353207325531633,1.3502039095746157,-0.09015508086706697,61.14873986281242,-2.816189570012218,-47.963564778559764
1760596362.1059754,19.788888407905613,0.633147550377452,1.3625084011630553,-0.09294898388978613,60.89445133131713,24.488683181938327,-54.37853984886889
1760596362.1159663,19.14749681366984,0.4780777797158582,1.334817601865973,-0.09037363787384374,59.68307095312468,53.62958786212284,-60.378182139175465
1760596362.1259766,18.391731931418217,0.2778023169066169,1.2679246556711512,-0.08502465829476047,57.61942648472792,82.3555038111865,-65.84645963672277
1760596362.136155,17.52307127924155,0.04658553832805532,1.1682711169818163,-0.07964389105685853,54.91734493676669,108.25889076627973,-70.67295714751572
1760596362.145962,16.549590191683883,-0.19595891641346733,1.0472036677540602,-0.07677448641979234,51.87713713010847,129.02977284525633,-74.7428484932957
1760596362.1559527,15.486667645076004,-0.4271704262562969,0.9192120149475108,-0.07842818772598402,48.84357123574979,142.7262990529257,-77.93068434776457
1760596362.1659417,14.356948590097012,-0.6243922917933908,0.7995144078078033,-0.08579727289007316,46.15189873476326,148.02190760819693,-80.10258391284923
1760596362.175951,13.189381377977268,-0.7682132852754381,0.7015470597687887,-0.09906292286733273,44.07325764462831,144.3881413500983,-81.12934359098371
1760596362.1862433,12.017301940679278,-0.8452527937562082,0.6349189464676238,-0.11736176476473761,42.771042324329,132.17999517355418,-80.90936528584498
1760596362.1960523,10.875722248087525,-0.8499538048749996,0.6042286486841688,-0.1389461755581529,42.27674332571786,112.60641802468163,-79.39642501035746
1760596362.2059345,9.79814740049114,-0.7851202616390759,0.6088884097070849,-0.16151581063339887,42.48898447729046,87.588507929473,-76.62477851012123
1760596362.2159107,8.81335152656488,-0.6612335190522899,0.6438552899354498,-0.1826426910373097,43.1948123487889,59.52696592001114,-72.72402000234953
1760596362.2259142,7.942566093900949,-0.49478316814933715,0.7009923092167958,-0.20019181763145136,44.10857433122532,31.014377830975345,-67.91844661246073
1760596362.2359383,7.197474960767569,-0.3059317127318113,0.7707020219954323,-0.21265568831953863,44.92094389611189,4.535008479727325,-62.50946533339737
1760596362.245922,6.579284033787192,-0.11586315815251609,0.8434919022736442,-0.21935250551835583,45.34890549674229,-17.80539238582939,-56.84358818635931
1760596362.255924,6.078964279666957,0.0558113369705763,0.9112190426383284,-0.2204648109871003,45.1774831397094,-34.48467323070149,-51.27187477276464
1760596362.265921,5.678586525711435,0.19322477350765624,0.9678799480335212,-0.21691792702376478,44.286239539014,-44.68235523267026,-46.10865614066486
1760596362.2759395,5.353512477053722,0.28571920806504064,1.009924570721704,-0.21012644108182943,42.65755667002497,-48.30443072405178,-41.59743576677659
1760596362.2859313,5.075112037412355,0.3284742459097446,1.0361607182927512,-0.2016713652254433,40.36794299200938,-45.922808678001225,-37.88982366444105
1760596362.2959316,4.8136561965011735,0.32233738621252767,1.0473651332509204,-0.19299348853821582,37.56669516341834,-38.647571502949894,-35.03991673849639
1760596362.3059268,4.541076024045367,0.27302229154559104,1.045731550310912,-0.18518225408571315,34.44764726167313,-27.9557075608874,-33.013013853928044
1760596362.3159933,4.233352625288702,0.18990249136362697,1.0342740843093883,-0.17890306092239056,31.21970032906484,-15.501079800470547,-31.705026671093325
1760596362.3259706,3.8723780431917647,0.08462242529628264,1.0162787710002419,-0.17445571144857502,28.08077813488105,-2.928085066265065,-30.96779695943418
1760596362.3360038,3.447183342662421,-0.03030305244290877,0.9948656299138136,-0.17191446406786326,25.198190359592804,8.29285815699881,-30.635603152076524
1760596362.3459897,2.9544691071927764,-0.14278771315214733,0.9726927338437795,-0.17128078328253668,22.69651887458408,16.99483798577601,-30.549018845919115
1760596362.3560224,2.398411366510223,-0.2422947451341767,0.9518050033461576,-0.1725879162614923,20.65254265678969,22.400681136832873,-30.573488700570493
1760596362.365975,1.7897659764962435,-0.3207149038177919,0.9336068892706516,-0.17592537750345513,19.09574965944733,24.162100076579723,-30.611150169550818
1760596362.3759897,1.1443575035089895,-0.3729435119125453,0.9189237075050981,-0.1813857553186648,18.01276034791476,22.352226958362774,-30.605426634859345
1760596362.3860092,0.4811068885218843,-0.3971129844808189,0.9081130065189613,-0.1889607918858094,17.354314273927187,17.41596623222991,-30.538785307664728
1760596362.3959277,-0.18018351043400166,-0.39446603671397673,0.9011926097220768,-0.19842359633729978,17.04397062512657,10.086102154072542,-30.424835015874592
1760596362.405906,-0.8210191374736748,-0.3688924383023812,0.897961250384387,-0.2092331111727869,16.988018547561985,1.2759279365562988,-30.29660581919442
1760596362.415907,-1.426089777669663,-0.3261931212275037,0.8980972917221932,-0.22048991712936922,17.08616068762382,-8.038929233676523,-30.193312841711222
1760596362.4259055,-1.984578040052983,-0.2731722542038987,0.9012289568683834,-0.23096081953701117,17.242381888704283,-16.93607737877667,-30.148042786160353
1760596362.435939,-2.4907337554654134,-0.21668171049451618,0.9069750544239225,-0.2391751458909222,17.375171755249912,-24.64657062868944,-30.178519065326146
1760596362.4459133,-2.9436803657555366,-0.16274671319742934,0.914958627206991,-0.24358177068977346,17.426051160914795,-30.62914611714738,-30.282399425566375
1760596362.4559143,-3.3465598766218627,-0.11588550432177613,0.9247981278602888,-0.24274585288306536,17.365253944378765,-34.61128298084464,-30.437571598993816
1760596362.4659286,-3.7052343217100323,-0.07870362892013162,0.9360823480280099,-0.23555835209116516,17.193535632721627,-36.594111546232575,-30.60686953982072
1760596362.475908,-4.026819662115326,-0.051801257906522714,0.9483367878074183,-0.221427855734166,16.939502141852607,-36.82272604396693,-30.745779552746676
1760596362.485935,-4.318327596232435,-0.03398681925394179,0.9609906121960985,-0.20042369364579177,16.652549265241017,-35.727715745638505,-30.811225285808415
1760596362.4959562,-4.585641653910546,-0.022748258191614502,0.9733544050020196,-0.17334467064727707,16.392310375086844,-33.84713340354799,-30.769495270407145
1760596362.5059257,-4.832972636087912,-0.014899412036639956,0.984618782707651,-0.1416996762389661,16.21620165658868,-31.74018675079325,-30.60177224018447
1760596362.515908,-5.062841987821159,-0.007296883887290404,0.993882252333707,-0.10760133712044416,16.167084818945536,-29.9044744740207,-30.30640251425642
1760596362.525909,-5.276545262745618,0.002485130916452425,1.0002137716028576,-0.07358627547413998,16.26319404896915,-28.707670279126052,-29.897815512656575
1760596362.5359216,-5.4749646026466205,0.015627312494123965,1.0027512643837222,-0.042382643252566646,16.492269198945117,-28.34238636062987,-29.402684300475368
1760596362.5459144,-5.659540205015649,0.031768438524287,1.0008313192577147,-0.01665064241845188,16.811237757171128,-28.809728606563805,-28.854373154283824
1760596362.5559423,-5.833184048119415,0.048989076056137795,0.9941375291606457,0.0012698335686268912,17.15179395114333,-29.933043448865686,-28.286884060873312
1760596362.565927,-6.000927999238465,0.06408329628923995,0.9828470876817204,0.009559111522340569,17.431025103545984,-31.398981782663558,-27.729397032529818
1760596362.5759625,-6.170141291216471,0.073079307699501,0.9677495736476635,0.007016813031634629,17.565171331310445,-32.818924135168764,-27.202155596447724
1760596362.5859606,-6.350223673087253,0.07192471132455097,0.9503090540584952,-0.006966836439542028,17.483953192334056,-33.800755380604976,-26.713984398197944
1760596362.5959578,-6.551770492264506,0.05721887086719166,0.9326407544948755,-0.032543493742598316,17.14274145460847,-34.01952541352242,-26.26129366660489
1760596362.6059144,-6.785300400647682,0.026864877461375523,0.9173790097031274,-0.06956248663949625,16.53012860211784,-33.275956631219714,-25.828165570069267
1760596362.615914,-7.059720699402451,-0.019470644498289665,0.9074279099982068,-0.11764828671220491,15.669161006944975,-31.53397583337369,-25.38708348501845
1760596362.6259146,-7.380768240306695,-0.08016704577684133,0.9056097975547887,-0.1761325079395219,14.61156911998352,-28.932047911370386,-24.900022073192805
1760596362.635936,-7.7496946001620755,-0.1517595670582334,0.9142527805517232,-0.24384275637766487,13.425653193983049,-25.76742645781003,-24.319876664184527
1760596362.6459453,-8.162449943845184,-0.22932888941426133,0.934778209435293,-0.31881529489761684,12.179794746029446,-22.45670456099539,-23.592441768023782
1760596362.6559231,-8.609551517265386,-0.30710192922668933,0.9673579944331762,-0.3980328761108291,10.9245699390097,-19.479399104845427,-22.659202822801333
1760596362.6659784,-9.076705420731688,-0.37916407750574266,1.0107090123804552,-0.4772927273031198,9.676859194808824,-17.31315302655265,-21.461015068263286
1760596362.6759245,-9.546107736097097,-0.44017292561056304,1.0620784725430688,-0.5512926393859071,8.409020518749601,-16.369443136412453,-19.942377287781593
1760596362.6860926,-9.998218768680523,-0.48597240373264194,1.1174517489669114,-0.6139901315728367,7.045196240391147,-16.9378123833277,-18.055619475821224
1760596362.6959372,-10.413716737613955,-0.5140297447741108,1.1719837751263937,-0.6592389265321461,5.465452721535507,-19.145088922461674,-15.764078730085776
1760596362.7059236,-10.775315202669406,-0.5236504000873392,1.220614598890817,-0.6816379251062997,3.517098624899279,-22.93417959695249,-13.043380684591897
1760596362.715926,-11.069172578698513,-0.5159619498201404,1.2587789433704073,-0.6774463113945586,1.0315030435794,-28.064986575564053,-9.88034269121439
1760596362.7259223,-11.28571626570652,-0.4936906498460965,1.2830733571326345,-0.6453477709533456,-2.15583244556377,-34.137756448985854,-6.269686159857381
1760596362.7359486,-11.419821609169928,-0.4607753359135742,1.2917363358383476,-0.5868396987573772,-6.184371599012091,-40.63668043180838,-2.209453614308956
1760596362.7459414,-11.470397186336278,-0.4218683667287811,1.2848496386163957,-0.5061217923668465,-11.149165116085138,-46.98894097074975,2.303490660133439
1760596362.7559252,-11.439509955728289,-0.3817703049297126,1.2642567723579365,-0.4095220274608263,-17.085098212666484,-52.63199984225214,7.276396368739376
1760596362.765924,-11.331228682518768,-0.34484876476741866,1.2332600184782008,-0.30462374133535997,-23.956428568410903,-57.080283742415,12.720837691052566
1760596362.7759306,-11.150376181970277,-0.3145052125617583,1.1961741919153486,-0.1992895593209411,-31.6526966257785,-59.98205957721031,18.649705680717762
1760596362.7859576,-10.90136860444316,-0.2927641797267525,1.1578049490375433,-0.10074449356464629,-39.991470130991786,-61.15844677307833,25.071307716090608
1760596362.7959824,-10.58729038407278,-0.2800534617845,1.1229100304921293,-0.014829387381370919,-48.72782264701216,-60.61909069356231,31.98159110439688
1760596362.8059442,-10.209312249262132,-0.2752174141235906,1.0957001323850941,0.05451173813954261,-57.56995727714943,-58.55263644508182,39.35587509961284
1760596362.815944,-9.7665119560974,-0.27576545033114386,1.079435759464979,0.10548578321015037,-66.19987646904136,-55.29416774302309,47.1414597329822
1760596362.8259702,-9.256108112583714,-0.27831639154836374,1.0761703954825779,0.13844857372797217,-74.2973171542734,-51.27544590788673,55.25213299629357
1760596362.8359308,-8.674070460218289,-0.2791657985932554,1.0866717359034144,0.15566587062256101,-81.56429601485873,-46.96636775526571,63.565089567106654
1760596362.8459516,-8.016026684940764,-0.2748818271882233,1.1105130482770005,0.1608706607072506,-87.74684415477529,-42.81696919516923,71.92039382983742
1760596362.8559375,-7.278346849405984,-0.2628284409343332,1.1462635751809784,0.158668654585239,-92.65046986650474,-39.208227595480245,80.12311455902534
1760596362.865927,-6.459256176679348,-0.24152835559281094,1.1916471286859918,0.15386567879559215,-96.14710185891468,-36.41710634064474,87.94858621365061
1760596362.8759243,-5.559813609009433,-0.2108128401337929,1.2435461783842063,0.15081058089827498,-98.17353622459004,-34.59770386239906,95.1515489848674
1760596362.885988,-4.5846039270827506,-0.1717503245486642,1.297845760080445,0.15286008244589333,-98.72365194423791,-33.77735007599585,101.47976571585917
1760596362.8959491,-3.542026117765036,-0.12638574271994304,1.3492761146808234,0.16206447124940762,-97.83773632647502,-33.864881360061815,106.69195774856007
1760596362.9059281,-2.4441165969651135,-0.07735217142176884,1.391502902021721,0.1791284445385187,-95.59200348705602,-34.66795761445302,110.5787842733384
1760596362.9159184,-1.3059151091913712,-0.02743528501380404,1.417665608494027,0.20362163577173287,-92.09047122672591,-35.91646742266103,112.98454962410742
1760596362.9259412,-0.1444507286356943,0.02082644752918674,1.4213992798073785,0.23432855834558308,-87.46034715477639,-37.289375640631754,113.82668932276427
1760596362.9359252,1.0225194017768287,0.06544292046727154,1.3981474575878876,0.26958417357437137,-81.85098657133815,-38.44280690424379,113.10996708367529
1760596362.9459803,2.177855108499279,0.10514597011154962,1.3463742449553575,0.30747325531129427,-75.43520745544343,-39.03781415432247,110.93268059195701
1760596362.9559312,3.3062929868757447,0.13943326018732657,1.26823712585326,0.3458680552548846,-68.41048448085317,-38.76705197604549,107.48295449168539
1760596362.9659567,4.395466458251653,0.16848927436174466,1.1694573958994532,0.3823823209296103,-60.996859760523186,-37.38012441162101,103.02436657079012
1760596362.9759712,5.436562142868859,0.1929945228341768,1.0584272391283718,0.41436996920101565,-53.42893275191902,-34.70725092709866,97.8717043634588
1760596362.9859428,6.424535540066018,0.21385103814938433,0.9448344713653432,0.439069844594649,-45.941202480711524,-30.679868731217777,92.35943449036512
1760596362.9959354,7.357871783230764,0.2318786358619249,0.8381667491974479,0.45391413255996604,-38.74866220256381,-25.345293980895335,86.8070815184183
1760596363.0059786,8.237948143133945,0.24755438066664148,0.7464101134394745,0.4569257319784147,-32.02662860940294,-18.871612042186374,81.48664975420827
1760596363.0159268,9.068119199880385,0.26086439287038327,0.6751525046716563,0.44708053921246593,-25.894302620417243,-11.539435058612325,76.59711963630436
1760596363.0259254,9.852688052987881,0.27131232561559765,0.6271814887597154,0.4245286061122494,-20.405400004034636,-3.719118526936169,72.24984872664673
1760596363.0359333,10.5959384248339,0.2780906042073183,0.6025511874756075,0.39063234564185023,-15.547173934092982,4.165259930545674,68.46668922726725
1760596363.0466967,11.301380476380528,0.2803779910008365,0.599012463981145,0.34784079224063386,-11.247392609418654,11.681321873824654,65.19033065708575
1760596363.0559285,11.971311088269097,0.27768891265067436,0.6126661115283408,0.29944482218524743,-7.387923701728246,18.43758037818828,62.304336317270405
1760596363.065992,12.60671886270137,0.27017784208330425,0.6387003225022512,0.24925704714361333,-3.8232595565266463,24.129820682414113,59.65894821891242
1760596363.0759575,13.207493310656764,0.25880708973708916,0.67209259760713,0.20125362883016767,-0.4019974005613242,28.577924035372337,57.098166814117064
1760596363.0859673,13.772843366541911,0.24532019185398857,0.7081846958227199,0.15921260354754835,3.011260260988827,31.74710965393661,54.48386864145546
1760596363.0959356,14.301801866686393,0.23201507820825845,0.7430763186868515,0.12638231568753394,6.516615103121124,33.74934288987318,51.713650748246536
1760596363.105968,14.793692214462169,0.2213647526955633,0.773824867381986,0.1052106475718499,10.16521273403003,34.82348295806764,48.73044008358374
1760596363.1159644,15.248458293278887,0.2155726924123503,0.7984774880432342,0.09715850441533738,13.953438081086537,35.296246495038694,45.5234362812769
1760596363.126013,15.666801574773784,0.21616560028378787,0.815990013646151,0.10260938890634892,17.82567076405554,35.529528720159384,42.121447296458896
1760596363.1360056,16.050119897800606,0.22371517262525026,0.826097507296972,0.12087464238283624,21.684462395968424,35.862249898335776,38.58089645539532
1760596363.1460378,16.40028894655755,0.23774691504524856,0.8291882130868693,0.1502863031338841,25.40542234334793,36.55603271615443,34.97150595954033
1760596363.1559646,16.71935970596409,0.2568464254237345,0.8262009815997693,0.18836853267548012,28.853344723846604,37.75330198666251,31.362764550490322
1760596363.1659458,17.00925682936229,0.27892563637000956,0.81853060534379,0.23208047330374826,31.89649120969007,39.45390543519151,27.813758373953394
1760596363.1759431,17.27155297663902,0.30157800319189876,0.8079068286364477,0.2781199955295186,34.41730638964365,41.51274315422597,24.367892083696272
1760596363.185945,17.50736692475623,0.32244152693524647,0.7962238100052338,0.32326295439194846,36.31947638833751,43.65724633142431,21.052692993793656
1760596363.195962,17.717397373093217,0.339501845505239,0.785327518939445,0.36469128806113166,37.53227503288847,45.52080615097022,17.88364909071546
1760596363.2059462,17.902070758765984,0.3512961776299909,0.7767944638204503,0.40025035310244705,38.013242594975274,46.686735360424045,14.870246967757053
1760596363.2159438,18.061758118461864,0.357010210289256,0.7717434000568273,0.4285825806884591,37.7498402146767,46.73679777154579,12.022187733637832
1760596363.2259655,18.19700563172459,0.35648423748041713,0.7707169719507432,0.44910957419937264,36.76043709690885,45.298410334740915,9.354040492997548
1760596363.235955,18.308724875200472,0.3501579559113925,0.7736582062331109,0.46187003280919986,35.09500452003267,42.08518025314994,6.887123701406641
1760596363.245948,18.398299998468193,0.3389851578311996,0.779987939462172,0.4672597131508337,32.835964848751075,36.92656576539921,4.648036344687311
1760596363.2559488,18.46758816697707,0.3243431753218696,0.7887670182040848,0.4657513137478224,30.099455757224845,29.784227176286354,2.6639302469832575
1760596363.2659466,18.518814786874152,0.30795299234184087,0.7989093894661308,0.45767818987164927,27.036693408946544,20.754948158580476,0.9552732642746645
1760596363.2759495,18.5543918348585,0.2918175010935828,0.8094055966203414,0.44313848989401067,23.834301018744323,10.062411910260899,-0.472578256757972
1760596363.2859678,18.576706323317314,0.2781744138941227,0.8195214420000843,0.42203236813994094,20.71176407620039,-1.9580986761468353,-1.6373057430780358
1760596363.2959533,18.58792525979292,0.26944436724502535,0.8289485965104382,0.3942080083934306,17.913979306393934,-14.877485006872925,-2.585274374551741
1760596363.3059697,18.589842085730528,0.2681404207638305,0.8378960143361579,0.35967209953015405,15.697441101163037,-28.189445691004487,-3.3933542836809787
1760596363.3159494,18.58376115200683,0.27670427531299036,0.8471189117664136,0.318813893928827,14.30991791652945,-41.3243262456086,-4.165905688941901
1760596363.3259726,18.57039911403581,0.29725166696947275,0.8578848296561506,0.2725921087492485,13.965154460574807,-53.66109185270082,-5.026685358483646
1760596363.3359852,18.549782989010293,0.33123777552906264,0.8718754748562578,0.22263667448407273,14.815692924064292,-64.540331752054,-6.106323423067131
1760596363.3459597,18.521138995837756,0.3790817528681791,0.8910215462732374,0.1712250569935569,16.927914267795334,-73.28206898475197,-7.526873574857219
1760596363.3559773,18.48278348850499,0.4398085435997481,0.9172671994033451,0.12111156127469036,20.26360769225402,-79.21164816723075,-9.38558655226441
1760596363.3659472,18.432038796035275,0.5107719950393899,0.9522607509107947,0.07521994000381228,24.671699599343796,-81.69540638241898,-11.740368297370885
1760596363.375964,18.365199276175844,0.5875173003424852,0.9969725699922141,0.03624750738359304,29.892313492603087,-80.18573633644742,-14.59931718075
1760596363.3859515,18.277566338866,0.6638281022147303,1.0512628389351981,0.006256321673392092,35.57343388525358,-74.27303965787742,-17.916328243592744
1760596363.3959394,18.163556840548193,0.731988788087589,1.1134690409175647,-0.013669585613096042,41.29865692671793,-63.74032348763294,-21.594054969855097
1760596363.4059792,18.01687114374582,0.7832774123741528,1.1801362836252955,-0.023638052132359238,46.623318947873706,-48.615029582543166,-25.49453908765559
1760596363.4160812,17.830694303809064,0.808688352751423,1.2460316972085796,-0.024990805574495758,51.115834186234736,-29.212084729032274,-29.456590145207525
1760596363.4259455,17.59790689214087,0.7998641768234535,1.3045409316556038,-0.020150054252416307,54.40105809467875,-6.161884083999527,-33.317680992485826
1760596363.4359667,17.31130423851426,0.7501900429445133,1.348454002311724,-0.01227462832646663,56.2024190569221,19.583269011898864,-36.936993341607355
1760596363.445972,16.9638549673504,0.6559642467522369,1.3710477103265994,-0.0047738490135260025,56.379027387170446,46.77072927295541,-40.21555329298201
1760596363.4560032,16.549053855209976,0.5174978614526302,1.3672899078343124,-0.000772574003518449,54.95298792559333,73.90271487878215,-43.10934285783457
1760596363.465991,16.061423816419566,0.339922735560139,1.3349318412545625,-0.0026451480411877554,52.12127140829188,99.32822486976772,-45.63209115877908
1760596363.4760375,15.49718884332392,0.13343595161319838,1.2752268474989579,-0.011720427020975125,48.24671473938567,121.36975153794982,-47.846344803605334
1760596363.4862103,14.855076830137616,-0.0872655741800912,1.1930483869946575,-0.02820261596275966,43.82497061825627,138.47566099919027,-49.84426068985075
1760596363.49598,14.137135326689906,-0.3044626760837168,1.0963064856946299,-0.051277577287411974,39.42865456771026,149.38129904926973,-51.722567850116306
1760596363.5059636,13.349384698471011,-0.49965689328912927,0.9947567067693327,-0.07932288220456737,35.6352725803964,153.25614977359882,-53.55797913256651
1760596363.5160258,12.50212433325333,-0.6561659684726535,0.8984783286332019,-0.11013942217231713,32.94961076165024,149.81314689543117,-55.38889433697385
1760596363.525952,11.609762783380035,-0.7615022934035325,0.8163820067270383,-0.14116537603654872,31.732649976244588,139.36030834697416,-57.206591438794845
1760596363.5359595,10.690144316595843,-0.8090040172801227,0.755063648608629,-0.16968649874539216,32.14784895586505,122.78330308356063,-58.955679025235504
1760596363.5459712,9.763450720460533,-0.7984113009461531,0.7181885799947174,-0.1930833443651865,34.13290743643501,101.45849414518297,-60.541209180835224
1760596363.5559478,8.85082889259496,-0.7353805751905294,0.7064314344684325,-0.20913812216627115,37.401769325980524,77.10729858620364,-61.83945530683486
1760596363.5659494,7.972914414940555,-0.630181535723941,0.7178645950557263,-0.21637419827476193,41.47789528174969,51.612365125272724,-62.71050748815997
1760596363.5759456,7.1483962026393115,-0.4959505857488666,0.7486127309963748,-0.21435289074665403,45.7556254876601,26.822357117596734,-63.012314362358346
1760596363.5859628,6.392721186314571,-0.3468742535441963,0.7935829224476751,-0.2038335167423258,49.58189312707444,4.373499715889673,-62.61650671087735
1760596363.5961766,5.716997934478337,-0.19658876354934118,0.8471271812344788,-0.18672229354422915,52.34639921944155,-14.448369257484133,-61.42585645573291
1760596363.605998,5.127139251520769,-0.0569676076823739,0.9035703068660199,-0.16578674095530427,53.56594727139096,-28.790916554010707,-59.39192643923687
1760596363.6159475,4.623283027192585,0.06262997559901655,0.9576117193815084,-0.14418036241393814,52.949190630161944,-38.26097292449007,-56.53017700573639
1760596363.6259534,4.1995378013951195,0.15565689849713493,1.0046569456956191,-0.12488548307645055,50.43178835175743,-42.90056330595775,-52.92920756455719
1760596363.6360302,3.8441120670972744,0.21830818619573658,1.0411282802570614,-0.11021233608920473,46.17773655261295,-43.12742178490254,-48.75113904813873
1760596363.646205,3.5399045270166316,0.24923697770848344,1.0647469146110358,-0.1014732894535552,40.54860909361529,-39.6550642200487,-44.221301830107954
1760596363.6567428,3.2656401558905888,0.24922557633309517,1.0747169668697352,-0.09889243226917077,34.04727819586594,-33.4042486903794,-39.60729238315525
1760596363.6659439,2.997600715931151,0.22091914328943843,1.0717305883204944,-0.10174035959179385,27.24596641291399,-25.41293584010665,-35.18985376043824
1760596363.6759455,2.7118947318690005,0.16862687618536992,1.057762099777148,-0.10862796624087104,20.71013998137143,-16.74829540688059,-31.230229557910043
1760596363.6859517,2.387053015920168,0.09811180498746094,1.035690145252222,-0.11786633329308875,14.929656339177894,-8.423112573512359,-27.939788338589242
1760596363.6959527,2.006575794394042,0.01626805145993571,1.0088366323428954,-0.12780383408881266,10.26670094652622,-1.3198327244210801,-25.45737957292125
1760596363.7059596,1.5609750468153312,-0.06936831352038676,0.9805203850456112,-0.1370758283771796,6.926710444513612,3.8728335031665813,-23.838170419081425
1760596363.7159529,1.0489099365111054,-0.1512445226064839,0.9536992223943054,-0.14473339020737713,4.954289522077089,6.704879641127774,-23.05511822228279
1760596363.7260592,0.47719829475513276,-0.22245512806430026,0.9307362004994135,-0.15024730647150705,4.251850506738573,6.986475378660513,-23.011538468725355
1760596363.7360272,-0.14026788307771618,-0.27732997164941947,0.9132904631866416,-0.15340818591755048,4.615146873531685,4.783434102817052,-23.56124187961704
1760596363.7459695,-0.7844580683964072,-0.3118578591410608,0.9023086977903932,-0.15416068006227682,5.7777145688125096,0.3877557630137926,-24.531870686472345
1760596363.7559497,-1.4336135559858207,-0.32390369334883023,0.8980818697348433,-0.15241940695175688,7.455818690525021,-5.732127128765455,-25.74730238951764
1760596363.7659745,-2.0657239063470993,-0.3132207820664103,0.9003327096205966,-0.14791681445736332,9.386724043425131,-12.994170967198109,-27.045979013271417
1760596363.7759576,-2.6607130424051393,-0.2812913901453339,0.9083090122098866,-0.14012774228125396,11.355481612562874,-20.77020577020055,-28.293396184681903
1760596363.7860198,-3.2020881054536705,-0.23104482636445445,0.9208711165376817,-0.1283008147880322,13.20826550055784,-28.449935872893104,-29.388417813127294
1760596363.7960436,-3.677939529127576,-0.16650491978942913,0.9365739092503271,-0.11160548546671192,14.852944709018521,-35.494659693899656,-30.26426358962168
1760596363.806321,-4.081310982180703,-0.09241254250153293,0.9537511960287348,-0.08937947489702308,16.24957344434035,-41.475942617221776,-30.885718193445765
1760596363.8159764,-4.410058421603728,-0.013860368171985257,0.9706122442202597,-0.061436109513019435,17.394646055553252,-46.09688907994632,-31.244264568094632
1760596363.825979,-4.666374383567965,0.06403086517581182,0.9853569767197373,-0.02836647074645887,18.30330639019252,-49.19619342667511,-31.35255481837617
1760596363.8359733,-4.85616305442318,0.13637538682611405,0.9963096414008004,0.008244209053192897,18.99333134796183,-50.737462939309665,-31.2391004642997
1760596363.8459547,-4.988418393917079,0.19872067359325912,1.0020641549445024,0.04575988952454773,19.47376188576253,-50.78803327851136,-30.943489589161874
1760596363.8559778,-5.074692776282409,0.24719449520430034,1.001629745601146,0.08063870277824972,19.739722207263778,-49.49237422967011,-30.511979135775917
1760596363.86595,-5.12866295567653,0.2786266296554328,0.994562220740688,0.1087760232203765,19.773505740471993,-47.04512847606949,-29.993067646588273
1760596363.8759778,-5.1657228830018385,0.29067193269642194,0.98106373715512,0.125999017793765,19.550685077435915,-43.66792657501018,-29.432663988867333
1760596363.8859675,-5.202480233721741,0.2819497634597687,0.9620345566651779,0.1286343969759798,19.049029756904133,-39.592576799631566,-28.868701952909106
1760596363.896071,-5.256024213793895,0.2521947238332531,0.939065142777556,0.11405650984319096,18.25751173505006,-35.05132829122133,-28.325428569121755
1760596363.905984,-5.342875701336854,0.20239178119657086,0.9143634520746377,0.08112885197539518,17.18273538177936,-30.273077270993433,-27.808000919316562
1760596363.916014,-5.477622007842169,0.13485275335215782,0.8906174344267385,0.030473586388099064,15.85084611567761,-25.483146300886972,-27.298328004983325
1760596363.9260356,-5.671356877038127,0.05318763307506171,0.8707961366756369,-0.03546822285684786,14.304310929597548,-20.90396362817962,-26.753170453604895
1760596363.9359732,-5.930157106157442,-0.037863934471378605,0.8578951044007319,-0.11259295755891924,12.594515327356127,-16.754500382823558,-26.10530754683148
1760596363.9460273,-6.253889365994543,-0.13275096716418044,0.8546351846472601,-0.19548766513383084,10.772206085538024,-13.247182236580167,-25.268143618021337
1760596363.95597,-6.635625038661046,-0.22555814984724495,0.8631318075878435,-0.27794356439586254,8.878009415170588,-10.58169713401424,-24.143573087504077
1760596363.9659672,-7.0618460027170435,-0.31053178767613276,0.8845644246464516,-0.3535843003691177,6.934739650920347,-8.935557990303975,-22.632370148590716
1760596363.9759648,-7.513477247739435,-0.38261644055081145,0.9188886493572275,-0.41654968588391345,4.942452793494009,-8.451611787941495,-20.645870255601764
1760596363.985976,-7.967625840760822,-0.43793052291115014,0.9646431054497934,-0.46214993343529315,2.8765203169970808,-9.223101020879346,-18.117296831306938
1760596363.9959724,-8.399782875650107,-0.47412207253417626,1.0189066269073992,-0.48738049735483807,0.6885110819704601,-11.277504980501018,-15.010847503606398
1760596364.005984,-8.786179383500118,-0.4905696295594288,1.077453229504315,-0.49119473047273976,-1.6906097718997517,-14.561238359647978,-11.32674762500893
1760596364.0159702,-9.1059758654963,-0.4884163687096708,1.1351251829666835,-0.47448978733959324,-4.345550251128223,-18.92817060355966,-7.101027658652066
1760596364.0259774,-9.34299617769721,-0.47043956069345616,1.1864009570003455,-0.43984359781345095,-7.370567781285228,-24.135466214921617,-2.399750157121972
1760596364.0359967,-9.486787701024967,-0.44076187083991203,1.2260878974003238,-0.39109352899790184,-10.862512357017797,-29.850080008188037,2.6914120014132026
1760596364.0459833,-9.532899213351277,-0.40441271910179405,1.2500341364415968,-0.3328474127558054,-14.913098860629901,-35.66822295592248,8.080277099063968
1760596364.0559838,-9.482395784857125,-0.36675650774025687,1.2557411922093744,-0.26998694093584774,-19.600193887881364,-41.14827184212077,13.681332123465367
1760596364.065951,-9.340744257628415,-0.3328267967725355,1.2427715978499383,-0.2071940951880366,-24.97789163978951,-45.85507401989805,19.42639383475014
1760596364.0759864,-9.116280664683751,-0.3066395287875304,1.2128794663033178,-0.1485193441364197,-31.065561907105288,-49.41072029809882,25.270792451644436
1760596364.085975,-8.818507465383611,-0.2905915661641172,1.1698361274644178,-0.09701517751738484,-37.83680798160599,-51.54423356566748,31.194119074857227
1760596364.096006,-8.456469058426192,-0.28506504519051973,1.1189691697486779,-0.054469927961333243,-45.210103993283006,-52.13113138806207,37.19564306388506
1760596364.105977,-8.037425351179746,-0.28834008199592454,1.066475494122446,-0.02128362539405794,-53.04342037841366,-51.21437093205816,43.28540428710958
1760596364.1159623,-7.5659909644038255,-0.29686761410191237,1.018603050828462,0.0034760333057881564,-61.1350412183324,-49.001187395035025,49.47257834224055
1760596364.1259744,-7.043837915093074,-0.3058822562358807,0.9808177030212496,0.021816462432607615,-69.23186198958922,-45.83523644443969,55.75294747087635
1760596364.1359737,-6.469979220457148,-0.3102588836567843,0.9570773331280072,0.03637482441601581,-77.0449063625538,-42.14877977134343,62.09725909888036
1760596364.1459706,-5.84156739546361,-0.30545248296901,0.9493229726605416,0.04984969705945918,-84.2701117750179,-38.40371207729811,68.44208225461087
1760596364.155974,-5.155064410106168,-0.28832551256284056,0.9572662107709465,0.06442989490567004,-90.61122512280562,-35.031845140213626,74.68458464732498
1760596364.1659703,-4.407580810552218,-0.257681047723355,0.9785047271084645,0.08136564629114235,-95.80142143105685,-32.38379342470875,80.68240812060006
1760596364.1759768,-3.598155619933884,-0.214393852151362,1.0089411746373835,0.1007956337430543,-99.62108196002761,-30.692780917299828,86.25940462599284
1760596364.1859784,-2.728763833125963,-0.16114213780315956,1.0434302297063853,0.1218644781482949,-101.91051859562187,-30.05605946546884,91.21735131337216
1760596364.195984,-1.8048910005106846,-0.10184019360338042,1.0765468448216766,0.14307708429594113,-102.57758076313405,-30.43354528294437,95.35293974213688
1760596364.206023,-0.8355902613248438,-0.04091976257292292,1.1033560725640827,0.16277043698139176,-101.60073201637802,-31.66113650955367,98.47844825950473
1760596364.2159746,0.16698107856315708,0.017394093492872867,1.1200651462757287,0.17955799573921427,-99.02847394889498,-33.47488761720036,100.44371082851796
1760596364.2260573,1.188474666348153,0.06969708977018989,1.1244511706026048,0.19262874080302822,-94.97598886778545,-35.54174370678373,101.15646464028366
1760596364.2360053,2.2135851879651307,0.11383073746154904,1.1159925296239503,0.20185042283386434,-89.61944042995631,-37.492895767188955,100.59803601157373
1760596364.2460291,3.227436764331338,0.1490711021158451,1.0956938219063217,0.2076946098579786,-83.18758690877728,-38.956826633404575,98.83166382752317
1760596364.2560332,4.216932380499288,0.1760632754221974,1.0656642828226994,0.21103957558029335,-75.94970894951771,-39.59033794865355,96.00154078056337
1760596364.2659914,5.171879072741151,0.19651872422956684,1.0285603702421844,0.21291896178911382,-68.19893137337915,-39.10673188803467,92.32182685313299
1760596364.2759707,6.085730505066924,0.21273599803460738,0.9870237377914295,0.21428251039126092,-60.23110436286781,-37.300447706234564,88.0563870541148
1760596364.2860217,6.955844839691636,0.2270442777815076,0.9432389003101149,0.21582244836365777,-52.3212120888902,-34.06680750290566,83.49164506850776
1760596364.2959933,7.783231687373034,0.24128551165427695,0.8987013753274279,0.2178949978492964,-44.70095085318452,-29.414650867808778,78.9063447033446
1760596364.3059974,8.571842306427559,0.25643654174072406,0.8542294781569411,0.22053664368878512,-37.541673746428145,-23.469389464771268,74.5427118923917
1760596364.3159955,9.32752599832886,0.27243633669791084,0.8101834189313637,0.2235477407529015,-30.945880053958668,-16.464917562252314,70.58325094295579
1760596364.3260062,10.056821248092476,0.2882406820897593,0.7667952187538309,0.2266008848035754,-24.948241911292108,-8.724595795779674,67.13625468091476
1760596364.3359737,10.76576613349426,0.3020870302216853,0.7244880004299138,0.2293361732577321,-19.524775016365282,-0.6333316692901386,64.23137416938766
1760596364.3460054,11.45889699412887,0.31191785555486223,0.6840877742881759,0.2314272142236535,-14.607153525300909,7.396114061789033,61.82473945098921
1760596364.356066,12.138561508042153,0.3158836908575167,0.646887632222238,0.23262311951574954,-10.098843756802815,14.95920461438036,59.8116253896723
1760596364.365973,12.80461282324037,0.3128315982008145,0.6145745313100138,0.2327775092583919,-5.890476803358039,21.694930989632326,58.043835021561826
1760596364.3760514,13.45448873602702,0.3026851990020267,0.5890500934951622,0.23186913437204892,-1.8730235394822972,27.317461844038906,56.34888452905979
1760596364.3860614,14.083625103131022,0.28663900495933553,0.5721777085112604,0.2300137029710289,2.051729271736908,31.641365166294708,54.54854986947582
1760596364.3960075,14.686110832089375,0.26711952456248944,0.5654882748079243,0.22746770841207714,5.963416122351069,34.597670905083355,52.47508255607371
1760596364.406023,15.255463021331051,0.24750449476017145,0.5698864388995261,0.22462651917442966,9.917946074596447,36.23830744073114,49.9841298087819
1760596364.4161067,15.785385685098698,0.23163603633020144,0.5854137713420198,0.2220169862630237,13.944906727014361,36.727208711417724,46.96394617353891
1760596364.4260287,16.27038070129369,0.2232069681582601,0.6111281331797686,0.2202836666868322,18.047360990406546,36.317811844201344,43.340894267645275
1760596364.4360187,16.706114670973733,0.22513040482486468,0.645135279662601,0.22017066708458502,22.20351693994695,35.31869199763147,39.081621966944375
1760596364.4459898,17.089509117358865,0.23901002068658317,0.6847681447302593,0.22250111547306062,26.36923482796145,34.051350083968806,34.19271120280851
1760596364.4559858,17.41859477765591,0.2648085270417155,0.7268762512415168,0.2281433956169176,30.48004409961591,32.806004729741005,28.718906636050647
1760596364.4660704,17.69222764228503,0.3007707017234088,0.76817298714245,0.237933933960017,34.45175102685128,31.80188308580949,22.741042515793524
1760596364.476004,17.909788653738794,0.3436068812610541,0.8055818847801244,0.25252841869634235,38.179993211727435,31.157590182057078,16.374339191991655
1760596364.4859831,18.07097884010967,0.3888973775120173,0.836520918355358,0.27219470658895356,41.5406429309159,30.875071025636764,9.766909758365772
1760596364.4959822,18.175783833129962,0.43164794988969063,0.859080088135675,0.29661238693877534,44.39361429755109,30.838416034031884,3.097440901340733
1760596364.50599,18.224626874019517,0.466913672619906,0.8720857939760153,0.32475516637384044,46.591760299207216,30.82700599644689,-3.429488816253759
1760596364.5160081,18.218672387574326,0.49041052538213975,0.8750822259990745,0.35489597343977675,47.99478758482227,30.54123055930926,-9.591878027714936
1760596364.5260386,18.160199518383298,0.49904610897530327,0.8682719668803363,0.3847316910379264,48.48663157342397,29.637897377186214,-15.163301663706491
1760596364.536099,18.05294725918911,0.4913172290149879,0.8524481912964568,0.4116030931625368,47.99403741497014,27.771425194596233,-19.930142658146192
1760596364.5461369,17.902339797772136,0.467538465457256,0.8289359284730912,0.43277824139099896,46.503940192065016,24.636287772826606,-23.711624556110554
1760596364.5560036,17.71552433607478,0.4298817831869665,0.7995488397135019,0.445760690693301,44.0772924738002,20.006263140190192,-26.380255638277468
1760596364.5660567,17.501184091292437,0.382222881212406,0.7665597759014098,0.44857804950829255,40.85716462139815,13.766901904113624,-27.87974528150003
1760596364.5760114,17.26911971203669,0.3298042457645168,0.7326741554411177,0.44000902923871565,37.069297734629714,5.93898818571133,-28.237451975971428
1760596364.5859911,17.029621139044476,0.2787390916105174,0.7009851236284783,0.4197209046256895,33.01386062216179,-3.307834890981449,-27.56897182992634
1760596364.596048,16.792681177787394,0.23539780855211773,0.6748848105953369,0.38830911509325444,29.04793562439632,-13.65103057235232,-26.073409844145637
1760596364.6060202,16.567132714683144,0.2057364007526799,0.6579115352641466,0.34724714536717693,25.55917674888717,-24.61985917733217,-24.018967267482964
1760596364.6159978,16.359817067613303,0.19463394729637223,0.6535231073730358,0.29876193793698624,22.932070010898933,-35.607833130290004,-21.719637934391898
1760596364.6259933,16.174898711608364,0.2052970136937276,0.6647933135015707,0.2456493203670169,21.509216632678655,-45.892592146670665,-19.50508036762761
1760596364.6359968,16.013423063413093,0.23877217131814168,0.6940362230554912,0.19104104894093088,21.551044418584162,-54.664181447185335,-17.687060174819973
1760596364.6460173,15.873172453210872,0.2935982933661222,0.7423822784257202,0.13813589475856067,23.198315521444826,-61.0640998492308,-16.526915535656165
1760596364.6559808,15.748823119649654,0.3656320052782248,0.8093605626136838,0.08991361893129088,26.44256203349924,-64.23782001015705,-16.208842579108758
1760596364.6659825,15.632356844949664,0.44808465872665537,0.8925690952658651,0.04885700611728501,31.109782183013596,-63.40206424418055,-16.82316633377006
1760596364.6759956,15.513645783775823,0.5318098429727818,0.987526109061977,0.01670609593067041,36.86202327419572,-57.92516525346668,-18.36224940298836
1760596364.6860213,15.381115996391514,0.6058753856533665,1.0877836552429543,-0.005733153710234561,43.21971459478444,-47.41517842121141,-20.729628115836533
1760596364.6959922,15.222408358999123,0.6584429353075069,1.1853509740900985,-0.018693227178737344,49.60487142299159,-31.806822105919927,-23.76071652222989
1760596364.7059953,15.024992681286777,0.677955709880111,1.2714268458805786,-0.0234194515755759,55.4018928703377,-11.43527588420897,-27.251307366184143
1760596364.7159982,14.776741090110455,0.6545895735453979,1.337389069473845,-0.021990908683675422,60.02923151899269,12.917188869372982,-30.988471728317165
1760596364.7260144,14.46651209897999,0.5818467043947357,1.3759413617545926,-0.01701246175186651,63.01248241320254,40.01609474657124,-34.77772498742861
1760596364.7360115,14.084817375704716,0.45807149766557775,1.3822702565548224,-0.011245045120274702,64.0480645612377,68.22314964801126,-38.46093834789423
1760596364.7464209,13.624623444736555,0.28757199620213114,1.3550142679399644,-0.007256306103233788,63.047057351142186,95.60430269496705,-41.921729059046896
1760596364.756016,13.082276379852482,0.08098596550288768,1.29681337157102,-0.007159472538096514,60.15110534206422,120.09430860213904,-45.07869321075208
1760596364.7659822,12.458443587623343,-0.14540117487997942,1.214232896265717,-0.012467038362558093,55.71651810046116,139.7032909785804,-47.87076731041687
1760596364.7760012,11.758877697772942,-0.37146776482184407,1.1169737532941493,-0.024033450661826283,50.26813024210671,152.7401584568218,-50.2416166739896
1760596364.7859979,10.99476697475318,-0.5759678317460608,1.0164661801636081,-0.04203172751083817,44.42986273934553,158.02067257833752,-52.12994414369708
1760596364.7960727,10.182475027647381,-0.7396234402950107,0.9241229323574096,-0.06592490579397092,38.842736342963484,155.026487856679,-53.4698043852704
1760596364.8059926,9.342587468451267,-0.8479308070277985,0.8496249583868228,-0.09444048462962566,34.08248203001205,143.986582090458,-54.200568308238665
1760596364.815995,8.498337284586306,-0.8930799688128699,0.7995945882557576,-0.12559903220769345,30.588087144656637,125.86407360213987,-54.28207668555428
1760596364.8260243,7.673620438405014,-0.8746451673516423,0.7768961805729909,-0.1568593326776056,28.610426507206522,102.2477294956207,-53.708514804049166
1760596364.8359957,6.890893958388789,-0.7990443931704186,0.7806395560987419,-0.1854151072676327,28.187260581223676,75.16482619203883,-52.51535311400564
1760596364.8460016,6.169251644832866,-0.6780525124655076,0.8067966861177963,-0.2086212741214648,29.147553723703766,46.84583776596693,-50.77674967643731
1760596364.8560348,5.522907037327453,-0.5267914695625607,0.8492182920799334,-0.22446159567795157,31.144139641954553,19.478223873724225,-48.59459597508073
1760596364.8660052,4.960209327569761,-0.3616124610623122,0.9007854987219202,-0.23192636616307613,33.709400907101454,-5.014654305597072,-46.083265897421434
1760596364.8760154,4.483212064406916,-0.19819146790023498,0.9544615489517061,-0.23117851993624486,36.32480512071316,-25.14162104868333,-43.35505821815098
1760596364.8860202,4.0877367562764135,-0.0500454586853971,1.0040967113858712,-0.22345337003624963,38.49316991647422,-39.94350041171238,-40.51024605349794
1760596364.8960268,3.763838847937229,0.07243032862883939,1.04494124257189,-0.21072969091341084,39.80301123356449,-49.02295921311739,-37.63336635100865
1760596364.9060495,3.4965912763781657,0.16240371834672104,1.0738949134763371,-0.195281331914064,39.97670989779121,-52.513650373330236,-34.79501764468993
1760596364.916012,3.267137182766515,0.21661336589031965,1.0895486605716695,-0.17924023521743032,38.897408285189876,-51.00402230110247,-32.05682001775726
1760596364.928454,3.05400396372182,0.23508085505415496,1.0920653628988444,-0.164275445407911,36.61274677925561,-45.43228110406401,-29.476661038119904
1760596364.9366226,2.8346866076599797,0.22065662144802728,1.082930723571094,-0.15143846368697517,33.3166015937538,-36.96680781577684,-27.111852094421234
1760596364.9460301,2.5874787259099103,0.17848008287007375,1.064602862508362,-0.1411684165729117,29.31288258686801,-26.883072299939546,-25.01901064225242
1760596364.956005,2.293455145295728,0.11538554926367436,1.0401011758290875,-0.13341309449907157,24.967834983962344,-16.445400526851014,-23.250822578153745
1760596364.9660008,1.938414060967328,0.03926171221751225,1.0125885902897467,-0.12781053552741803,20.65858599694163,-6.80047081797861,-21.850834718789326
1760596364.9760163,1.5145099036696956,-0.041625843106602674,0.9850039783879372,-0.12387995062120688,16.72558825716644,1.111138952398588,-20.847871095962894
1760596364.9860172,1.021290818097748,-0.1193220000484782,0.9597888190990362,-0.121179740338087,13.435264540017958,6.619526395770571,-20.25158256640174
1760596364.9961205,0.4659159471655534,-0.1868317601996559,0.938729125934905,-0.11940349783459482,10.956911675440711,9.36164664484854,-20.05014827029008
1760596365.0060368,-0.13754518008275102,-0.23867367468903858,0.9229095653846723,-0.11840334505230633,9.355247368429907,9.286953543022518,-20.210455482236068
1760596365.016031,-0.7696702351475793,-0.27128120563305363,0.9127589306367611,-0.11814955658796025,8.597417155422526,6.633333583775452,-20.68046269971379
1760596365.0259974,-1.4078866402623504,-0.2832094681193296,0.9081574481019385,-0.11865032813409415,8.571294254852637,1.877118181234047,-21.39311061709137
1760596365.036005,-2.028996868798214,-0.2751249944299911,0.9085757959233752,-0.11986237567782497,9.11078709096604,-4.336593707592889,-22.271126825673086
1760596365.0460107,-2.6116566168323234,-0.24957974654056964,0.9132204751638875,-0.121621367584767,10.023658361062362,-11.275366748690601,-23.232250061312914
1760596365.056003,-3.1384573636141453,-0.21059418792045595,0.9211672126099015,-0.12361277743639813,11.117887768125865,-18.203795979626857,-24.194597111461082
1760596365.0660117,-3.5973474650761883,-0.16309614734091832,0.9314706663375425,-0.1253912995459745,12.223610406877743,-24.46197992456042,-25.081981039804756
1760596365.0759923,-3.9822504859511936,-0.11228175748283109,0.9432434975412457,-0.12644335628038697,13.208851870071491,-29.530163640219886,-25.82893840744208
1760596365.0860255,-4.292878811920206,-0.06297910955980715,0.9557017373042129,-0.12627647067188522,13.988383918408568,-33.07331878501969,-26.385103831545468
1760596365.0961409,-4.533865850038576,-0.019099178098426924,0.9681780656608691,-0.12451540221441974,14.525841605182096,-34.96174072613141,-26.718493171443207
1760596365.105993,-4.713429024304987,0.016752056301096996,0.9801100189884249,-0.12098735764879104,14.8297627051965,-35.26647239698628,-26.81730242896247
1760596365.115989,-4.841818544838704,0.043450839974837584,0.9910139786113091,-0.11578206267148355,14.944574503262649,-34.23129338187833,-26.689998910230145
1760596365.1260076,-4.9298063930024965,0.06130552147280832,1.000456319559173,-0.10927408465915102,14.937876415841513,-32.22579831879314,-26.363714900924133
1760596365.136045,-4.987435832547116,0.0717960894637876,1.0080309278502562,-0.10209711258463612,14.88565457865968,-29.68632284777863,-25.881186396680835
1760596365.146023,-5.023193662724591,0.07714998274256059,1.0133493468052461,-0.09506628468441555,14.857275696410996,-27.052826723354038,-25.296660456804545
1760596365.156018,-5.043691886879437,0.07982398901324347,1.0160473348609307,-0.08905541471686494,14.902202726428012,-24.710135181672445,-24.671284107150086
1760596365.1660345,-5.053857904150835,0.08197725877607598,1.0158095462038368,-0.0848493486209169,15.040298293961145,-22.941147609892887,-24.068458649557204
1760596365.1770065,-5.057541033322253,0.08502474457749547,1.012411575444745,-0.08300409078550032,15.257262117024856,-21.89783575091368,-23.549499312866494
1760596365.1860776,-5.058362045598186,0.0893501119360312,1.0057749993673653,-0.08375223260051293,15.506142331942122,-21.593255356472277,-23.16972707263483
1760596365.196051,-5.060580111695822,0.09423057692250178,0.9960265070780975,-0.08698277097724684,15.714986482375599,-21.914693751039437,-22.97492127650536
1760596365.2060564,-5.06974521777914,0.0979861020455006,0.9835483503857667,-0.0923039286020088,15.799656085643342,-22.65491140510381,-22.997968558023437
1760596365.2160125,-5.092949998152977,0.09832020487883689,0.9690064024415795,-0.09917333782581522,15.679805585437691,-23.555732200043927,-23.25559804875193
1760596365.2260022,-5.138584434956274,0.09278025132095064,0.9533453210506244,-0.10706095221811317,15.295252296717681,-24.3565140580848,-23.74526476865782
1760596365.2360265,-5.21560971412644,0.07924112437529542,0.9377468900816224,-0.11560193432672664,14.619626568729593,-24.839652334577334,-24.44246144757528
1760596365.246006,-5.332477931660147,0.056313715602457966,0.9235550508479159,-0.12470080370814064,13.668396951918593,-24.866285905252994,-25.298940827405524
1760596365.2560182,-5.495906094174771,0.023601044688701944,0.9121766464648835,-0.134561722969973,12.499164313714086,-24.397511256441252,-26.24246746973816
1760596365.265999,-5.709745028712548,-0.018233748912329845,0.9049692263716405,-0.14563824207395284,11.203490315322702,-23.499158662596873,-27.1787351602928
1760596365.2760825,-5.974158677213131,-0.06757427777267563,0.9031271384717765,-0.1585133358746483,9.891271298981316,-22.330948511146385,-27.99592656768734
1760596365.2860076,-6.285256797950362,-0.12208028690238236,0.9075755736824895,-0.1737316760436744,8.670352852331645,-21.123058393685515,-28.572035161810952
1760596365.2960274,-6.635227564271406,-0.17897042759001194,0.9188788121232141,-0.19160935406366356,7.625174049009385,-20.144404972918036,-28.784554312847874
1760596365.3060236,-7.012922632817223,-0.23529629572593327,0.9371630860509554,-0.212045568113862,6.798409021950871,-19.667209324737804,-28.52156000615079
1760596365.3160286,-7.404777702878863,-0.2881694578421688,0.962049419441767,-0.23436150561462746,6.178884945522473,-19.931924124807562,-27.692712442136465
1760596365.3260128,-7.795917317408058,-0.3349333356583082,0.9925956629123119,-0.257197425975391,5.697786904905162,-21.115764161631645,-26.238436777166182
1760596365.3360221,-8.171291427315158,-0.37329612535634016,1.0272633000803602,-0.2785071579843933,5.2336182239710265,-23.30728117836553,-24.135635117627043
1760596365.3460143,-8.516712091084095,-0.4014487147766057,1.063940710874516,-0.29568628887046355,4.624855307444158,-26.4889116164673,-21.398760612591555
1760596365.356003,-8.819690314809428,-0.41818056736600595,1.1000513571729484,-0.305843508709516,3.6880293308165686,-30.529215510114263,-18.075871440560764
1760596365.3660185,-9.070009139474886,-0.4229870892073072,1.1327519599186144,-0.3061832939785874,2.238351138877437,-35.18636797670076,-14.240212188378315
1760596365.3760338,-9.260007720677004,-0.4161485900512785,1.159200108390452,-0.294437305186088,0.11006910061296632,-40.12402926299386,-9.978743351584098
1760596365.386029,-9.384590382638187,-0.39875825239365376,1.176856081696969,-0.26927307638639114,-2.8256211518273675,-44.939791849098064,-5.37966244777823
1760596365.396005,-9.441009101643461,-0.37267875610902756,1.1837785560779104,-0.2306142802061649,-6.64644721111716,-49.20493123899035,-0.5211569462531442
1760596365.4060187,-9.428490496213053,-0.34041096553313743,1.1788729413603511,-0.17981915129964599,-11.369358185711757,-52.5122693494993,4.5366917913959925
1760596365.4160118,-9.347785372616109,-0.30486811453977847,1.1620533398425827,-0.11968253341428964,-16.945585907544086,-54.526883788995065,9.755681113808539
1760596365.426024,-9.200712077050602,-0.2690694704246849,1.1342870220636376,-0.054252989675172475,-23.260794237590442,-55.032659419075536,15.118682565765413
1760596365.436378,-8.98974950303462,-0.23579334269052613,1.0975067767590738,0.011515683344814778,-30.140690423240287,-53.96692075197488,20.624834918859158
1760596365.446006,-8.717716247723416,-0.20724794400332677,1.0544010621993547,0.07223836557116409,-37.362329543988324,-51.43620393891621,26.28188774354914
1760596365.4560158,-8.3875519295238,-0.1848195825443144,1.00811711792052,0.12264987849786782,-44.67085076261536,-47.70886589121625,32.097116079340005
1760596365.466104,-8.002197304397338,-0.16894050785035755,0.9619269472861572,0.15818731450731194,-51.80053454031589,-43.184282907137295,38.06819635041941
1760596365.4760194,-7.564554096807449,-0.15909221405657878,0.9189053405000732,0.1755574216114417,-58.49804823660195,-38.34286772365283,44.17519999505326
1760596365.4860187,-7.077495482795786,-0.15393441237585195,0.8816580367413531,0.17323196912262198,-64.54487419862748,-33.68485815674043,50.37456005542333
1760596365.4959931,-6.543894970430193,-0.15153147942516043,0.8521250845015074,0.151793462728542,-69.77553286139245,-29.667849790329598,56.59558629679149
1760596365.506056,-5.966645628217456,-0.14963949596527948,0.831473025401476,0.11404000686805385,-74.08863133453399,-26.652833699514414,62.73988203644146
1760596365.5160484,-5.348653244626776,-0.1460168474260253,0.8200776355595669,0.06477431266843739,-77.44907067516773,-24.866175515950093,68.68386836573181
1760596365.5260248,-4.692803874289773,-0.13872394117754927,0.817584371490389,0.010259578532687226,-79.8815053036369,-24.381405835445406,74.28450900229313
1760596365.5360582,-4.001923673279912,-0.12637758598946425,0.8230204494613075,-0.04258901896236115,-81.45661657652569,-25.12107154280642,79.38813545025182
1760596365.5460196,-3.278762014636732,-0.1083252497256554,0.8349281184284278,-0.08712857308033806,-82.27255879378647,-26.876019712426366,83.84190916284147
1760596365.55601,-2.526033448116758,-0.08471035811431432,0.8514933098705824,-0.1178447543326835,-82.43432398850027,-29.337576665385228,87.50697412978806
1760596365.5660107,-1.7465449699394024,-0.05641437332600186,0.8706531585630186,-0.1309878029060373,-82.03413628190316,-32.13713563821641,90.27190629202407
1760596365.5760133,-0.9434063826723176,-0.02488231376162547,0.8901847203099525,-0.12491354812843554,-81.1362455971384,-34.88763169439429,92.0647970492989
1760596365.586042,-0.12027496759840424,0.008137846678052679,0.9078072897215492,-0.10012648146349601,-79.76914802283918,-37.22210190583739,92.86228482033385
1760596365.5961456,0.7184575629102823,0.0408911016183121,0.9213441581693653,-0.05905763722349379,-77.92694158863635,-38.82570764935639,92.69409026370897
1760596365.6060297,1.5676337943661736,0.07188772731949818,0.9289535263087516,-0.005627826287479157,-75.57939966003839,-39.45895028865122,91.64210241959331
1760596365.6160784,2.4215066467600805,0.10010066646709052,0.9293727037557165,0.05533080350576457,-72.68809056591502,-38.97117171465903,89.83375510658315
1760596365.6260293,3.274099315831883,0.12505413269600854,0.9220864074877669,0.11870179725128072,-69.22432079756426,-37.304650070317685,87.43025135831193
1760596365.6360254,4.1196624040428595,0.14679059789854187,0.9073570678881423,0.17966558169128363,-65.18440343021761,-34.490458627967556,84.61102781519398
1760596365.6460156,4.953115277791716,0.16572850685802892,0.8861135311236251,0.23416023187759039,-60.59882974672758,-30.637606150899067,81.55653603417343
1760596365.6560163,5.770372101647701,0.18245129756782108,0.8597433612266826,0.2791791276824183,-55.53390520110613,-25.916952646784534,78.43176546814847
1760596365.666037,6.56849395407243,0.19748817318998227,0.8298539618340721,0.31289522025582645,-50.08652318302736,-20.54134064573597,75.37279749286336
1760596365.676036,7.345658365905501,0.2111467509912323,0.7980600307106402,0.33462682574706337,-44.37425170009817,-14.743581541946167,72.47803633384704
1760596365.6860282,8.100979577201565,0.22343815974299655,0.765831338055292,0.34467716032846596,-38.52344169748725,-8.754375164958228,69.80476960299164
1760596365.6960447,8.834237374570204,0.2341073345927212,0.7344102567483956,0.3440924231050409,-32.65772173104476,-2.782573453891579,67.37066648787325
1760596365.706035,9.54557790646079,0.24275485239774827,0.7047921093670121,0.33439153097824154,-26.888389648544926,2.9999886781809204,65.15901344098758
1760596365.716012,10.235239537117977,0.24901592416065893,0.6777538668308063,0.3173206903343158,-21.30728966918441,8.467671684735466,63.12608277419369
1760596365.7260947,10.903336562228814,0.252749630895326,0.6539142937231687,0.2946749292644951,-15.982116679074652,13.543888961120537,61.20906749922927
1760596365.736054,11.549710775756015,0.2541893283248764,0.6338082185014908,0.2682088461441071,-10.95384621443057,18.19829579725418,59.33342389078243
1760596365.7460237,12.173841833573194,0.25401287122741956,0.6179575871037215,0.2396358801429094,-6.236059165984982,22.439637980859516,57.41906256336576
1760596365.7560995,12.774796355108789,0.2533072189141434,0.6069210152462198,0.21069462900050168,-1.8161180832082637,26.30594264077449,55.38538739190016
1760596365.7660427,13.351195025311418,0.25342510668274465,0.6013021851353547,0.18324507048919308,2.341721861375804,29.853755193125853,53.15553362369579
1760596365.7760353,13.901185987771271,0.2557576573255967,0.6017000745408095,0.15934772860105126,6.2912178871308475,33.14778698253365,50.66026361334113
1760596365.786052,14.422427040895437,0.2614676097279984,0.6085955034280108,0.14127568032855667,10.09718385144707,36.2517028424109,47.8418803342683
1760596365.7960541,14.912092249574963,0.2712368821603915,0.6221873822147294,0.1314160645676078,13.826952146173424,39.22006266828748,44.658292249826225
1760596365.8060465,15.366925720169446,0.2850785760788489,0.6422111797940077,0.13203822731174567,17.540533040930445,42.09093639496143,41.08712521292281
1760596365.8160381,15.783364016423649,0.3022494119297179,0.6677856704066598,0.14494063564478338,21.27974001945904,44.87862446472627,37.12962794425657
1760596365.826053,16.157738823493457,0.32127806604878895,0.6973380750889683,0.1710348600647653,25.056904949649116,47.56614665096878,32.81404147466538
1760596365.8360305,16.4865557965548,0.3401044648705909,0.7286460872862454,0.20997055914314106,28.844700069119376,50.097469913963074,28.197974714620006
1760596365.84603,16.76682935163999,0.3563113720035666,0.7590065387052135,0.2599262758551833,32.56959542251209,52.36976089916255,23.369074953853897
1760596365.8560677,16.996440765053112,0.3674241428937051,0.7855087360881015,0.31766309948338023,36.11179413788855,54.22646351279137,18.4430388271195
1760596365.8660135,17.174479115876956,0.37125210630232636,0.8053743755003282,0.378862250023382,39.313593335349175,55.45285569588249,13.558058331086647
1760596365.876029,17.301520686531582,0.3662401665958568,0.8163266000042841,0.43867384155862826,41.99631954968625,55.77668224942216,8.865302510918779
1760596365.8860157,17.37980338110887,0.35179305356290635,0.8169537554166157,0.4923361778225834,43.984115092623846,54.87696518083918,4.515869436825591
1760596365.8960242,17.413260388413907,0.3285317501499807,0.8070291746049928,0.5357159738831112,45.13151022770111,52.40377197939551,0.645504372096178
1760596365.9060173,17.407391934587967,0.29844308929493335,0.7877408756811946,0.5656690808423436,45.35095739795103,48.010529785304826,-2.640970128342868
1760596365.9160707,17.368973233163278,0.2648875906231867,0.7617835765588677,0.5801926317370485,44.63617258928287,41.39858324862863,-5.283250596733243
1760596365.9260118,17.305616792613108,0.2324374696469585,0.7332740994105159,0.5783965016700694,43.07724016757031,32.37137305722126,-7.275002976563344
1760596365.9360554,17.225224309754875,0.20652856134517325,0.7074677503451484,0.5603551848011497,40.86410169904637,20.893236853344504,-8.667491849962994
1760596365.9460557,17.135374858656657,0.19292746595739604,0.690275115068887,0.5269142675961971,38.27624420106836,7.145857578299176,-9.566516374612679
1760596365.9560518,17.04270099677403,0.19703766249907617,0.6876059371830499,0.4795175678898471,35.658010988551,-8.42586159333867,-10.12272505106566
1760596365.9660308,16.952303543513057,0.22309508175573692,0.7045967620074938,0.42009352341947914,33.38091117452697,-25.087156296570534,-10.51630938387999
1760596365.9760463,16.867250543299022,0.2733329762843549,0.7448055228890402,0.35100378112197933,31.796521705457767,-41.81432691841509,-10.937872034983945
1760596365.986151,16.78819682483851,0.34722264088453153,0.8094750863314296,0.2750269124116759,31.1857843163806,-57.33040515486925,-11.567864008471803
1760596365.9962633,16.713148628656846,0.4409148450626547,0.8969780064075561,0.195335374514242,31.712210057233804,-70.1805120449929,-12.557332749649023
1760596366.0060396,16.637386563250427,0.5470131370271459,1.0025537942863068,0.11542587127478801,33.38720947158881,-78.84816897536575,-14.012720508630583
1760596366.0160542,16.553553609812237,0.6547997763793435,1.118433179930483,0.038975717485766004,36.055153427850755,-81.90827956884517,-15.986997693314295
1760596366.0260599,16.45191371985565,0.7510006257437648,1.2344080841130776,-0.030386199033247945,39.40372595259086,-78.20527619551967,-18.478496534216966
1760596366.0360377,16.320788128661214,0.8211104138636777,1.338851513465339,-0.08938703197207581,43.00163399967996,-67.03711675771096,-21.437529240474362
1760596366.0460458,16.14717653397484,0.8512015128735962,1.4201206281164869,-0.13546818210543915,46.360910353637045,-48.319171866106814,-24.779419908459992
1760596366.0560372,15.917563689915275,0.8300138938638791,1.4681926304744217,-0.16714497759932032,49.01543822989868,-22.69850097629083,-28.401217515407534
1760596366.066025,15.618895008703658,0.7509972998132319,1.476295638752454,-0.18430284372124572,50.60219024848537,8.4096208387035,-32.19843270524154
1760596366.0760472,15.239677748461888,0.613896799964639,1.442227673080637,-0.18835635136438142,50.928794828666206,42.88360090000409,-36.078002769117326
