timestamp,angle,linear_acceleration_x,linear_acceleration_y,linear_acceleration_z,angular_velocity_x,angular_velocity_y,angular_velocity_z
1760958284.6266992,-2.7307551000294836,0.03981385997135412,0.967327185471914,-0.19698836936056469,11.35503047181313,-4.732306540541045,17.045851098288313
1760958284.6367397,-2.361873607166297,0.05301850393868026,0.9656388923330342,-0.19821362362542866,11.315708826208974,-4.02972499241947,18.008251926610665
1760958284.6465502,-1.983478204969519,0.06144870590624165,0.9638128674593888,-0.1977120698190331,10.993367160977904,-2.872581563160377,18.498080406310685
1760958284.6564002,-1.6111941449673846,0.06443824761753025,0.9620687208105603,-0.19554929332182386,10.416506279359895,-1.26214930994075,18.517691577049433
1760958284.6664147,-1.2601805759294094,0.06176367242592192,0.9605816742816402,-0.19199389020763843,9.629152091229278,0.7568863093815549,18.10733953754501
1760958284.676429,-0.943976769832248,0.05364852625255694,0.9594586265718353,-0.18749399634892241,8.685293997264775,3.0993176217226908,17.33821443077028
1760958284.686444,-0.6735785030337874,0.040713002717608554,0.9587288877437492,-0.18262567657954393,7.643241651339949,5.647517223430987,16.302749813034257
1760958284.69657,-0.45682550952379825,0.02388548116095924,0.9583484894203105,-0.17802202617035542,6.560481298877353,8.263710992855312,15.103401134461107
1760958284.7064366,-0.29812528504418445,0.00429680320853705,0.9582157338238333,-0.1742942706623425,5.489440386366231,10.804786169317039,13.84121151492473
1760958284.7164073,-0.19849169931048163,-0.016825505311182314,0.9581957974243627,-0.1719561974997251,4.47434943586803,13.137670218561803,12.60542664116007
1760958284.7266893,-0.15584826883698022,-0.03825364446950439,0.9581513238114491,-0.1713621954877111,3.5491747636050572,15.153270537477631,11.465229419385299
1760958284.7363796,-0.16553413388657434,-0.05884388730042035,0.9579731234164252,-0.1726673892374972,2.736453341280628,16.777176441481043,10.464390473547066
1760958284.7463815,-0.2209480153288114,-0.07760882993871779,0.9576029883396799,-0.17581543582465492,2.0468390382855834,17.975778628474497,9.619313302533028
1760958284.7564318,-0.31426423573425266,-0.09377632778657628,0.9570424208591974,-0.1805552128193645,1.4792652040817786,18.757130438640964,8.920613330948584
1760958284.766535,-0.4371531958125821,-0.10683157188148024,0.9563463888481459,-0.18648249376775583,1.021779728163951,19.166673746239187,8.338015676378676
1760958284.7765522,-0.5814401252037295,-0.11653816378795583,0.9556066226780239,-0.19309835162386857,0.6532098959034076,19.27872515660289,7.827989010568718
1760958284.7866988,-0.7396442816188356,-0.12293549731910222,0.954931406549224,-0.1998741873389075,0.34577886360076426,19.185170204870463,7.343166243145653
1760958284.7965806,-0.905355346187324,-0.12631145575183847,0.9544278608688844,-0.2063143988961249,0.06861767800612377,18.983003193791948,6.842283108046167
1760958284.8067255,-1.0734213022996428,-0.1271506693132391,0.9541903009642705,-0.21201005492832736,-0.20813298203120364,18.762204021666175,6.299175456606401
1760958284.816572,-1.239940397024105,-0.1260602844406761,0.9542963687462577,-0.21667849171606088,-0.509165418229943,18.595140631724423,5.709410723380805
1760958284.8265252,-1.402067627209139,-0.12367784753567423,0.9548112590469766,-0.22018477701039652,-0.8504517887874466,18.52840549171502,5.093445732515333
1760958284.8366795,-1.5576629249900036,-0.12056929294615208,0.9557985185323905,-0.2225428223414649,-1.236923744192808,18.57778892340028,4.495767376710212
1760958284.8465083,-1.70482531898323,-0.11712932166521432,0.9573340093669485,-0.22389665317748222,-1.6618248179560002,18.726899392544,3.980152220190214
1760958284.856642,-1.8413774461127337,-0.11350126262783007,0.9595192057738022,-0.22448553883179792,-2.1078980800257616,18.929679939674067,3.621800319296803
1760958284.8666034,-1.9643864010073453,-0.10953610267408095,0.9624910891511369,-0.22459993816348206,-2.550289065603236,19.116715505984466,3.4975189411952683
1760958284.876479,-2.069820695098822,-0.10480675457241222,0.9664270067146398,-0.22453688458772417,-2.960799747151863,19.204811743590014,3.6753008786822394
1760958284.886475,-2.1524361060600516,-0.09868231515487744,0.9715431410239536,-0.22456184454241782,-3.3129390792847113,19.108903357194944,4.20459010597679
1760958284.8966582,-2.205949030333195,-0.09045152836924429,0.9780849607017764,-0.22488006988776144,-3.587095614454006,18.7549774015501,5.108329954029602
1760958284.9065773,-2.2235016123478126,-0.0794716253709818,0.9863074230349372,-0.2256164764671232,-3.775115701186482,18.092457402180575,6.37761759653264
1760958284.9164505,-2.1983653760137654,-0.06531342890554666,0.9964424942786855,-0.22680081165098526,-3.883612775851933,17.104465072429115,7.969481543166825
1760958284.9264436,-2.1247854044086987,-0.047876443260015486,1.0086531833936163,-0.22835502676062236,-3.9354824567125695,15.814564940507323,9.807972174530812
1760958284.936606,-1.99884332575503,-0.027455383053906043,1.0229771691596383,-0.2300823983249991,-3.969358891248218,14.288941670248061,11.788432408089806
1760958284.9464285,-1.8192154890700698,-0.004748997952082882,1.0392680613866734,-0.23166168478328314,-4.037057188149024,12.633398860059618,13.78453218811573
1760958284.9565654,-1.587719277972412,0.019189106712606936,1.0571469480993694,-0.2326519069478743,-4.199311301849103,10.985082205236008,15.657436735929974
1760958284.9666314,-1.3095683437358223,0.043051384766100535,1.0759793216776607,-0.23251261239299098,-4.520292988789912,9.499420612113552,17.266338681135938
1760958284.976657,-0.993288712685521,0.06541878928717894,1.094889783356892,-0.2306412605679587,-5.061500224241202,8.333426497076408,18.479499162130328
1760958284.986711,-0.6502784016380232,0.08493153764782382,1.112817515655571,-0.22642493326264632,-5.87564876974365,7.627136520375724,19.18489898012932
1760958284.9965875,-0.2940260042774886,0.10047039411803363,1.1286029910506246,-0.21929909059526204,-7.001182978878697,7.4855071628419685,19.299599555635204
1760958285.0064447,0.060954087370913866,0.11132284169617325,1.1410891045381466,-0.20880358262174262,-8.457942288743222,7.96339213095701,18.7769485900108
1760958285.0166278,0.4003566188312379,0.117299522729291,1.1492239851403132,-0.19462774193811097,-10.244403872317665,9.056188263532913,17.610825062504478
1760958285.0264845,0.7113207686910726,0.11876462110488845,1.1521631388156433,-0.17664125128588026,-12.336809638998007,10.698202090065815,15.836224806809913
1760958285.0366554,0.983469152632226,0.11655953445692137,1.1493714119183152,-0.15491191342477165,-14.690396984033578,12.76969160152389,13.525717478796969
1760958285.046452,1.2095826687108608,0.1118309313738769,1.1407145424307417,-0.12971338922462303,-17.242840903346163,15.111994982624305,10.78174748661669
1760958285.0565166,1.3858220913126702,0.10580571938117388,1.1265171207623772,-0.10152631006392096,-19.919785403097546,17.548514343316114,7.725408264984839
1760958285.0665612,1.5115029852325041,0.09956911352451414,1.107563758453517,-0.07103530773886539,-22.641966926873778,19.90804322507582,4.483026483465066
1760958285.076488,1.588509471153685,0.09389373175810022,1.0850348158561571,-0.03912120346876899,-25.3330262063021,22.046387661984628,1.1723854257308755
1760958285.0864828,1.6204781979274725,0.08914637155022842,1.0603865718103394,-0.006842264137680429,-27.92684410309586,23.862558998505115,-2.109482752236422
1760958285.0964353,1.611896076178977,0.08527672760961724,1.0351984705422095,0.024605362720742346,-30.373231886899976,25.306896230606018,-5.295287539804221
1760958285.1066003,1.5672412668121543,0.08187575698039877,1.0110147815734922,0.05395659320680802,-32.64106206278809,26.380042864562714,-8.352139947144195
1760958285.1164224,1.4902669170359488,0.0782826610067951,0.9892061645001754,0.07997738226458044,-34.718376556627675,27.123418379934495,-11.281416044019181
1760958285.1266353,1.3834924801288475,0.07371822194009467,0.9708691485297908,0.10158730126373362,-36.60954529479407,27.603326113728503,-14.11399833946675
1760958285.136912,1.247936829777218,0.06742565360491908,0.9567699893284058,0.11798661611451625,-38.33003312309307,27.89182874755699,-16.901605334019767
1760958285.146618,1.0831026911926012,0.058802735463504154,0.9473283356579979,0.1287639290954439,-39.899656661310736,28.047846291462417,-19.70530802812538
1760958285.1575446,0.8871993750070507,0.04750729771604087,0.9426309271451938,0.13396049195369192,-41.33534663189274,28.10161277209109,-22.5825809081892
1760958285.166575,0.6575678305162357,0.03351584156033568,0.9424671535309266,0.13407359592597698,-42.64440417584941,28.044831327133497,-25.574359490269693
1760958285.176566,0.39125202200639847,0.017120999923299313,0.9463821276555529,0.12999314983611795,-43.819084724561655,27.827822661226808,-28.693583402443124
1760958285.1866927,0.08564981898862145,-0.0011282551214728423,0.9537435697105814,0.12288013073631517,-44.83310109764912,27.363885735298958,-31.91660302966693
1760958285.1966753,-0.2608226177872405,-0.020516899650268896,0.9638153999708264,0.11400867164040343,-45.640376323541645,26.540137502103526,-35.17861535590133
1760958285.2065706,-0.6481107497691533,-0.040245981324268626,0.9758270098648361,0.10460102061958286,-46.17616107836375,25.233355819517914,-38.37394049768786
1760958285.2165885,-1.0739957064015144,-0.0594786090982838,0.9890268771344833,0.09568479567380671,-46.36047995836877,23.328845609001302,-41.36144081109988
1760958285.2266033,-1.5337097993226518,-0.07735068770953232,1.0027138039738726,0.08799561439560424,-46.103763510702954,20.740056352826937,-43.97478095216294
1760958285.2365563,-2.0197421570420184,-0.09297346840804659,1.016245482873868,0.08193752000223077,-45.31442563564815,17.426528126406215,-46.03665457315164
1760958285.2465916,-2.5218812507122004,-0.10545889284145171,1.029027889945197,0.077601992057729,-43.9080173736309,13.407698593088677,-47.37566461093972
1760958285.2565136,-3.027529834081807,-0.11398077533569914,1.0404902108128746,0.07483701530688028,-41.817394422124494,8.770255520543133,-47.84426958893046
1760958285.2666838,-3.522306220485169,-0.11786290655865408,1.0500532042467507,0.07335166324208066,-39.0030970571671,3.667248422122851,-47.33608230563216
1760958285.2766206,-3.9909167766603137,-0.11667416714773034,1.057106152231813,0.07283703106514507,-35.462919402475634,-1.6918126011905714,-45.80079988369304
1760958285.2866828,-4.418251469446021,-0.11031159050089841,1.061013805239708,0.07307953025332177,-31.239474130205615,-7.059224903425719,-43.255119603131035
1760958285.2966888,-4.790620530863018,-0.09905906845228968,1.0611715947744331,0.07404012598878898,-26.424461554757396,-12.173507738042186,-39.788150668457114
1760958285.306417,-5.097019888238289,-0.08361660335451698,1.057110145770127,0.07587809206258948,-21.158434205280773,-16.78635672910039,-35.56016372737274
1760958285.3165228,-5.330290901263505,-0.0650972076115323,1.0486236456506453,0.07891134457854687,-15.625263741679019,-20.687745688325425,-30.79418815806213
1760958285.326483,-5.488032238191687,-0.04498544796137109,1.0358769711102358,0.08352282036262758,-10.04128027004427,-23.72494360136863,-25.760995698854543
1760958285.3365383,-5.573135483380531,-0.02505196085299504,1.0194501334191444,0.09003784272077273,-4.639950314246367,-25.812376803435267,-20.759124907673794
1760958285.3465414,-5.593855765620142,-0.007227832707312326,1.0003042254873216,0.09860642906043027,0.34628052053689407,-26.93111375732906,-16.09239294962342
1760958285.3565285,-5.563390351285632,0.006545068755698014,0.9796808833626997,0.10912390536027293,4.704848990636506,-27.118782076963253,-12.047585915286625
1760958285.3665273,-5.499007133056544,0.01446722113095244,0.9589606210467657,0.12121253475146253,8.260262495318216,-26.452513016003557,-8.87476160408144
1760958285.376489,-5.420822523845689,0.015022843774529279,0.9395045458510457,0.13426904638580897,10.887295544970083,-25.028762389329586,-6.771981543427188
1760958285.386468,-5.350363252297526,0.0071030516650552825,0.9224983314859763,0.14756337270600423,12.518340536918814,-22.944366844059985,-5.875449796034059
1760958285.3964612,-5.309058825598403,-0.009891136177077481,0.9088137631347782,0.16035967037760515,13.14399783903474,-20.282805658515098,-6.2551385693012405
1760958285.406531,-5.316804250070651,-0.03596832386864488,0.8989032112078087,0.17202796758022995,12.807329150445206,-17.108362864679965,-7.915212110910885
1760958285.416528,-5.390709044353021,-0.07049408831138769,0.892743414686453,0.18212322850178825,11.593599789814418,-13.469000072943478,-10.798070880552972
1760958285.4265418,-5.544116330084479,-0.11217588490915113,0.8898417147390374,0.19042033744504586,9.618261214504942,-9.406742579819245,-14.790692681265726
1760958285.4367177,-5.78594542015932,-0.15910013719315252,0.8893072947339782,0.19690112663762427,7.01598513992301,-4.972736707018637,-19.732122583558972
1760958285.4464471,-6.1203863549204325,-0.20883670365287552,0.8899760384066215,0.20169349307745454,3.9328004077926817,-0.2431596990624292,-25.421371758005904
1760958285.456585,-6.546949513240646,-0.25861740268805505,0.8905677175101766,0.2049682489103234,0.5221862139856269,4.6680234359952,-31.6254932685665
1760958285.466562,-7.060841627222406,-0.3055782033519353,0.8898509438067606,0.20681053072220704,-3.0552462367185886,9.602834278258392,-38.088044457710375
1760958285.4765592,-7.653603003908372,-0.34703535725739615,0.8867928157036347,0.20709719867760468,-6.629838570109157,14.361611920892955,-44.53836732239127
1760958285.486768,-8.313909881987309,-0.38075280739279915,0.8806754036640396,0.20542051103800588,-10.020706786073646,18.71412210751742,-50.70203629497693
1760958285.496423,-9.02843373864743,-0.4051577252281752,0.8711689868443068,0.2010923731541557,-13.035422139187288,22.417836810735658,-56.31246907923303
1760958285.5067651,-9.782662762210936,-0.41947347327172463,0.8583599064653171,0.1932431525280933,-15.473375200412713,25.240363493435286,-61.12324301877781
1760958285.5164394,-10.56162414024826,-0.42375943102938624,0.8427378265488294,0.18100396150853973,-17.134045267639838,26.982305921078833,-64.92033699680216
1760958285.5264678,-11.350484572802456,-0.41886554915685936,0.8251514879941927,0.1637409425624149,-17.830607432885973,27.49691501280049,-67.5334359532391
1760958285.5365913,-12.135036002309594,-0.4063179992058444,0.8067407481243716,0.14129810342065252,-17.408288613846963,26.703621015101046,-68.84551565354559
1760958285.5465071,-12.902086907923572,-0.3881506608123038,0.7888467936996818,0.11420063884536538,-15.765606605441159,24.593775860891196,-68.80003359798582
1760958285.5565784,-13.63977755681374,-0.36669248829313966,0.7728982003502564,0.08377146437906013,-12.87532650580683,21.22851977632134,-67.40511753081756
1760958285.5664804,-14.337825941188532,-0.34432019771735783,0.7602730520518343,0.05212001489126217,-8.801108129330338,16.73036070897341,-64.73416893336429
1760958285.5765936,-14.987697308031661,-0.32319254010826687,0.7521460650071653,0.021977873930618324,-3.7058058129220814,11.271379588630564,-60.922332953093374
1760958285.586484,-15.582681889658588,-0.3049953958885504,0.7493398263679012,-0.003615864299988788,2.151664611675314,5.061417510975549,-56.158421413104996
1760958285.5964417,-16.1178677800765,-0.29073909584929053,0.7522051258524584,-0.02173906213996365,8.432248209021475,-1.6611340165140418,-50.672229187647496
1760958285.6066005,-16.590008861337427,-0.2806511212118071,0.7605536398581438,-0.03004599915605397,14.744681804243541,-8.634973369014231,-44.71781047646075
1760958285.616579,-16.99730660213838,-0.274193819742462,0.7736578868796451,-0.02716926082493546,20.682515320964956,-15.578843936267083,-38.55408072018771
1760958285.6264942,-17.339143039115164,-0.2702116937919387,0.7903219500591638,-0.012978256656691042,25.86553316269866,-22.194029778072412,-32.42482672872484
1760958285.6366634,-17.615814425034465,-0.2671850025107826,0.8090156299554709,0.011359948275044924,29.979799956963927,-28.169146655386115,-26.54054079578903
1760958285.6466293,-17.828316291482775,-0.2635439107234825,0.8280570358283431,0.043524712964655786,32.81046377327571,-33.18974137513053,-21.064273933618882
1760958285.656479,-17.978218770974344,-0.2579847961461349,0.8458245364599085,0.08035203089318489,34.262524182446874,-36.9543091603644,-16.103002279498792
1760958285.666651,-18.067647800183668,-0.2497304123434128,0.8609766468025042,0.11824203905255778,34.36686610754938,-39.196867547415664,-11.70507254367953
1760958285.6766553,-18.099359568565653,-0.23868982338223171,0.8726562069753551,0.1535868727221572,33.271486081022076,-39.71438383756897,-7.86342240832974
1760958285.6865773,-18.076870226308465,-0.22549855475750655,0.8806537408731092,0.18315419695779528,31.22029285314468,-38.39552315221899,-4.523670178667196
1760958285.6964428,-18.004585940829912,-0.2114439451488394,0.8855056134187509,0.2043867879011047,28.5234626324112,-35.24587311308296,-1.5958883831446615
1760958285.7065077,-17.88787147163249,-0.19829508562506523,0.8885055556668051,0.21560341492766852,25.523734178284098,-30.404463598138634,1.031197301262995
1760958285.7165487,-17.732998739774526,-0.18805972046091335,0.8916130436190636,0.216100944507961,22.5624575176424,-24.147218585495235,3.4748722846346194
1760958285.7265918,-17.5469330202123,-0.1826910078312212,0.8972503914799917,0.2061632077844829,19.948252984258044,-16.874789396860486,5.843306636098557
1760958285.736643,-17.336947225528956,-0.1837744424238401,0.9079936660068945,0.18698631994945442,17.93033189340518,-9.084632942490861,8.22202528768664
1760958285.7465758,-17.110101121296307,-0.19223712608418822,0.9261797554587353,0.160535281203968,16.678057987735322,-1.3297402524446693,10.663297019529683
1760958285.7567935,-16.87266672848023,-0.2081260441311769,0.9534716482943266,0.12934877634211128,16.26805235770717,5.831364177754364,13.179550490799116
1760958285.7665415,-16.62960377272946,-0.23049253951596646,0.9904443779608999,0.09630630704249515,16.679854413045277,11.887210630715852,15.741605648794105
1760958285.776888,-16.38417906914842,-0.2574014648808891,1.0362695396434074,0.06436863888473564,17.800728074712524,16.42186433839039,18.282152272174184
1760958285.7866778,-16.137785007045053,-0.28606411399322473,1.0885790106844329,0.03630382588153297,19.43961059686295,19.153165995288486,20.704514464951302
1760958285.7967389,-15.889961174034319,-0.313080754303248,1.1435740493709565,0.01441586618054309,21.349457942426817,19.956232473518867,22.896226815435735
1760958285.8065605,-15.638581885657638,-0.3347738264066333,1.1964115144452923,0.000296947965026306,23.256398341060336,18.870135088809754,24.74625339962497
1760958285.8166325,-15.380157015451287,-0.3475915475568664,1.2418419311430058,-0.0053739597526479815,24.89321001047964,16.088372020339413,26.163875169383946
1760958285.8266351,-15.11020402573622,-0.3485544355157085,1.27500161360894,-0.0029599429043460908,26.033714077359214,11.93602468903471,27.096547276300516
1760958285.8366907,-14.823671548578924,-0.3357005128824121,1.2921985744949662,0.006110865921671034,26.523816932899948,6.837647693593356,27.54362250548488
1760958285.8464408,-14.515412256111246,-0.3084653493963586,1.2915143771183686,0.01946416271574496,26.304434354551717,1.2797413351606728,27.56297554435904
1760958285.8566635,-14.180704000268731,-0.26792196522685097,1.273088819262875,0.03406118132878387,25.42180527807203,-4.2294822787330935,27.268407296058793
1760958285.8665266,-13.815801005397004,-0.21681096510384165,1.2390418223668453,0.04662663286365557,24.022073160179914,-9.201502997094357,26.817253398728766
1760958285.8764632,-13.418467792423776,-0.15931662337950453,1.1930757100433897,0.05415828312871046,22.329469199238844,-13.208848616142083,26.38957822144131
1760958285.886624,-12.988421987308604,-0.10059016483402791,1.1398613591752096,0.05441718186809396,20.610580191440235,-15.92429763698341,26.162162751222503
1760958285.8966722,-12.527605095605832,-0.046079511625324844,1.0843367906261436,0.04629104888434008,19.130300331794604,-17.154174583700595,26.2816422970365
1760958285.9066987,-12.0402206666057,-0.000776947059333822,1.0310414862438482,0.029951259276822694,18.107256334465205,-16.8605968170951,26.841338088967753
1760958285.9166844,-11.53251974668249,0.03147737919844573,0.9835827283774368,0.006775153157227363,17.676998518822653,-15.167465792724556,27.865607198551302
1760958285.926574,-11.012360122841772,0.04850588709005351,0.9442945340251481,-0.020939838256998303,17.869803176120403,-12.346785676501135,29.30414981054154
1760958285.9365046,-10.488609499258642,0.05002520251197343,0.9141168842862515,-0.050402149706717775,18.606929163652957,-8.78524389393589,31.03696341673117
1760958285.9466205,-9.97049632752875,0.037563414066383694,0.8926942608363109,-0.07880230791342784,19.715461013694956,-4.934941871891251,32.88886035887155
1760958285.9564216,-9.467022231583716,0.014091394088258914,0.8786639073444906,-0.1037485198175895,20.958372587442796,-1.2555682574631375,34.651045638513054
1760958285.9665427,-8.986524496863543,-0.016547617387372007,0.8700770955679298,-0.12358886008052579,22.073906585116013,1.8428037640352826,36.10649502581753
1760958285.9767048,-8.536419916571193,-0.05029025144156721,0.8648752924514143,-0.13757802727099785,22.817221742881696,4.047282022866955,37.05583537612744
1760958285.9865308,-8.12309456866956,-0.08345683049738466,0.8613301659489165,-0.145878756842998,22.99753461073567,5.173210901254729,37.34086235820262
1760958285.9966445,-7.7518550438074385,-0.11319500971097265,0.8583590787147561,-0.14941468795007107,22.50534843327025,5.17525056643619,36.86339545720364
1760958286.0065024,-7.426843501742956,-0.1376983711572256,0.8556551113765553,-0.14961337559962454,21.326360015388943,4.1387131613483295,35.597695684186476
1760958286.0166051,-7.150844429631513,-0.15619654723749693,0.8536175386274298,-0.148095367847922,19.540862467689834,2.2545475550437746,33.595204716616266
1760958286.0265453,-6.924963497226808,-0.16876541712104948,0.8531160759125072,-0.14637312444969364,17.309624381202827,-0.21652346634692854,30.981028843621797
1760958286.0365164,-6.748219596440377,-0.17603272825070393,0.855156714073923,-0.1456174445124464,14.84911146236691,-2.984328558539652,27.942436012475124
1760958286.046439,-6.617142406840979,-0.17885836569650734,0.8605371189238654,-0.1465290183184455,12.400322775591144,-5.767937181860782,24.710572137957477
1760958286.056531,-6.525496576305214,-0.17805881289889053,0.8695823114639017,-0.14932336835070845,10.19622321869612,-8.327810252519994,21.537457486767163
1760958286.0666127,-6.464249908498385,-0.1742253113844881,0.8820267863075417,-0.15380789759295602,8.432605671893862,-10.488216915967296,18.670922894696385
1760958286.0765922,-6.421862796309532,-0.1676548932737398,0.8970584028893462,-0.15951150894976104,7.246226466725615,-12.148515558615065,16.330368999866
1760958286.086491,-6.384909218792945,-0.15838098067646122,0.9134866426745101,-0.1658265995034637,6.702485002665381,-13.283463299884497,14.686034217641401
1760958286.0965257,-6.338968928866292,-0.14626932427317174,0.9299707344700985,-0.17213530115305545,6.793180113098765,-13.933926312746728,13.843898097796943
1760958286.1065972,-6.2696791389511874,-0.13114127018951963,0.9452459693499631,-0.17790559782677695,7.443363247185819,-14.1902129769532,13.837569777324038
1760958286.1166117,-6.163813391226092,-0.11289404746274609,0.9583045576180182,-0.18275181485877556,8.525262959998443,-14.170773615332257,14.627666445412148
1760958286.1265361,-6.010263905592796,-0.09159884357201976,0.9685076995413324,-0.18645888616366518,9.876743333566152,-13.99922728058674,16.10838002216405
1760958286.1366303,-5.800832039974172,-0.0675669024419033,0.9756233469955955,-0.18897373238804924,11.32168655965287,-13.782626603595807,18.120224476040224
1760958286.1464891,-5.530767680398095,-0.0413799389412646,0.9797976018725444,-0.1903706939950938,12.689882742560531,-13.59360392700214,20.467389951752182
1760958286.1564791,-5.199033292032005,-0.013884585243809438,0.9814755909382875,-0.1908005203938054,13.83434270800474,-13.458569199457413,22.9377357219636
1760958286.1665516,-4.80829766184462,0.01384673598679047,0.9812903890104047,-0.1904338155857759,14.644388239060847,-13.353438254274685,25.32325639113413
1760958286.1764731,-4.364686957372289,0.04058310937478502,0.9799386289161822,-0.18941043893174622,15.053419306707847,-13.207472064920164,27.438868162931286
1760958286.1865182,-3.877336285621588,0.0650224197259498,0.978061269840619,-0.18780564462383584,15.040903781845236,-12.914767475985293,29.137607136668297
1760958286.196746,-3.357792521806917,0.0858893265769359,0.9761472476250665,-0.18562044855010137,14.628855487486351,-12.351865898403208,30.320823725719364
1760958286.2065487,-2.8193185417583644,0.10203528813591961,0.9744744265583584,-0.1827978377814456,13.873775470894303,-11.398992687275992,30.942635511802873
1760958286.216689,-2.276142830894162,0.11253281809109647,0.973096088066903,-0.1792601448601563,12.855580173656863,-9.961792412932553,31.008631678566584
1760958286.2265148,-1.7426914847684432,0.11675600786238707,0.9718733776179419,-0.17495836762444766,11.66530380338817,-7.990240064831371,30.56948383222205
1760958286.2369652,-1.2328349274673491,0.11443956295803538,0.9705456427724762,-0.16992178909713446,10.393319850938061,-5.49175060929589,29.710643350650237
1760958286.246706,-0.7591787828449689,0.10571104733185724,0.9688226754501884,-0.16429570276229202,9.119541683843572,-2.5363462275854407,28.539657823207975
1760958286.256499,-0.33242508701673573,0.09109534564689872,0.9664780382895671,-0.1583568419824844,7.906614530222432,0.747047808729373,27.172789338157955
1760958286.2668316,0.03917444104772234,0.07149420668842661,0.9634230567882035,-0.1525004734091764,6.796567573733712,4.182730305485604,25.722545589675256
1760958286.2766497,0.3502555612764683,0.04814507982859819,0.9597464990511507,-0.1471990940622483,5.8108234055203205,7.567045431784502,24.28745309276302
1760958286.286692,0.5986528936939531,0.022561907705252775,0.9557133932242752,-0.14293889228875675,4.952951503598404,10.69121796328826,22.944970259979808
1760958286.2968075,0.7855661844221903,-0.003542588368480932,0.951725491241349,-0.1401456027713359,4.213202276692267,13.365050367631152,21.747940942171514
1760958286.3066206,0.9155561670539182,-0.028355814097597812,0.9482535815516118,-0.13911506611200347,3.5737447936706133,15.438388469027815,20.72450059832065
1760958286.3166354,0.9963408337363966,-0.050087017724657526,0.9457568069137471,-0.13996407504662284,3.0136690694650543,16.817784628715607,19.88092925004811
1760958286.3265467,1.0383672389860692,-0.0671083179209572,0.9446056263443317,-0.14261280722033273,2.513123537123033,17.476597532602657,19.206648013853698
1760958286.3366053,1.0541503412412625,-0.07810404954459348,0.9450227412146213,-0.1468024124520674,2.056286549765701,17.457654427953422,18.680402660431294
1760958286.3464937,1.0573980416854858,-0.08221083233738836,0.9470507373452209,-0.15214307704264504,1.6330913683455657,16.868413654359063,18.27666254635339
1760958286.3566337,1.0619764451308225,-0.07912733022759456,0.9505482535816965,-0.15818138245041555,1.2397298381164974,15.869271186494966,17.971366203482994
1760958286.3666809,1.0808060778867994,-0.06917275462546996,0.9552104792972689,-0.16447175418295698,0.8780282671547337,14.656297010886822,17.74633804064557
1760958286.3765898,1.1248097439213707,-0.0532776018499609,0.9606066185407192,-0.17063603657530002,0.5538767173465027,13.440265816684322,17.591946632779617
1760958286.3865013,1.2020439434752495,-0.032900154405108954,0.9662275936634127,-0.176398803979866,0.2749928738237706,12.424283210214751,17.507831674632257
1760958286.3965178,1.3171302180589304,-0.009876052957840378,0.971540303096155,-0.18159349583850093,0.04837751932284986,11.782506817977332,17.50176080026739
1760958286.406584,1.4710620164381336,0.013778993818020752,0.9760466084550453,-0.18614325988558464,-0.12215182186795363,11.642354477678946,17.586877420795176
1760958286.4166105,1.661405193881239,0.03608489122146826,0.979343672308665,-0.1900273395941474,-0.2379753630302963,12.07216359771339,17.777772689614128
1760958286.426717,1.882847084697544,0.055299595258627876,0.981179208907468,-0.19324675979178715,-0.3069075214830586,13.07557652986653,18.08596078189128
1760958286.4366293,2.127994357332892,0.07007983799845782,0.9814942703295929,-0.19580124653180503,-0.34342841383051576,14.593095042950209,18.515433948240233
1760958286.446594,2.3882896038998864,0.07958219266914011,0.9804481693941935,-0.19768379202204753,-0.3678547675872416,16.510394256874548,19.058983595441635
1760958286.456491,2.6549191143856112,0.08350121447589284,0.9784229162125774,-0.1988924310926388,-0.4046019912911908,18.67221552979166,19.695873723654273
1760958286.4667664,2.919611910855804,0.08205306200726412,0.9760065987751786,-0.19945285749084984,-0.4798402486984952,20.900061926875946,20.391251319897023
1760958286.4765396,3.1752658116316987,0.07591723636856355,0.9739565377437072,-0.19944150790272858,-0.618884680392198,23.01157160340245,21.097403595824066
1760958286.48692,3.416367886925205,0.06614814116637427,0.9731437496599853,-0.1989972335272441,-0.843623339425517,24.83937656330051,21.756671633617945
1760958286.4965954,3.6392020642669585,0.05406674617501437,0.9744800352898433,-0.19831152697723184,-1.1702600255789275,26.24745609125784,22.305570503770596
1760958286.5065138,3.8418576403799922,0.04114218219099776,0.978828941020508,-0.19759288331153627,-1.6076631123308063,27.143419979658418,22.679512817567154
1760958286.5165906,4.024068327434893,0.028871815690487343,0.9869041324846934,-0.1970089091014789,-2.1566175145528828,27.48574430182319,22.817516428081163
1760958286.526437,4.186919500667601,0.01866518532305471,0.9991641620379581,-0.1966172903470375,-2.810214683624472,27.28565816294701,22.66637106913866
1760958286.536528,4.332461501675558,0.0117341709079975,1.015718509099257,-0.1963009342367954,-3.555481231386549,26.604042060451082,22.18387697262813
1760958286.5465229,4.463264046911691,0.008992297914211977,1.0362618022887453,-0.19572257859032163,-4.376186100827136,25.544229410899103,21.340899988760896
1760958286.5569248,4.581946981562233,0.010970687083384282,1.0600498142532775,-0.19431079153615544,-5.25661236215628,24.241912224515435,20.12211348698185
1760958286.5665672,4.690726426461249,0.017762378014753943,1.0859249799415518,-0.1912845558374075,-6.185926079411903,22.853401196924175,18.525444419633384
1760958286.5765285,4.791017132143186,0.02900530073215265,1.1123939776839846,-0.18571940689304092,-7.162607627140819,21.54330203998049,16.56041413554207
1760958286.5865266,4.883127064813543,0.043907918648186495,1.1377542759148407,-0.17665399468044218,-8.198244550470845,20.47234114156172,14.245734169664694
1760958286.596689,4.966071341945809,0.06131672262246363,1.1602572242150002,-0.16322961734884592,-9.319865800201557,19.785755027373458,11.606637540261538
1760958286.6067674,5.037524311815743,0.079823458453037,1.1782838818412533,-0.14484616950314474,-10.56999508315836,19.602489578882203,8.672457440497167
1760958286.6168523,5.093919886980382,0.09790663955037048,1.1905042494261022,-0.12130915851876341,-12.003794437215875,20.005507783150737,5.474886761006396
1760958286.6265168,5.130695397046609,0.11409178456868858,1.1959968027875625,-0.09293808526446998,-13.683112565154115,21.03374026751083,2.047154948342016
1760958286.6365967,5.142650949890998,0.12710255942899512,1.194319556530292,-0.06060897898917059,-15.667922297692373,22.676481950217212,-1.5759427838220998
1760958286.6465404,5.124371796308058,0.13597175360858726,1.1855360570508464,-0.02571357845656536,-18.006363527710693,24.871158482144345,-5.3575462051915945
1760958286.6565373,5.070648777556608,0.14009329512060803,1.170202998689088,0.009967261774032045,-20.72511347431478,27.505240720655248,-9.258310338591972
1760958286.6666567,4.976840184573488,0.1392186030742487,1.1493232929182793,0.04446182002793908,-23.82183076309482,30.42266404029664,-13.236507708673084
1760958286.6767223,4.839143720616046,0.13341924586262005,1.1242667795619736,0.0758490992188974,-27.260927631599856,33.434494798204256,-17.248755157791365
1760958286.6866121,4.654777642241408,0.12304356293645442,1.0966631234333344,0.1025052195324888,-30.973126266622955,36.3329078457172,-21.251077219565225
1760958286.6966121,4.4220938893785995,0.10868677385156583,1.0682739590718902,0.12331074461918988,-34.85846893435362,38.90693226200188,-25.1997644843879
1760958286.7066436,4.140656894383387,0.09117749793820487,1.040850995244435,0.13777724014417542,-38.7919270118644,40.958043965470615,-29.051471026073134
1760958286.7165136,3.8113190854347594,0.07156733696443197,1.0159866661884536,0.14606416121152932,-42.63056307845736,42.31370868825277,-32.762218526678026
1760958286.7265399,3.4363112915631393,0.05110357191543292,0.9949682092801674,0.14888060146194176,-46.2212522872529,42.83749749483934,-36.28534240687743
1760958286.736615,3.0193487462421826,0.03117120445498748,0.9786537523318035,0.14729475052708135,-49.40814797388331,42.43529850679197,-39.56879432501941
1760958286.7466125,2.565735681555985,0.013202667127607173,0.9673950728057255,0.1424975082301753,-52.0393468203202,41.058123758043635,-42.5525047095845
1760958286.7565348,2.0824361031978293,-0.0014373760619996409,0.9610300138448409,0.13557770370420044,-53.97257430497986,38.702689005378645,-45.16665620813657
1760958286.7666543,1.5780673308238489,-0.011580347993540626,0.9589541118898378,0.12736174009167936,-55.08012069638076,35.41107814014745,-47.331703457934
1760958286.7765331,1.0627686640268508,-0.016381321496993093,0.9602595176392182,0.11835165334558942,-55.25358755538917,31.270367768752592,-48.960802573206955
1760958286.7865565,0.5479015590105251,-0.015431842112980758,0.9639099896406474,0.10876828976358183,-54.409104923388824,26.41225014881872,-49.9650155176854
1760958286.7964559,0.045550578255472464,-0.008845834666503617,0.9689114143307291,0.09867948248101285,-52.49345675840337,21.011738413795797,-50.261267587536125
1760958286.8065479,-0.4321828599838325,0.0026924020716675152,0.9744399318353263,0.0881738493352486,-49.49105101696794,15.28330619976478,-49.78258743560911
1760958286.816487,-0.8740686858306441,0.01792981908582021,0.9799035958218668,0.07753122957301026,-45.43107522923484,9.472616420714715,-48.48967618219692
1760958286.826538,-1.2707522866011367,0.03510663073422595,0.9849354184863363,0.06734117937951868,-40.39370349992649,3.8425239637467734,-46.382396802617876
1760958286.836656,-1.6157674527812944,0.05208298980967251,0.9893375828544171,0.0585328303112645,-34.51398359970812,-1.3467029643179298,-43.50944978170949
1760958286.8465297,-1.906419779155623,0.06652415299448125,0.9930079296161762,0.05230168714473414,-27.982042118625962,-5.861277511426397,-39.974423271955466
1760958286.8564973,-2.144390925033092,0.07612746926897773,0.9958761218529187,0.04994487028567875,-21.03850049824685,-9.51859511768118,-35.936669224327844
1760958286.8665605,-2.3359319026451564,0.07886473845604515,0.9978642349274388,0.05263760914025886,-13.964518720373011,-12.208442223843498,-31.606082664248756
1760958286.876587,-2.4915639865329227,0.07320556120055928,0.9988742091595113,0.06119600959471845,-7.066644768500439,-13.906422768154778,-27.231758684190858
1760958286.8865337,-2.625283688119327,0.05828574022141951,0.998797325297026,0.07587388939364367,-0.6575043459226685,-14.676347017619738,-23.085470127576627
1760958286.8968878,-2.7533574474120797,0.03399277324222468,0.9975385919578704,0.0962358188324889,4.965891386047064,-14.660194562743513,-19.44169989957682
1760958286.9065814,-2.892867363520111,0.000957038532386518,0.9950486218696732,0.12113550930840161,9.543989250018447,-14.056604105678652,-16.55639363190705
1760958286.916829,-3.060208450518572,-0.039542058591568036,0.9913536705218318,0.1488104582443796,12.874369251189325,-13.09113736476006,-14.64664394804182
1760958286.9265583,-3.269733383297632,-0.08572874240539732,0.9865716102961045,0.17708367956010918,14.827185309415224,-11.983239380792964,-13.87327513053112
1760958286.9365318,-3.5327020233295943,-0.13550953560630274,0.9809023448427623,0.20364355220397837,15.354817743679348,-10.915476607865521,-14.32789770258357
1760958286.9465222,-3.8566343076034184,-0.1866485420873784,0.9745884945073536,0.22635361314998634,14.494838414776703,-10.010209001168523,-16.02554930222931
1760958286.9564817,-4.245097970288468,-0.23691830460409954,0.9678535093043427,0.24353005340596898,12.366095241847825,-9.31752402830125,-18.903566627865363
1760958286.9666088,-4.697899453930246,-0.28421612663802953,0.960833141767666,0.254126756179679,9.158445292092487,-8.816301610737566,-22.82680856707353
1760958286.9765651,-5.211599725458096,-0.32664824505364326,0.9535176826099819,0.25779140597776534,5.1173494115434135,-8.428012392333198,-27.59874314066775
1760958286.986566,-5.780250688706589,-0.36259375472835126,0.9457183334216346,0.2547913214966381,0.5250746957225603,-8.04066566424952,-32.97726341688779
1760958286.9965723,-6.396237175625076,-0.3907620882085977,0.9370676371445165,0.24583848095334684,-4.319437453171059,-7.5386015070669385,-38.69351171006533
1760958287.0065637,-7.051108902387451,-0.4102527637997819,0.9270630004866375,0.23186315031091598,-9.119881162391168,-6.832840655442835,-44.47157917163768
1760958287.0167394,-7.736297129689514,-0.4206171777669325,0.9151585439725988,0.21379516434864115,-13.599037829537178,-5.886604204464238,-50.04679098023529
1760958287.0266042,-8.443635014247548,-0.4219119104735386,0.9008987774061817,0.19240931605729356,-17.51076082913546,-4.731414398618834,-55.18044301702957
1760958287.0367332,-9.16563750445283,-0.41472476443286616,0.8840707423808233,0.16827310637060544,-20.64672224143499,-3.470790144234764,-59.66941031105572
1760958287.046662,-9.89553920844746,-0.4001530987315527,0.8648372456056315,0.1418046949598808,-22.838366272711657,-2.2707228573500235,-63.35006761687497
1760958287.0566387,-10.627128663827307,-0.3797218890196128,0.8438104138551206,0.1134170907599726,-23.95580269365182,-1.338504544617878,-66.09731861958399
1760958287.0665696,-11.354449577785989,-0.3552446896875734,0.8220361203638714,0.08370180046916258,-23.906232157135022,-0.8936507636962717,-67.82082772039053
1760958287.076834,-12.071460825876384,-0.3286473348151484,0.8008832134415789,0.05359619483195719,-22.63449492204659,-1.1361382389469965,-68.4612713162352
1760958287.0866346,-12.771753450849888,-0.30178397944246543,0.7818585639733995,0.02448394613151759,-20.12736443525428,-2.2175024029462227,-67.98917072530534
1760958287.0964897,-13.448410760100419,-0.27627508512072624,0.766389770340591,-0.001806613396826758,-16.42154512590541,-4.219310373313348,-66.40759570121722
1760958287.1067398,-14.094067010128779,-0.2533890890715441,0.7556243128343604,-0.023121261354455493,-11.613532058199603,-7.141450502829024,-63.75820055622034
1760958287.1167576,-14.701177226363773,-0.23397760815378904,0.7502860056825467,-0.03720958179253015,-5.868144416481231,-10.900320097357476,-60.12844236776646
1760958287.1266615,-15.262465939330973,-0.21846306752485334,0.7506118261068748,-0.0420374314568566,0.577923942531933,-15.335130569693225,-55.65702000284424
1760958287.1367311,-15.771486754179064,-0.2068710866177366,0.7563701244427739,-0.03613351336547249,7.4206797186070625,-20.219611750943585,-50.534670489168555
1760958287.1466126,-16.22320445285208,-0.1988972541191837,0.7669396885922021,-0.018907795517947048,14.303388351026147,-25.276423353077767,-44.99824077903589
1760958287.1566744,-16.614508587140612,-0.1939976018059181,0.7814150607512508,0.0091222290640211,20.8412333341276,-30.19237846106672,-39.317177424856226
1760958287.166465,-16.944581215623675,-0.19149413681633173,0.7987031394234186,0.04624982146032802,26.654216929518,-34.633827557641155,-33.77308639474453
1760958287.1765223,-17.21506836496456,-0.1906893944397513,0.8175895641304962,0.08967080915919327,31.404428705430963,-38.26282112074091,-28.634599960165097
1760958287.1866624,-17.43003830348374,-0.19098296393048486,0.8367741932812502,0.13574656724623213,34.832207843931414,-40.755492503217056,-24.13106483753096
1760958287.196716,-17.595740302107057,-0.1919770671060352,0.8548939585830859,0.18040265473827796,36.785207652994345,-41.82406475643261,-20.429085718558294
1760958287.2065635,-17.720197121384647,-0.19355228262983412,0.8705613281805751,0.21960096801900128,37.23537963193917,-41.24281023181327,-17.6155008318902
1760958287.2165883,-17.81267086666701,-0.19589536262799787,0.88244492924348,0.24981065569336136,36.281197178325705,-38.876418550925436,-15.68913031167183
1760958287.2265658,-17.883039136024305,-0.1994702953441336,0.8894058837703374,0.26840713085085327,34.135215368948636,-34.70719567361129,-14.562090981218844
1760958287.2367334,-17.941112972530657,-0.20493510842457782,0.8906815195994733,0.2739464138286161,31.09946567910137,-28.856094470768987,-14.070045345362415
1760958287.2466424,-17.99592612072193,-0.21301469068812537,0.8860849907405237,0.2662873821945064,27.532741348665922,-21.592306173096333,-13.989705375684276
1760958287.2566187,-18.055031607233097,-0.2243459008924861,0.8761756335907938,0.24655992058189652,23.814416683140887,-13.327156044185498,-14.061337010549625
1760958287.2665324,-18.1238575598793,-0.23931822371189765,0.8623549349682343,0.21699674532878013,20.309155078543593,-4.590148751807375,-14.013863252774225
1760958287.276726,-18.205190752267658,-0.2579369135211886,0.8468527517465254,0.1806589408170893,17.335972454650882,4.01218053039496,-13.590294044619881
1760958287.287112,-18.29885854037878,-0.27973047057721667,0.8325832115326184,0.14109109110033874,15.144010908395876,11.850927643704596,-12.57144955632642
1760958287.2968085,-18.40166023465998,-0.30371401322861763,0.8228681582577192,0.10194346304709716,13.896344115020963,18.336665565291995,-10.796178028384237
1760958287.3066766,-18.50756601900514,-0.32841348840440926,0.8210472170511643,0.06659865192403341,13.662290676748201,22.980499164308778,-8.176486518829801
1760958287.316734,-18.608169891957314,-0.3519546969906707,0.8300154229737561,0.037840166470207104,14.417994376427677,25.44612302277848,-4.706275556129523
1760958287.326702,-18.693359262235663,-0.372219155622093,0.8517485254527745,0.017598992597812044,16.054362501078813,25.585872805530084,-0.46278279903775094
1760958287.3367467,-18.75214506927693,-0.3870599270076812,0.8868879240800744,0.006807492891389003,18.39087959329806,23.45603608557256,4.399584508597427
1760958287.3468144,-18.773579159560548,-0.3945560599161368,0.9344581691734306,0.005376550937205131,21.19348846729498,19.309579017906437,9.66266368082124
1760958287.3567884,-18.747671271288652,-0.39327046927321224,0.9917798766000958,0.012293881446467633,24.194778016117052,13.567485166556573,15.064112612055032
1760958287.3665447,-18.666211029366355,-0.38246844444295186,1.0546209914848133,0.025822328534628288,27.115106278635917,6.772634071719336,20.321403046263097
1760958287.376589,-18.523405576766372,-0.362254524287156,1.117600034935463,0.04375912334048764,29.68381141613064,-0.4678025328073759,25.158001233218425
1760958287.3866673,-18.31626357723148,-0.3335942507696482,1.1748163367065518,0.06370299957941625,31.660056203731486,-7.5442711881714715,29.329276566451774
1760958287.3966243,-18.044691467190212,-0.29820510552510676,1.2206349328151442,0.08327257203560826,32.8529196826938,-13.903520302022333,32.645721352411535
1760958287.4065318,-17.711314237911893,-0.25832979686549495,1.2505035508127744,0.10023807971280031,33.14000001907586,-19.096996040512522,34.991338797971636
1760958287.4166176,-17.321081085379998,-0.2164428353258032,1.2616438549031925,0.11257415359311918,32.48302680383469,-22.81335197133966,36.335447386752456
1760958287.4266045,-16.880752078794767,-0.17497220187416232,1.25346444247259,0.1184941005778739,30.93797154603093,-24.89211708768484,36.73650095738729
1760958287.4366584,-16.398372404629118,-0.13611457942350538,1.2276017417679048,0.11654595858435081,28.656340767500257,-25.319175437253964,36.33682232747945
1760958287.4466574,-15.882818178236908,-0.10177178403291554,1.187590001477396,0.10581063945607252,25.874433737675265,-24.20833838190033,35.34768883185863
1760958287.4566703,-15.343445312662606,-0.0735636580933408,1.1382526485970172,0.08616205371282946,22.888959695204097,-21.775529680093413,34.02537151299706
1760958287.4666274,-14.789808862307675,-0.052830218644910595,1.0849575818144326,0.058482643487995395,20.02048444517019,-18.311928849682342,32.64047391397883
1760958287.476569,-14.23137539424214,-0.040554440613509705,1.0328793720269698,0.02471921625628435,17.569716852837892,-14.159958553667781,31.444619342643673
1760958287.4865263,-13.67715289824426,-0.03720121916291552,0.9863801169895751,-0.01228495031782788,15.774225467419361,-9.692558244984419,30.63945524562048
1760958287.4964945,-13.135215904499827,-0.04253356395092703,0.9485814525575014,-0.04916688036776388,14.773799509630967,-5.293493190384284,30.352736676989082
1760958287.5066462,-12.612181427798246,-0.05549607484290608,0.9211633880843018,-0.08254590613459646,14.59116766998578,-1.335730246661251,30.625028484567235
1760958287.5167203,-12.112751858279339,-0.07423740179458285,0.9043899570277896,-0.10953409631027425,15.131672495199076,1.8437120147895818,31.408674434080382
1760958287.5265377,-11.639452903923969,-0.09629361040303913,0.8973267755159461,-0.12814677080721418,16.201667524671244,3.9714781869826985,32.57857088863693
1760958287.5364723,-11.192655208836788,-0.11890150984707952,0.8981879627057296,-0.13754245451068098,17.54184671065047,4.864752541360047,33.95243432702841
1760958287.546478,-10.770898675524817,-0.13937740079113084,0.9047376953861785,-0.13806786366112042,18.86920881380862,4.45252125562475,35.31704611327537
1760958287.5565035,-10.371467180739794,-0.15548739483579535,0.9146766367798482,-0.13112242852580536,19.92029901817018,2.786523835820237,36.456548189419934
1760958287.566581,-9.991107904131367,-0.16574198541126556,0.9259591689232746,-0.11888299630670754,20.488754658042403,0.0386138101207382,37.179152614481545
1760958287.5767553,-9.626761562314517,-0.16956256779733,0.9370063861586022,-0.10394417835185298,20.451709101786623,-3.516460690366931,37.33935086354052
1760958287.5865436,-9.276169327018854,-0.16729153476780323,0.9468000061317574,-0.08893548183871408,19.78184129818473,-7.531294407528953,36.853586566168595
1760958287.5964992,-8.938248108973351,-0.16004960946983687,0.9548636248543121,-0.07617366077634903,18.544370618445864,-11.625269569016185,35.708229086320884
1760958287.6069727,-8.61317207107962,-0.1494755821853743,0.9611569301426677,-0.0673982998638483,16.880712678201444,-15.427876047318941,33.959529264076345
1760958287.6164892,-8.30215364464996,-0.13740456263526202,0.9659208771605042,-0.0636217441112624,14.982499698117964,-18.6200245287354,31.726062834185644
1760958287.6271238,-8.00696998219007,-0.12554651668812944,0.9695147468429829,-0.06510279113415773,13.060925225650136,-20.96790122737698,29.17492045318639
1760958287.6365283,-7.7293213453634735,-0.11521806861839468,0.9722796238498685,-0.07143039354987818,11.316651785514377,-22.34516053168962,26.503477013804165
1760958287.6465142,-7.470131327431478,-0.10716281356525477,0.9744501373395789,-0.08168510512116932,9.914762439221434,-22.74106276339385,23.91889199194708
1760958287.6566691,-7.228903862607465,-0.10147592719169592,0.9761219595479959,-0.0946383178530066,8.967700807776364,-22.254204475775147,21.61756437091579
1760958287.666616,-7.003240056337978,-0.09763193412357275,0.9772698271010137,-0.1089530497972308,8.527327792992326,-21.07337592331699,19.766623566341654
1760958287.6768563,-6.788592633507271,-0.09460121706907094,0.9778008314597104,-0.12335944148781067,8.585614796486762,-19.44852032482876,18.48919784338699
1760958287.6865263,-6.5783027930172855,-0.09103191606045292,0.9776216275773386,-0.13678762508530265,9.082373264535487,-17.655665889966578,17.854701000760954
1760958287.6965463,-6.363928822196993,-0.08546946399651689,0.9766979833987031,-0.1484491713762005,9.917841537716315,-15.960118281854529,17.874792796643895
1760958287.7066107,-6.13584148981125,-0.07658496993820108,0.9750910364425819,-0.15786668608675364,10.967822458065696,-14.582232036723969,18.505070871413118
1760958287.7165744,-5.884030329065006,-0.0633847027342788,0.9729638536804739,-0.16485869687274865,12.099247418513169,-13.669749734499764,19.65198459436269
1760958287.726674,-5.599039811307874,-0.04537574866967276,0.9705603554471683,-0.16949215696073455,13.184401869499856,-13.279973714554004,21.18395708761602
1760958287.7366538,-5.27293810373804,-0.022668185524416996,0.9681643570123256,-0.17201672048349761,14.112496830207304,-13.373903548784128,22.945309866513902
1760958287.7466116,-4.900217101795675,0.003997267210154433,0.9660497777659985,-0.17279374571882594,14.797771726333126,-13.823000653528723,24.771372769031455
1760958287.756614,-4.478532620625065,0.033295955346263506,0.9644342555459078,-0.17223014619609445,15.183833703819177,-14.427601314886715,26.503174846341157
1760958287.7665637,-4.009214658566662,0.06343020107921275,0.9634465334992716,-0.17072416145624777,15.24441589885383,-14.944462362947844,28.000328011639397
1760958287.7765195,-3.497500875733226,0.09228962978326181,0.9631130424580764,-0.1686273739238336,14.981103638240771,-15.119776458182839,29.151068578703516
1760958287.7867713,-2.9524646733050828,0.11764633059332247,0.9633636546175475,-0.16622461963052884,14.418803990734958,-14.72339949416981,29.87885035087652
1760958287.7968397,-2.3866236080765724,0.13737030017396953,0.9640532879935205,-0.16373075077411053,13.59983157603575,-13.579986344564453,30.14532524273033
1760958287.806786,-1.8152317510943834,0.14964718413687728,0.964994584753496,-0.1613009748830455,12.577472544385852,-11.593160223629233,29.949925529921536
1760958287.8165617,-1.2552862076180047,0.15317570864147634,0.965995380922516,-0.15905018146130626,11.409785928439108,-8.75969749435884,29.326513461432445
1760958287.826672,-0.7243115923721278,0.1473208095826922,0.9668931061265172,-0.15707620775113937,10.154226511869307,-5.171950178545501,28.337687508964766
1760958287.8366725,-0.23902050603415145,0.13220202287460864,0.9675786120914978,-0.15548207241735862,8.863454300579546,-1.0082488005880736,27.06738275795611
1760958287.8466718,0.18602416889345108,0.10870401257339904,0.9680052782584521,-0.15439269088929258,7.58246802711554,3.487362515551775,25.61243027246444
1760958287.8566413,0.5396051577887339,0.0784056067224913,0.9681839743929186,-0.15396242852782993,6.346994906732739,8.033267092337539,24.073761379591804
1760958287.8668015,0.8147704748842094,0.043434218557444636,0.9681679961273768,-0.15437097254781168,5.182908210740873,12.34247788192544,22.547941776488095
1760958287.8767576,1.0093700993835004,0.006262537167274025,0.968033260540689,-0.15580660605175042,4.1063500175872525,16.154626023970472,21.119680811053687
1760958287.8866878,1.1261485788938765,-0.030527945510359582,0.9678582905236717,-0.15843829263402034,3.1242287715692307,19.263614756648412,19.85587467895866
1760958287.8965306,1.1723878408863566,-0.06448794692376054,0.967706816611189,-0.1623805873324817,2.234846212034598,21.537568778993165,18.8016083396288
1760958287.906557,1.1591494094101993,-0.09351756297666197,0.9676142005947413,-0.16765735611720178,1.4285761106696167,22.92894292918627,17.978378487397396
1760958287.916552,1.1002108178802852,-0.1160358384186562,0.967578056996213,-0.17417118949706858,0.6887335006142131,23.474141370959376,17.384638859552467
1760958287.9265516,1.0108219048555136,-0.13108676105689263,0.9675535432072951,-0.18168545251526383,-0.007046155946655883,23.283455812884963,16.998617200519273
1760958287.9365845,0.9064214375046181,-0.13837440012663066,0.9674545873604269,-0.18982517158860532,-0.6845692238387613,22.52330037876724,16.78318334219559
1760958287.9466426,0.8014528979071507,-0.13822826400112498,0.9671633675786588,-0.19810078600352826,-1.3698220321927506,21.39344990733762,16.692330815585944
1760958287.9568505,0.7083993286164687,-0.13150806086944913,0.9665506509310001,-0.2059544998490098,-2.0848561340450487,20.102273900959563,16.678578083457108
1760958287.9665465,0.637121567431168,-0.11946426970793408,0.9655080303367576,-0.2128231663508113,-2.843352583122744,18.84288096652844,16.700351285517424
1760958287.9766116,0.5945378727675243,-0.10357499288173251,0.96398948780413,-0.218206616342498,-3.646667285159291,17.772725965745412,16.72825708379123
1760958287.9866378,0.5846361306937332,-0.08537879733242426,0.9620552910174733,-0.22172864067426695,-4.481260919356381,16.998651813100768,16.74917864715906
1760958287.996596,0.6087716575832336,-0.06631924293392942,0.9599083390477476,-0.2231802900669596,-5.318296760480777,16.56862617499482,16.76738942755937
1760958288.0067499,0.6661767951669835,-0.04761349784994389,0.9579138628811944,-0.22254029586283108,-6.115845114585225,16.470689724616992,16.8023637625177
1760958288.0167246,0.7545908541988308,-0.030156670370059153,0.9565974168210146,-0.21997251861293265,-6.823640806591451,16.638938323200126,16.88356604182532
1760958288.0266798,0.8709105002410685,-0.01447228709868564,0.9566201040518618,-0.2158030752475548,-7.389835383879226,16.965743865962743,17.043059983569854
1760958288.0366702,1.011766104922648,-0.0007138068852838823,0.9587316893543119,-0.21047963216644713,-7.7687992945731015,17.318853232688497,17.3071468397041
1760958288.0468276,1.1739510494261938,0.011286780813368221,0.9637028682851922,-0.20451407687771245,-7.928838632601239,17.561483159146363,17.688343878741435
1760958288.0569034,1.3546617670774053,0.021934245087375664,0.9722395183668638,-0.1984100585884478,-7.858715711423746,17.573112877599428,18.178872937119195
1760958288.0669672,1.5515366171190526,0.03176298946965128,0.9848843981981095,-0.19257959109458048,-7.572080522979462,17.268470399946384,18.74652359774395
1760958288.0767417,1.7625078484751135,0.04132201525346158,1.001914847302862,-0.18725697796211987,-7.109271022778798,16.61229989534236,19.333389355282137
1760958288.0866067,1.985505426161463,0.05106801121114476,1.0232482554082227,-0.18242276484936928,-6.536330697860764,15.627923681173884,19.85763695783416
1760958288.096676,2.218076054580454,0.06128429303608686,1.0483694008453968,-0.177754269989704,-5.941421835619538,14.398342794967387,20.218193994717158
1760958288.1069467,2.4570010577585335,0.07204168200761667,1.0762939929459059,-0.17262016733473423,-5.429017124042521,13.059564263804804,20.302002577654836
1760958288.1168814,2.6980028842443295,0.08320887618029955,1.1055811898525891,-0.1661320004087376,-5.112337450064116,11.786876429726206,19.993246404976254
1760958288.1268172,2.9356133602269523,0.09450526353192565,1.1344047936898205,-0.15725491542004003,-5.104551400580391,10.775768142498272,19.18370537308721
1760958288.136704,3.163239429371071,0.10557541118309592,1.160686572715606,-0.14496577524963355,-5.509359118870129,10.21994210060147,17.783162559982
1760958288.1469872,3.3734171368425057,0.11605926103376885,1.1822847601684616,-0.12843356076361143,-6.411771559495413,10.289276227717785,15.72865118661347
1760958288.1570058,3.5582069615359213,0.12563681720024256,1.1972188714659764,-0.1071889925448245,-7.870073584711459,11.110572922554697,12.991357014197439
1760958288.1666415,3.7096612632783863,0.13403627140293853,1.2039026961136219,-0.08125011916021002,-9.909984364517868,12.753492735459814,9.580223876879067
1760958288.1767173,3.820288449517111,0.14100547239660688,1.201352854380798,-0.05117837184496413,-12.521819759659321,15.223234667433296,5.541723286365077
1760958288.1866586,3.8834470097657388,0.14625733116788847,1.1893407972299377,-0.01805366636149753,-15.661033761980605,18.46040690687429,0.9557746110982933
1760958288.197042,3.893624003907017,0.14940988048176954,1.1684619350000622,0.01662608918587898,-19.251936199206003,22.34732414927308,-4.071620006090171
1760958288.20677,3.8465824535920876,0.14994797323302753,1.140107843313514,0.051101912360810256,-23.193770218366907,26.71895090045048,-9.417887546231357
1760958288.2170506,3.7393923545982277,0.1472315961582753,1.106344546794833,0.08354194228202948,-27.367902715855436,31.37618123056136,-14.953965190697197
1760958288.226859,3.570382904890761,0.14056482333578618,1.0697148090775375,0.1122376356485223,-31.644849326916844,36.09926419106548,-20.553266694109993
1760958288.2369194,3.3390651913779927,0.12932317949732622,1.0329886218994773,0.1357887967088124,-35.89021502426582,40.659854547605775,-26.098172536930683
1760958288.2466295,3.046074371799156,0.11312036535739224,0.9988852933275039,0.15325828897339575,-39.96913579408669,44.83109148348299,-31.483322164130872
1760958288.2566264,2.6931686081451924,0.09198166918879802,0.9697904409082937,0.1642736226183451,-43.74921972199307,48.39595594161232,-36.61572634092395
1760958288.2666256,2.283300139694668,0.0664837379821011,0.9474964217943435,0.16905277940235502,-47.102254835616776,51.154708246097314,-41.412374329805466
1760958288.2769263,1.8207462966448051,0.03782105763756791,0.9330017288426637,0.16834108549979726,-49.905135435202794,52.93236604592157,-45.79646237503496
1760958288.2866576,1.3112618644001794,0.00776982089481725,0.9264051490306343,0.16326311974231217,-52.04058990588204,53.58694939610063,-49.69354277023808
1760958288.2966294,0.7621956614971497,-0.02146183503738442,0.9269188670417086,0.15511425243387833,-53.39835552750524,53.018685312988836,-53.028794687467396
1760958288.3066175,0.18250752286982622,-0.047486634050541474,0.9330045762569413,0.1451355448312081,-53.877425016723066,51.179694222314005,-55.72633690914041
1760958288.316871,-0.41737126942724667,-0.06806274547051466,0.9426156499506539,0.13432569770558178,-53.38987663226308,48.08304266648358,-57.71112244930572
1760958288.327042,-1.0258707648640277,-0.08144150987855668,0.9535111424961826,0.1233368798181065,-51.86658719200917,43.80953764499094,-58.91351494701904
1760958288.3365643,-1.6308140971218774,-0.08667871054389133,0.9635942228463952,0.1124775957463792,-49.26481847134555,38.51031039937669,-59.2761838377382
1760958288.3466268,-2.2201185093612645,-0.08384911070194122,0.9712186722188763,0.10181456016662808,-45.577254189552676,32.403194380914506,-58.76252513988866
1760958288.3565333,-2.782602377353298,-0.07411440706096702,0.9754055438181032,0.09133792903443547,-40.84153946338139,25.761329845790655,-57.36546298977071
1760958288.3668299,-3.3088076322214484,-0.05961450586374523,0.9759233155353203,0.08113681673013327,-35.14880808053977,18.893471737453876,-55.115240432414936
1760958288.37663,-3.7917296382621073,-0.04318120157419919,0.9732118601152661,0.0715288056719783,-28.649248225989528,12.11706404402347,-52.084708324778966
1760958288.386799,-4.227344921081121,-0.027911807572202674,0.9681700655626662,0.06310103820892182,-21.55266821791852,5.726953039246355,-48.390753518748355
1760958288.396672,-4.6148471257456425,-0.016679711286399612,0.9618671083018409,0.05664848079808624,-14.122456429066327,-0.03580517951559808,-44.19095599380689
1760958288.4066572,-4.956544428042149,-0.011683149217630003,0.9552603784377351,0.05302653657925351,-6.662317763569342,-5.009725358147801,-39.67531962044226
1760958288.4166315,-5.2574308339851035,-0.01412996308218501,0.9489962700879958,0.052959187072818194,0.5034866612241611,-9.128228479409769,-35.053834682714275
1760958288.4266057,-5.524505840549186,-0.024123383827788746,0.943336555096275,0.05685440989702393,7.05435620075624,-12.421046023179045,-30.54146093116262
1760958288.4370327,-5.765964307863677,-0.040762157356882975,0.9382094362030517,0.06467480799455408,12.69907705275021,-15.000711205157195,-26.342629459257996
1760958288.446682,-5.990395941392749,-0.06241548530280504,0.9333492062246126,0.07589574879455858,17.199791370759325,-17.036033534400495,-22.63740952902735
1760958288.4566977,-6.206116855034651,-0.08709742425227823,0.9284717820893438,0.08956116485971187,20.39118192310002,-18.717054620679342,-19.571077683193636
1760958288.46664,-6.420713056069215,-0.11285507267966355,0.9234338754727315,0.10442467503426904,22.192542791903083,-20.21772387527669,-17.248100645387503
1760958288.4766016,-6.640822732008967,-0.13809584627493734,0.9183345195597634,0.11914610570941626,22.61144008089277,-21.663015839752806,-15.730714573770875
1760958288.4868572,-6.872133458148299,-0.16180104456388855,0.9135344078317503,0.13250384546236812,21.73885851249545,-23.10632682520122,-15.041540760777364
1760958288.4966836,-7.119529434342751,-0.1835980467677972,0.909588939441864,0.14358148503699855,19.73685256912747,-24.520949729696984,-15.169122031447332
1760958288.5066297,-7.387299547660013,-0.20369015144294322,0.9071122879403601,0.15189147681173262,16.820571384732535,-25.80671583050174,-16.074935321039813
1760958288.516605,-7.679316531714263,-0.22267096468276676,0.9066071277370263,0.15740998333907194,13.237010983150643,-26.810123418517602,-17.700366384253687
1760958288.5266693,-7.999121504140032,-0.24127378923229367,0.9083021541026842,0.1605166312863764,9.242990905617182,-27.354015837766504,-19.972343599704477
1760958288.536587,-8.349887127063704,-0.2601170083052854,0.9120352096098485,0.16185617464075244,5.084724851121624,-27.271527013746333,-22.806796969126335
1760958288.5467458,-8.734271682339985,-0.2795005707144793,0.9172070415248333,0.16215737378336614,0.98101932492116,-26.438728700768337,-26.10974326806353
1760958288.5566318,-9.154203056080167,-0.2992905072811892,0.92281517798782,0.1620510433355563,-2.8883572105501534,-24.80106491047313,-29.776442384787494
1760958288.566703,-9.610639895806722,-0.3189048321426486,0.9275634659030076,0.16192341929518878,-6.388200524975774,-22.389938335469623,-33.68954888585783
1760958288.57666,-10.103348315414085,-0.3373910246782251,0.9300313210850966,0.16182754026475568,-9.427043418461702,-19.327390824888745,-37.717365228692316
1760958288.586696,-10.630715242706296,-0.3535677445861811,0.9288767035389849,0.1614616519183219,-11.950451337387067,-15.818459329030325,-41.71317706047666
1760958288.596826,-11.189606807178144,-0.366196592857965,0.9230400173770007,0.16021491245314654,-13.929693534787223,-12.132361282400588,-45.51637936796399
1760958288.6066978,-11.77528052194992,-0.37415497086162003,0.911916647511666,0.15727642269369907,-15.34788404729703,-8.575076863714363,-48.955911036059035
1760958288.6168995,-12.381370435450462,-0.3765921679754835,0.8954734649093721,0.15179867971234115,-16.18645618632572,-5.457030743465274,-51.85645550756945
1760958288.6269922,-12.99997398957664,-0.3730572121600996,0.8742936523734385,0.14309657387398908,-16.415213269026914,-3.0602698666013968,-54.04774088550602
1760958288.636825,-13.621868696240002,-0.3635844780996987,0.8495416507849037,0.13085032125831672,-15.988844129261157,-1.6095893593961197,-55.37684063919889
1760958288.6467986,-14.236873409867146,-0.3487197687720198,0.8228498082474975,0.11527279858161346,-14.851560400546873,-1.2513148826454799,-55.72258848655126
1760958288.6566386,-14.834346283351147,-0.3294771190032076,0.7961431649461824,0.09720311046434517,-12.949623094610534,-2.0419452694316877,-55.01030887840735
1760958288.6670947,-15.40378538262926,-0.30723416466995696,0.7714328243011158,0.07809735791528682,-10.249515281960202,-3.9469520347929747,-53.224422031693365
1760958288.6799486,-15.935473927882269,-0.28358816647882135,0.7506123029320291,0.05990242374439971,-6.757980981617475,-6.848281952882074,-50.416425631966604
1760958288.6869574,-16.421095222804,-0.2601960303023992,0.7352827649055278,0.044819013374263264,-2.5394915110597323,-10.557979232977214,-46.70632832332022
1760958288.6965277,-16.854238708869094,-0.23861451210756135,0.7266187997430537,0.03498422448116131,2.2729866339390994,-14.835006708400977,-42.27659699680513
1760958288.7068636,-17.230732748786654,-0.2201518943908375,0.7252754262437315,0.032125852577932906,7.476962163523779,-19.402705912634314,-37.35878631882019
1760958288.71701,-17.548768259663344,-0.2057435617799813,0.7313335474162067,0.03725337549485102,12.810612815483749,-23.96514815355814,-32.21404630225607
1760958288.7267408,-17.80881030978745,-0.19586689339420468,0.744283283325975,0.05044858482949874,17.973859233019958,-28.221599772410123,-27.10958403687376
1760958288.736726,-18.013324900722015,-0.19051089049648842,0.7630478271089692,0.07080085967009694,22.657980032345225,-31.879203205300435,-22.293850592888063
1760958288.7468505,-18.166373020577343,-0.18921109620535118,0.7860511390366416,0.09650242498656803,26.57953349213591,-34.66459604919852,-17.973604222431643
1760958288.7565947,-18.273140836596983,-0.19115087750641616,0.8113307407378216,0.1250855486409101,29.51309787053571,-36.33546195043473,-14.295857871044522
1760958288.7667181,-18.339478460483235,-0.19531793322560584,0.8366942836240702,0.15375491665289623,31.31728483024518,-36.69288770602342,-11.336949792410195
1760958288.7766447,-18.37150708897313,-0.20069294794061152,0.8599159433795365,0.17975162787859597,31.949765003335195,-35.594893679898014,-9.099748093298492
1760958288.7865944,-18.37532820704149,-0.2064386803914384,0.8789636864563699,0.20068457846591067,31.469289420551416,-32.97069048735886,-7.518677430149261
1760958288.79672,-18.356836496144766,-0.21205524192234862,0.8922400138182011,0.2147794896690938,30.02522685526365,-28.834286412949194,-6.471180015840758
1760958288.8069942,-18.321609058387132,-0.21747221032657563,0.8988098927444333,0.22101962856952836,27.8372971256837,-23.2952823068003,-5.7935808256212304
1760958288.8167768,-18.274824530599926,-0.22305897693998217,0.8985841607119694,0.21917701395272518,25.169473806631785,-16.564255323090123,-5.299142368792589
1760958288.8268728,-18.221160550108117,-0.22954811195169114,0.8924257409765625,0.20975095946338057,22.30227256369646,-8.950179695574713,-4.796276525181932
1760958288.8366694,-18.164628725206285,-0.23788037154525987,0.8821486667575544,0.19383917699738967,19.50700075518369,-0.8479415013864003,-4.10530446090862
1760958288.8465908,-18.108332834958695,-0.2489938468580127,0.8703872082089382,0.17296786278948156,17.02441514088708,7.284805715167861,-3.072710398779016
1760958288.8568203,-18.054174224265555,-0.2635929132738338,0.8603278830049436,0.14890531678040403,15.049022205656293,14.960545310917661,-1.5824062951226936
1760958288.866944,-18.002566860472356,-0.28194154342794453,0.8553222653154526,0.12348047174843155,13.719224408206529,21.701851402866772,0.43602646969962455
1760958288.8766367,-17.952246952532068,-0.30372474433887364,0.8584273347656842,0.0984229635918287,13.112770802623794,27.084111477321095,3.0019478333463354
1760958288.886855,-17.900256437926302,-0.32800866581733007,0.8719406230160806,0.07523533073293716,13.246519856728584,30.775751844621578,6.081034381249693
1760958288.8966398,-17.842146677038727,-0.35330775717282714,0.897001386539885,0.055102561803995004,14.07935815111752,32.570534520215475,9.585632308626217
1760958288.9067397,-17.77239990508162,-0.377743361198157,0.9333194265082254,0.03884167002788051,15.517259349444672,32.407261518931776,13.378643790586064
1760958288.916671,-17.68501555220907,-0.39925858080121135,0.9790784086444816,0.026893730224077546,17.419911949644245,30.37383445132903,17.2816556223995
1760958288.9266503,-17.57416802116953,-0.41584383909374145,1.031043750352969,0.019358461849013776,19.608983017669555,26.694796706771072,21.087810896588877
1760958288.9370089,-17.434820248425975,-0.4257303041726564,1.0848834261537013,0.016061843498764824,21.878682647332486,21.703923639157022,24.579337150747122
1760958288.9466035,-17.263179400149085,-0.42752481489352157,1.1356806398705528,0.016630832442714766,24.009559908088285,15.805834369295347,27.54879607566426
1760958288.9566252,-17.05691132766887,-0.42028352075900877,1.1785800192649916,0.02053620668932249,25.78615887752346,9.432595368570576,29.822190633803224
1760958288.9666023,-16.81508712394153,-0.40354128729388844,1.2094680499906088,0.027071242075751154,27.018226192673044,3.002321446181914,31.281252219184424
1760958288.9766128,-16.537905273759485,-0.3773236055293451,1.2255587469265052,0.03526932766806036,27.563769453483452,-3.113737468204115,31.881723617372778
1760958288.9867194,-16.226294187347612,-0.34216777905599943,1.2257604851326063,0.04381386099633954,27.35080277929838,-8.611463735410556,31.664405186068166
1760958288.9967427,-15.881530776202426,-0.29916973612510606,1.2107517690144163,0.051025099383078046,26.393550336325415,-13.260984156760639,30.756247058387704
1760958289.0067751,-15.50499883722332,-0.2500471426630739,1.1827748296002116,0.05499330257333144,24.79868345728797,-16.90384612070467,29.35992790852867
1760958289.0168128,-15.098157024284589,-0.19717344340931253,1.145226321324786,0.05386781127576627,22.758213866076748,-19.445825044162184,27.73215267558279
1760958289.0268776,-14.662705865136722,-0.14351450885787229,1.1021520544557326,0.04623883914488512,20.527994498266104,-20.85094866739625,26.15306390661613
1760958289.0366845,-14.200865404490106,-0.09241455092562424,1.0577365905787233,0.0315001178151256,18.393919380318977,-21.14003971390561,24.89112630642796
1760958289.0465682,-13.715631306649428,-0.047231223230437894,1.015843510406807,0.010076914771421521,16.63097712021781,-20.39351117117543,24.1689714344017
1760958289.0565295,-13.210887869744228,-0.010884472604505657,0.9796351517839816,-0.016557438547221928,15.462310644580894,-18.75489335967184,24.135592129009467
1760958289.0664945,-12.691318631783012,0.014573221954269442,0.951292106551868,-0.04609088332926673,15.025682394396359,-16.43007288715262,24.84898760372509
1760958289.0767152,-12.162140560690984,0.028254785657876775,0.9318557860616121,-0.07575855011038982,15.353198142858988,-13.678041449951168,26.271291362863195
1760958289.0865676,-11.628754633828304,0.030530694868641663,0.9212169960878845,-0.10281102026679402,16.36741435772058,-10.79154405431234,28.27616565359368
1760958289.0965889,-11.096424912300064,0.022901133127674545,0.9182578685311853,-0.12495716094256072,17.89389590016741,-8.06920590979422,30.666374003695434
1760958289.1065862,-10.570070469186971,0.007693594160847975,0.9211243425915111,-0.14069257393109605,19.68757008004014,-5.7833745452501075,33.198288134176146
1760958289.1165762,-10.054201968218415,-0.012331107766776274,0.9275764691213237,-0.14946383941653607,21.468232440937097,-4.149304508893459,35.60971575687877
1760958289.1265643,-9.552983008467583,-0.03437752232871377,0.9353511588971042,-0.15166077492196783,22.95951403624538,-3.301160102938665,37.6476876915587
1760958289.1367373,-9.070363598828669,-0.05595599729016301,0.9424805494152547,-0.14846166478915584,23.925563880152417,-3.278815485352294,39.09343249208948
1760958289.1468678,-8.610224080275081,-0.07513315947429443,0.9475283654940466,-0.14157649165650268,24.200479278957108,-4.027188412699753,39.78244586506549
1760958289.156551,-8.176474116829942,-0.0906802093402305,0.9497242488822012,-0.1329422719650188,23.706875641912973,-5.407577373095007,39.61822591772163
1760958289.166652,-7.773062463178977,-0.10211376931096457,0.9489888927413462,-0.12442454374541424,22.46171105686461,-7.2187110026832455,38.578908039433266
1760958289.1769476,-7.403866445559687,-0.10963061432107356,0.9458544762915182,-0.1175707781690734,20.569389055783816,-9.224154753641097,36.71671804220201
1760958289.1867619,-7.0724474637265455,-0.11394949335318699,0.9412970443223457,-0.11344661128343364,18.204001230088892,-11.182300288997173,34.15083151907158
1760958289.1967435,-6.781679782474225,-0.11608601949984101,0.9365088220654161,-0.11256764595564489,15.584020403018208,-12.875264105219923,31.054804252166633
1760958289.2067401,-6.533282194262509,-0.11709684360963105,0.932648811582128,-0.11492194068448722,12.943585822592658,-14.133503182881274,27.640159195728664
1760958289.2166326,-6.327305280713409,-0.1178369452185058,0.9306183809320923,-0.12006403359782929,10.504665713251255,-14.853649590880579,24.137935698625625
1760958289.2266612,-6.161649723946245,-0.11877529260566089,0.9309084426306026,-0.12725252025951092,8.453834377653807,-15.007852443944628,20.77997783137859
1760958289.2367742,-6.0317069168750646,-0.11990319915753317,0.9335489957376374,-0.13560132095445096,6.926196071911046,-14.643787100628629,17.781449965386418
1760958289.2465372,-5.930212155772387,-0.12074695959841197,0.938162968101466,-0.14421959085887565,5.997363295551709,-13.875465093646845,15.32562694436729
1760958289.2565556,-5.84737798285172,-0.12047164597151747,0.9440975970266661,-0.15232396205154014,5.682848763515459,-12.865977000091855,13.551608931839821
1760958289.2665992,-5.771335506396094,-0.11804674203096421,0.9505905253469996,-0.1593156024470108,5.9432546713623555,-11.804183419682596,12.54539231317062
1760958289.276706,-5.688864859504519,-0.1124391773777657,0.956927691326836,-0.1648208488543475,6.69340962075143,-10.878043242819219,12.334672561531157
1760958289.2866817,-5.5863510695789715,-0.10280136220222724,0.9625611800721472,-0.16869760533261136,7.8138978033091595,-10.247713530475462,12.887746435568214
1760958289.2967143,-5.450865090105264,-0.08862724647534025,0.9671704932202756,-0.17101155819393304,9.163866411720315,-10.021746709927049,14.116796671411333
1760958289.3067274,-5.271248833735048,-0.06985746084854368,0.970665492665058,-0.17198802832780552,10.594293711910584,-10.239560156643483,15.885604612525745
1760958289.3167791,-5.0390841759145895,-0.04692494533817486,0.9731413844248111,-0.1719475428544143,11.960957924179601,-10.862764334493251,18.021329483010692
1760958289.326706,-4.7494486983843665,-0.020742562046536066,0.9748040190967818,-0.1712353180963256,13.136246039039415,-11.776909776367575,20.32948220845963
1760958289.3368223,-4.401395567388616,0.007359592991662639,0.9758866414891757,-0.1701556193418607,14.018853147213107,-12.803872919169944,22.61074512535811
1760958289.346742,-3.998128197362734,0.03573808071285036,0.9765775263860788,-0.16892077696479432,14.540499074476278,-13.723632017555214,24.677986962581134
1760958289.356802,-3.5468649733964392,0.06257280122037143,0.9769728004915751,-0.1676219069730031,14.669070343533448,-14.302792211291063,26.37175708215011
1760958289.3669524,-3.058406787285538,0.08602717401709062,0.9770613154741046,-0.1662250615207659,14.408013010008327,-14.326114804115546,27.572700913353223
1760958289.3767452,-2.546436075323487,0.10441878619992116,0.9767404451543206,-0.16459320843044906,13.792257766817785,-13.626689764753221,28.209688167817713
1760958289.3868234,-2.026594179081902,0.11638275255415576,0.9758551832483792,-0.16253094222830528,12.88137426478964,-12.110420851157649,28.262951298589392
1760958289.3967128,-1.5154035518269917,0.12100767612969848,0.9742491276593042,-0.15984496411903001,11.75096456894293,-9.771233004007264,27.762130567400025
1760958289.4067543,-1.0291188087708418,0.11792637946250266,0.9718151093893742,-0.15640981030105103,10.48346898910714,-6.69476590378205,26.779719386866272
1760958289.416617,-0.5826015567561754,0.1073502589684234,0.9685352061427464,-0.15222629411410768,9.159546986322164,-3.050033769345647,25.42090191127398
1760958289.4268427,-0.18831542757914907,0.09004489061798956,0.9645039436720176,-0.14746051098554813,7.851014316380283,0.9297049024576273,23.811109993103397
1760958289.4370396,0.14447125038968336,0.06725257226897839,0.9599329597895412,-0.14245421825071072,6.615997239976948,4.974098747385578,22.082775120505982
1760958289.446741,0.4102070089719771,0.04057326377483338,0.9551384300250951,-0.13770246545702683,5.496559441106347,8.807049394323696,20.36270743825163
1760958289.4567468,0.6072638750846651,0.011819155158532425,0.9505135300414388,-0.13380029221844394,4.518634717639648,12.17798154142917,18.76130958732488
1760958289.4667056,0.7378267944045102,-0.017139343562162897,0.9464881243541436,-0.13136570914821644,3.6937452264961337,14.888961801689565,17.364485040823354
1760958289.476739,0.8075027787613557,-0.04451780333654305,0.9434783907398853,-0.13095036985562547,3.0217957155896227,16.814346535522528,16.228727608014104
1760958289.486857,0.8247179854545429,-0.06873740628727752,0.9418314935333032,-0.13295236667453963,2.4942556854304025,17.910834397800535,15.379557962295374
1760958289.4967427,0.7999842897330107,-0.08851327503291902,0.9417742142642822,-0.13754690702136207,2.097220130330996,18.217260351875794,14.813206453188233
1760958289.5067341,0.7451111289934139,-0.10291295110036366,0.9433766130291923,-0.14464861991513628,1.8140489308141052,17.84493361691909,14.50118168806763
1760958289.5171735,0.6724220427021119,-0.11138996240291085,0.9465393189580031,-0.15391291980658292,1.627426620332747,16.960510706225957,14.397093958228943
1760958289.5266757,0.594017863977113,-0.11379646007651138,0.9510067120318831,-0.16477493280670352,1.5207534587778075,15.764134416648556,14.444866296188156
1760958289.5369453,0.521113775676678,-0.11037725253491099,0.9564015728355462,-0.17651657752438846,1.4788308696965318,14.465843481356934,14.587317684925933
1760958289.5469728,0.4634676160648368,-0.10174607773500349,0.9622719486970951,-0.1883482436420019,1.4878807468627384,13.263127981254051,14.77405613514653
1760958289.556809,0.42891552469717625,-0.08884219056222817,0.9681392442586908,-0.19949162975631815,1.5350358193299127,12.32204177593577,14.967674127440755
1760958289.5688143,0.4230364146057793,-0.07286364299409825,0.9735396764618135,-0.20925329896447975,1.6075301255126557,11.763574982045824,15.1474227615206
1760958289.5766287,0.4489686060260928,-0.05517706535024906,0.9780580614513624,-0.21708225511336957,1.6918747078063132,11.656170895887016,15.309879232845928
1760958289.5867326,0.5073928657671379,-0.03721049754722754,0.9813577917478414,-0.2226081072688895,1.7732931135013505,12.014476740894608,15.466580603921715
1760958289.5969033,0.5966808265241541,-0.020339527039536766,0.98320992241052,-0.22565927274600728,1.835601642908318,12.803726227967717,15.639082263496357
1760958289.6068518,0.7131960174726413,-0.00577537630101911,0.9835200158159115,-0.2262631061501883,1.861586387294586,13.948600129488208,15.85231046157502
1760958289.6167412,0.8517284107242195,0.00553897785386957,0.9823490501869836,-0.22463106655595297,1.8338164830700507,15.345033458224474,16.127341530550186
1760958289.626908,1.0060359306775937,0.01301736732236881,0.9799261196534617,-0.22113196651007935,1.7357694693747416,16.87328113783743,16.47481741596792
1760958289.6367617,1.169453350854851,0.016492583982807077,0.9766530133082599,-0.21625586780872647,1.553106353361667,18.410648084313806,16.890088309414757
1760958289.64669,1.3355142871336454,0.016239643561092712,0.9731009148162852,-0.21057063896208184,1.274892482652269,19.842604872026218,17.350873910563802
1760958289.6567545,1.4985229819087924,0.012951262820002292,0.9699977781827134,-0.20467217031100104,0.8945246870598956,21.071456329529166,17.817800513882517
1760958289.6669226,1.6540132896386333,0.007663519676834504,0.9682033609488894,-0.19912807492863022,0.4101286876194179,22.02220957707786,18.23767843384323
1760958289.6766763,1.7990422544868643,0.0016371320885335374,0.9686673390115388,-0.19441466453884426,-0.17575072433071712,22.645734545035374,18.54892649015175
1760958289.686659,1.9322828049391587,-0.0037935017787463486,0.9723635445822367,-0.19084910184186665,-0.8572486435035085,22.919672573929127,18.688214098756323
1760958289.6966543,2.053902840649196,-0.007385671085932768,0.9801926382686249,-0.18852277730856215,-1.6270396604125374,22.847767728967156,18.59723434986499
1760958289.706654,2.1652453043985944,-0.00814589456156251,0.9928515357308175,-0.18724669348255235,-2.4787982648346136,22.45833000732825,18.228556308009015
1760958289.7167878,2.2683537987927407,-0.0054551774067490046,1.010682102638924,-0.18652265269985172,-3.4099356535183794,21.80240858433413,17.549707761457917
1760958289.7270253,2.3654160693366193,0.0008605643939370894,1.0335281890319887,-0.185553399995797,-4.424133993048514,20.9520145015274,16.544968151550556
1760958289.736713,2.458214075230608,0.010528797765019278,1.0606401199605338,-0.18330024495365102,-5.533160722782813,19.99840720944537,15.214746672053403
1760958289.7467432,2.5476650193362698,0.022895957264861808,1.0906634208347452,-0.17858918396186613,-6.757595845007578,19.050038477373732,13.572809822264443
1760958289.756723,2.6335119303917147,0.037042692250300636,1.1217323925733467,-0.17025734956775532,-8.126372979082753,18.229323207279478,11.641942560853607
1760958289.7666805,2.7141863387837337,0.051921847438297836,1.1516624363104142,-0.15732196003997492,-9.675239285644551,17.667228293299925,9.448840693665758
1760958289.7787445,2.786833861321477,0.06649240225635823,1.1782072345414836,-0.13914618395273118,-11.444268287251894,17.494961886786676,7.0191178654549296
1760958289.786807,2.8474736351616055,0.07982817176124617,1.1993302131880732,-0.11557301245462172,-13.47448405057398,17.83278503632593,4.373251526798572
1760958289.7968209,2.8912532760831895,0.09118630634291758,1.213440614021154,-0.08700057163268721,-15.803642165417228,18.776877351268084,1.5240897352100087
1760958289.8067272,2.9127581228865793,0.10002693032133826,1.2195599962395873,-0.054380524295289265,-18.461349832833864,20.385916516481394,-1.5237603720222506
1760958289.8166726,2.906334805022548,0.1059844266016567,1.2174061633324247,-0.01913432350810641,-21.463926906916694,22.66935742560003,-4.77265284481852
1760958289.8267872,2.8663955195471176,0.10880488492610198,1.2073987306640086,0.017002663820929013,-24.809567072963727,25.579296643417006,-8.228960329212489
1760958289.836932,2.787682540521284,0.10827946452235195,1.1905978053873283,0.05218515246585695,-28.474354939469546,29.007370005470687,-11.898830960371209
1760958289.8468184,2.665491161617196,0.10420966088796084,1.1685857965496966,0.08467675156024189,-32.40953768024832,32.787469335472274,-15.783059395754309
1760958289.856654,2.4958672428574413,0.09642926097974952,1.1432994365511597,0.11304850302347848,-36.54023337971726,36.70430757381901,-19.871516403393706
1760958289.8667257,2.2758046475841636,0.08488329271743415,1.1168210892089492,0.13632699746898147,-40.76560128931449,40.50713737230352,-24.137653934930864
1760958289.8768356,2.00346379703363,0.06974057396116112,1.091146125104635,0.15406977742932512,-44.96046525937373,43.927334171807466,-28.5337214158973
1760958289.88692,1.6784171553260223,0.051503633143392305,1.0679523329888778,0.1663551710925011,-48.97843165133573,46.698174320338325,-32.98740964401479
1760958289.8967457,1.3019064524640938,0.031078434329389143,1.04840235742273,0.1736867582002334,-52.65657686297725,48.57503625423226,-37.400592798509194
1760958289.9069276,0.8770763681983997,0.009773540187447784,1.033009176995336,0.17682951372788666,-55.82173930110139,49.354422014453306,-41.65066449719585
1760958289.9167194,0.40913550240308477,-0.010788015262738601,1.0215903860740294,0.17661139292914693,-58.298363058973955,48.890541703900425,-45.5947181764535
1760958289.9267373,-0.09460884101908495,-0.028842458765440622,1.0133292412594832,0.1737356319320571,-59.9177524872151,47.108562665596615,-49.07654571001778
1760958289.9366798,-0.624888735264087,-0.042722403823424106,1.0069437834149164,0.16865111308790084,-60.528520042036014,44.01381865520428,-51.936145812879225
1760958289.94678,-1.17081612605628,-0.051117687663802286,1.0009402461105832,0.16151762089070676,-60.007928381639815,39.696209403098074,-54.021185883542614
1760958289.9566658,-1.7204308002167823,-0.05331238557558221,0.9939043301049421,0.1522797501970716,-58.273691110893616,34.32879118477518,-55.19967168897102
1760958289.9667187,-2.2614328667452477,-0.049354585107068666,0.9847742576178947,0.1408332067641117,-55.29552408637994,28.159426594081264,-55.372924742609996
1760958289.9767668,-2.78204812146413,-0.04012650303379009,0.9730436368921033,0.12723903866068523,-51.10530606847743,21.49462642765678,-54.48780252769523
1760958289.9867015,-3.271947309116567,-0.027294580251988523,0.9588554576131798,0.11192289693673066,-45.8042286860064,14.675564235449926,-52.54689970732168
1760958289.9969342,-3.7231174873965824,-0.01313342872695867,0.9429680522744662,0.09579403303298972,-39.56502911380167,8.047644625446784,-49.615286429826654
1760958290.006691,-4.1305711458110475,-0.00023754901732298814,0.926597890727728,0.08023610636255366,-32.62756340507187,1.926671126309884,-45.82232098236036
1760958290.0167074,-4.49278322581753,0.008841238584822013,0.9111693494712504,0.06695612493833032,-25.28673452993899,-3.4339171981594863,-41.35741184721929
1760958290.0268295,-4.811773287097828,0.011970434787757368,0.8980238363578613,0.05771808181344862,-17.873059668186837,-7.869609849990743,-36.4593931641213
1760958290.036604,-5.092800881311828,0.007753797489598711,0.8881544024794508,0.054020604784375724,-10.727650808576053,-11.320436045904556,-31.400280947489765
1760958290.0465863,-5.343709378424263,-0.00428096628492347,0.8820298784308771,0.056793994274213014,-4.17465881929693,-13.832261491356544,-26.46523524559374
1760958290.0566094,-5.574020558791622,-0.023665773157722753,0.8795505033085519,0.06618823575123528,1.5051090421123727,-15.542615471453985,-21.93118707590186
1760958290.0666494,-5.793929081047839,-0.04914513690002894,0.880140264466384,0.08150187027294704,6.0958208463873955,-16.652575166753092,-18.0466483502338
1760958290.0766423,-6.013357644964837,-0.07895340037965601,0.8829423507334252,0.10126881871947853,9.460749974445102,-17.388899806054173,-15.014830657385003
1760958290.0866566,-6.241207886135458,-0.11114410224689712,0.8870562925128186,0.12348613307786513,11.547427832150413,-17.9626755161803,-12.981580602142321
1760958290.0966082,-6.484888549748916,-0.1438949106806892,0.8917470365266505,0.1459382153403108,12.383811710465201,-18.53167014107301,-12.028954713592347
1760958290.1067066,-6.750136958508705,-0.17572650782520002,0.8965687972468673,0.16655543108777954,12.066877877634623,-19.173098573706724,-12.174570561588675
1760958290.1168175,-7.041088798652354,-0.20560119216455755,0.9013749564155774,0.1837369195261556,10.746138479535906,-19.87164418954877,-13.376227444873946
1760958290.1266742,-7.36050952581756,-0.23289965665282455,0.9062207288448446,0.19657048240191022,8.605063623452395,-20.524820735181255,-15.540755895179307
1760958290.1366625,-7.710086782819007,-0.25730444397826663,0.9111970694990689,0.20490228209734285,5.843189481167897,-20.964686272434218,-18.535675286656794
1760958290.1469007,-8.090696854720807,-0.2786382166776155,0.9162524185986927,0.20924582341516218,2.661028981128912,-20.992078766480766,-22.20201625867994
1760958290.156798,-8.502591054271711,-0.29670953011837237,0.9210580848222681,0.21056015951111387,-0.7508942987484811,-20.4173813191242,-26.366615499704384
1760958290.166633,-8.945485238641226,-0.31120802703130546,0.9249549474911654,0.20995467323090955,-4.218285396683016,-19.10069387682818,-30.852368051064627
1760958290.1766026,-9.418562598472557,-0.32167135400670305,0.9269928415797634,0.2083867648524167,-7.584593396570377,-16.98438612790056,-35.48536345925971
1760958290.1867623,-9.920412018010621,-0.32752886249116636,0.9260520688814601,0.20641506459288972,-10.708396698614266,-14.112351348747698,-40.098512965608
1760958290.1966908,-10.44892828387323,-0.3282168245514486,0.9210249083342098,0.20405995349714454,-13.457941490487189,-10.63269578070312,-44.53211218527753
1760958290.2066662,-11.00120307343009,-0.3233492588223331,0.9110291474781091,0.20080423542034015,-15.7048813099406,-6.783670175834855,-48.63262975499567
1760958290.2166722,-11.573437343677725,-0.3129108049335598,0.8956186302894696,0.19573667019407953,-17.319838431404023,-2.8657504774392937,-52.25163215817005
1760958290.2266269,-12.160903585820638,-0.2974188411053318,0.8749478816292751,0.18780449730942042,-18.172386664478815,0.7948066053204469,-55.2468552040022
1760958290.2368102,-12.757979004247309,-0.27799547234326494,0.8498479065956998,0.17611283613315926,-18.137199589010677,3.884445178927816,-57.486818855597896
1760958290.2467587,-13.358258992042995,-0.2563076112732283,0.8217871703522764,0.1602017225540928,-17.106558302335788,6.136638954825954,-58.85916355065361
1760958290.256655,-13.954747009497117,-0.23437311687017495,0.7927220385776866,0.14024420263412865,-15.007603896061664,7.357384373673554,-59.28150875221376
1760958290.2666159,-14.540105791692195,-0.2142752508904203,0.7648692728083746,0.11712996402767135,-11.821158280922313,7.439389459226166,-58.71263999938135
1760958290.2766488,-15.106948317463793,-0.1978550145676456,0.7404468696273494,0.0924198424916208,-7.598069828541249,6.36490581194257,-57.16152304091027
1760958290.2865987,-15.648144719051801,-0.18645086919954507,0.7214267194450021,0.06817578200385983,-2.4691424798459165,4.199279650409167,-54.691970219733484
1760958290.2966604,-16.157120957217188,-0.1807329737735137,0.7093285550949123,0.04668967249710298,3.354266638555065,1.0786442107487875,-51.42151620931929
1760958290.3065903,-16.6281258014564,-0.1806488762586321,0.7050683198210554,0.030152871378862692,9.590301181342749,-2.8045855256836028,-47.51400813092299
1760958290.3165832,-17.056446446117885,-0.18547417220584547,0.7088644138537987,0.020323294075645534,15.906903161609602,-7.215577528686659,-43.16645585002484
1760958290.3266034,-17.43856229042654,-0.19395096795781594,0.72020489975898,0.018252664627102188,21.950355883391612,-11.888945446486765,-38.591685937652045
1760958290.3366375,-17.772240015721867,-0.2044943455904359,0.7378820502466164,0.02412681801958135,27.37871559166207,-16.538818667958516,-33.99910331148119
1760958290.3467116,-18.056585646837686,-0.21544401863434842,0.7601001869123817,0.03724670952795922,31.89577043267386,-20.86852195896089,-29.57616104363206
1760958290.3566055,-18.29207361503261,-0.22533100992880103,0.7846556159031552,0.05614474538848353,35.28076810332343,-24.581820792641167,-25.472848532324726
1760958290.3666964,-18.480564879351522,-0.23312016269406804,0.8091758250264796,0.07880193218305243,37.4095944594342,-27.39751280707222,-21.79076964118495
1760958290.376604,-18.625308016826988,-0.23838526515219802,0.8313937072939908,0.10291576778166601,38.264389017129744,-29.068248564096542,-18.577530697278576
1760958290.3866315,-18.730896084778806,-0.2413802279382518,0.8494252804618059,0.12616964974214323,37.930534749040014,-29.402983638670893,-15.82646635764869
1760958290.3967197,-18.803136618302645,-0.2429874888976531,0.8620172925278046,0.14646765865886033,36.58214009266229,-28.29075019232885,-13.481270237072966
1760958290.406697,-18.84878928016374,-0.2445486053507966,0.8687335386445325,0.16211613814100698,34.45899109724245,-25.72201677393429,-11.444818494237953
1760958290.4168286,-18.875139615912403,-0.24760551519550847,0.8700545756213918,0.1719480729623377,31.8389862517037,-21.803275472569307,-9.591319373073198
1760958290.426666,-18.889409000874057,-0.253599617891087,0.8673733874140791,0.17539343777877045,29.01005455994693,-16.76090783621131,-7.7808285621173745
1760958290.4366994,-18.898045679186513,-0.26358547887275,0.8628779803097061,0.1724987364874715,26.24468463396947,-10.931780087081771,-5.875068776214229
1760958290.4468188,-18.90598771270716,-0.2780122460640366,0.8593209873200227,0.16389588652416648,23.778935028801968,-4.740074968814872,-3.7533513003453236
1760958290.4567,-18.91601912602447,-0.2966088574332933,0.8596883047883626,0.15071934853216948,21.796657146531278,1.3379381718421375,-1.3272543939786319
1760958290.4666636,-18.9283430357934,-0.31838593931834147,0.8667946931421381,0.13447422554558,20.418949236621987,6.8176571910425485,1.4473628550700408
1760958290.4769254,-18.940467590296468,-0.3417460691649608,0.8828510028377513,0.11686616011939649,19.69860462777902,11.253625628174447,4.562385340668414
1760958290.486817,-18.947447998022977,-0.3646776690981428,0.9090600717355727,0.0996115495858761,19.619356076179052,14.285201181033816,7.954682546532587
1760958290.4966826,-18.94246092731616,-0.3849959503438649,0.9453038080610502,0.08425028012632715,20.099855447740236,15.674640991829516,11.50940140788388
1760958290.5066502,-18.917619431032758,-0.40058825553126615,0.9899824848765093,0.07198374299843027,21.0024306540235,15.332273421936994,15.069673605247061
1760958290.5167627,-18.86488349639415,-0.40962345267682726,1.040058048705688,0.06355945874392248,22.146643705362752,13.32482140794138,18.452470079363575
1760958290.526778,-18.776899405196858,-0.4106970907022978,1.0913328481105382,0.05921689887269307,23.327456443127744,9.865349874794038,21.469525238520085
1760958290.5368872,-18.647621072881158,-0.40290412697575956,1.1389583266084011,0.05869382885102564,24.337326312356094,5.286388729102845,23.951324454708725
1760958290.5467844,-18.472628100672228,-0.38585370136790736,1.1781142858870672,0.061274275795190805,24.990791416456954,0.0008318664879435859,25.77128546403693
1760958290.5567696,-18.249142829370626,-0.35965724882268735,1.2047416458772582,0.06585243450560069,25.149157276396227,-5.5426586808992715,26.866693248967792
1760958290.566691,-17.97583357288264,-0.3249237295764115,1.216176038241741,0.07100150101562011,24.7419936690661,-10.902611623075947,27.25285501123855
1760958290.5766573,-17.652542982879588,-0.2827803385181518,1.211539649703269,0.0750637138625412,23.781623891239803,-15.68054514674822,27.027455824169365
1760958290.5867715,-17.28008099090872,-0.23490925549556957,1.1918097782714612,0.07629356588774046,22.366994808403437,-19.5471003048019,26.36327609121374
1760958290.5966713,-16.86017204358591,-0.18356323417328335,1.1595727398451043,0.07307302711196959,20.67447850400627,-22.259110988344435,25.489220783275286
1760958290.6070135,-16.395564982231253,-0.13150846259898788,1.1185499893860993,0.06418107220563234,18.93523974494739,-23.670071684948248,24.661746065330465
1760958290.6166992,-15.890231794412463,-0.0818526964359237,1.0730176642458642,0.0490605771482935,17.401472502865513,-23.73641863025121,24.13074730125469
1760958290.6267006,-15.349531905444941,-0.03775184555815528,1.0272312398798662,0.028004726479395194,16.306474663120085,-22.520396085525235,24.105210309239293
1760958290.6368148,-14.780221714396403,-0.0020352342839625916,0.9849365761798328,0.00219475458520215,15.825452183922332,-20.188116603579385,24.724069084624908
1760958290.6467392,-14.19024093460078,0.02317375259003111,0.9490175316365568,-0.026440545632274246,16.044425283524674,-17.000046051993188,26.036771629106152
1760958290.6568193,-13.588285133303327,0.036754044783063405,0.9213042152258983,-0.05552140086007175,16.943317295036028,-13.29141866173804,27.99629756987201
1760958290.6667922,-12.983247948666556,0.03872943181881511,0.9025425877020136,-0.0826037572191565,18.396523542663914,-9.442013051382276,30.4651825890252
1760958290.6766422,-12.383659679240802,0.030224384646619737,0.8925045323453359,-0.10556932115584913,20.19077351233011,-5.837504622474274,33.23296502487706
1760958290.687212,-11.797245831550246,0.0132472150301642,0.8901999494630951,-0.12293816813493623,22.056829348074945,-2.827188304519522,36.04187141276927
1760958290.696879,-11.230683867629535,-0.009645331268186673,0.8941421479169209,-0.13404927609631967,23.709233421189317,-0.6843951570059467,38.61679772644471
1760958290.706933,-10.689569903143585,-0.03572731680521794,0.9026172933675748,-0.13908866629435437,24.887330426965672,0.4240365185749226,40.695693261009936
1760958290.7169235,-10.178544808598632,-0.062453307941137175,0.91391806237849,-0.13897676460477335,25.391152364680558,0.4543302438427122,42.05704243688287
1760958290.728171,-9.701489541276887,-0.08772277378014658,0.9265177561326275,-0.13515068958337959,25.107126536961644,-0.5140323532654881,42.54194345326119
1760958290.7368383,-9.261690556799177,-0.11002977550508637,0.9391785006095601,-0.12929193171441739,24.020502512231197,-2.2940852610989007,42.06908000445747
1760958290.7469099,-8.86189570117012,-0.12849633896044385,0.9509997099626516,-0.12305381944815566,22.213553675709893,-4.620219239303019,40.6416047538913
1760958290.7569795,-8.504219148042894,-0.1428092542379469,0.961417145699656,-0.11783493568456516,19.85073282355716,-7.1854116400268415,38.345650167011414
1760958290.7668023,-8.189897838900533,-0.15309014471533938,0.9701620019764657,-0.11462739167587611,17.15378823111713,-9.681311877382988,35.34092806681963
1760958290.7767313,-7.918940943851039,-0.15973021599089743,0.9771906847875489,-0.11394981958549158,14.371132821138767,-11.835726504630843,31.844662183915787
1760958290.7868023,-7.689741798397573,-0.16321974432831074,0.9826007912852208,-0.11585965173893058,11.746315509605246,-13.442900239058119,28.11077914957094
1760958290.7966542,-7.49873523110775,-0.16399938461997687,0.986551582893085,-0.12002914341942404,9.490166335274917,-14.383367478156984,24.406690621462683
1760958290.8068151,-7.3401804572369365,-0.16235377262379483,0.9892037205631475,-0.12586395322657162,7.76012357770949,-14.631772093932144,20.99005731699697
1760958290.8167014,-7.206131595606824,-0.15835784583412535,0.9906851342858528,-0.13264028950130785,6.648646410580784,-14.252650548113852,18.08768058693344
1760958290.826736,-7.086629517215853,-0.1518763109182678,0.9910822755654238,-0.13963573854201464,6.180864339785075,-13.385532490864456,15.878219734443178
1760958290.8371024,-6.970118670032836,-0.14261011703263898,0.9904513886774513,-0.14623191929963442,6.320138266600857,-12.221723898339748,14.479884918526073
1760958290.846885,-6.844067785720733,-0.13018078729863597,0.9888427041528757,-0.15197616524113552,6.979315350042459,-10.975798874971963,13.943696772961387
1760958290.856728,-6.695754986189576,-0.11424127144368947,0.9863299156705297,-0.15660162394069313,8.03522813665454,-9.855195825265051,14.252411965147145
1760958290.8667793,-6.513162024675172,-0.09459836758175509,0.9830366015583859,-0.16001450068640516,9.34425901217773,-9.031429833152348,15.324827541826647
1760958290.8768525,-6.285907178257504,-0.07132789288344467,0.9791510674716891,-0.1622607106601113,10.757291653921627,-8.616276190896693,17.02487586225735
1760958290.8868103,-6.006135306654439,-0.04486308861107534,0.9749235288649051,-0.16348326751939965,12.13287330135612,-8.645805769943742,19.174657650868777
1760958290.896884,-5.669282467214109,-0.016040841276196257,0.9706451917300677,-0.16387882962995023,13.347813757801951,-9.07433915200881,21.570310831797133
1760958290.9069285,-5.274642536411027,0.013902780960518134,0.9666151093075558,-0.16365865550632144,14.304759709617429,-9.77926066195575,23.999396419470973
1760958290.9168859,-4.825680154230538,0.043389603088297875,0.9631043086009953,-0.1630166948111081,14.93656108734111,-10.576292414941383,26.258338328796427
1760958290.9267938,-4.33005228779928,0.07060595890963987,0.960326388114734,-0.16210622286595816,15.207522108179317,-11.243439971421948,28.168420222579623
1760958290.9369524,-3.799317707561966,0.09365127343315564,0.9584206789815842,-0.1610264234107017,15.111885672914287,-11.550598250089648,29.5889521300739
1760958290.9469461,-3.2483319608007144,0.11071577258286483,0.9574496085253306,-0.15982074177446043,14.670093227624111,-11.290964292487741,30.4264920505049
1760958290.9567032,-2.6943482340177183,0.12026892828406809,0.9574073348299631,-0.15848819732216934,13.923470620175127,-10.310100410679933,30.63942927898807
1760958290.9668157,-2.1558721792502302,0.12123639049398859,0.9582336633032532,-0.15700657681018737,12.928022846219148,-8.528775746306094,30.237743261828868
1760958290.9767876,-1.6513480732885029,0.1131428151879683,0.959827184103827,-0.15536340460460982,11.747992697129673,-5.956527105275718,29.278254309216464
1760958290.9867535,-1.1977795866563186,0.09620150135352501,0.9620542769367145,-0.15358820749984609,10.449760942992187,-2.694098669912881,27.85610857817666
1760958290.9967,-0.8094059004740872,0.0713382201156336,0.9647541038644984,-0.1517786464173728,9.096555716870906,1.07560957761957,26.093549921348735
1760958291.006729,-0.49655827623920434,0.04014494779211232,0.9677417809039889,-0.1501135127738348,7.744320395551869,5.106917064100512,24.12720946871375
1760958291.0167475,-0.26481049903652587,0.004767950892490892,0.9708120213751924,-0.1488472989095736,6.438973384972775,9.118508318448466,22.09519412308255
1760958291.0267587,-0.11450996298584355,-0.03225840894670004,0.9737448858574195,-0.14828448291687774,5.215163502959396,12.824799152698798,20.125192789872912
1760958291.0368445,-0.04073995514548996,-0.06821736780113839,0.9763151452010357,-0.14873683561803924,4.096459017854661,15.967535194547198,18.32465907413492
1760958291.046674,-0.03372420662848701,-0.10043942550384503,0.9783069925651513,-0.1504724633291848,3.096715362443001,18.34377560255807,16.773883988921344
1760958291.056956,-0.07964530587547851,-0.12653940987730497,0.9795353565282612,-0.15366848525472454,2.2221905159311195,19.827033739224714,15.522450419139556
1760958291.0669205,-0.16180957582290578,-0.14464092257661776,0.9798732978101513,-0.1583783953994263,1.4738767943894155,20.379310243820115,14.589178559729593
1760958291.0768168,-0.2620537141483767,-0.15356338283912807,0.9792818159583454,-0.1645202449078766,0.8495441211976318,20.052924821352914,13.96527828059283
1760958291.0867157,-0.36225687476797913,-0.15294406234687027,0.9778339231642729,-0.17188479853261995,0.345151011080896,18.982279975378095,13.620090541434251
1760958291.0966814,-0.44580191072828634,-0.14327025170381008,0.9757209887398124,-0.18015713870934516,-0.04448785955147016,17.366825530622044,13.508564107492884
1760958291.1068397,-0.4988283135306275,-0.125808041112375,0.9732309023839212,-0.1889438241861885,-0.3256855290971168,15.447422737365414,13.579473395455985
1760958291.1168156,-0.5111431610274143,-0.10243392919465098,0.9706976902793565,-0.19780103180205114,-0.506316389924905,13.478963832222938,13.783332775567523
1760958291.1269739,-0.47670450729514413,-0.07539689797474322,0.9684361517725796,-0.20626396062025995,-0.596474825149248,11.702449265931085,14.079013812530073
1760958291.1369903,-0.3936530444763856,-0.04705166075591221,0.9666829471068711,-0.2138797922221125,-0.6091451790089972,10.319721222061474,14.438242477158665
1760958291.1468759,-0.2639275542237351,-0.019604066693497364,0.9655626392668436,-0.2202442192579788,-0.5606648124323382,9.473676987030196,14.847446567890076
1760958291.1568744,-0.09254841409676864,0.005098717973847361,0.9650878707323995,-0.22503767797194535,-0.47074393066609616,9.236079372806492,15.306808149318037
1760958291.1670473,0.11331251617477867,0.025711922693985628,0.965193370142958,-0.22805546990265357,-0.3618424914722376,9.60413037385944,15.826784361337145
1760958291.1768358,0.34534215107462507,0.041461778255664127,0.9657955819056356,-0.22922677736232075,-0.25786371795563373,10.505876272077739,16.422718399085614
1760958291.1869254,0.595049991625466,0.052142345040155726,0.9668631945501722,-0.22861968611470965,-0.1823719099950719,11.813401131483717,17.108419582169045
1760958291.1968358,0.8545835802781976,0.05805309594941842,0.9684805952562413,-0.22643125214648588,-0.15674024543337617,13.36182848777865,17.88971635476734
1760958291.2069051,1.1173257084812487,0.05989355731419173,0.9708883244830958,-0.22296307629194245,-0.1986661797950304,14.971552682927054,18.75895517231144
1760958291.2167933,1.378234899972271,0.058631286164643776,0.97449049092856,-0.21858433225174406,-0.32137434642768015,16.470908707515015,19.691228634486077
1760958291.2269845,1.6339207487518157,0.0553591817330264,0.9798251914606321,-0.2136860723564126,-0.5336622076569787,17.71660297201318,20.642812563532136
1760958291.2368343,1.8824762416663245,0.05115867283849505,0.9874986143274813,-0.20863215325395348,-0.840797035384168,18.609600444702142,21.55196199647387
1760958291.2467508,2.1231180223795834,0.04698456029299742,0.9980880696158121,-0.20371214026310475,-1.2461337108993102,19.104780325157396,22.34194463513137
1760958291.256721,2.355706931944081,0.0435835918016512,1.0120252027812502,-0.1991001873726819,-1.7531717234535222,19.213513673365316,22.92600514119613
1760958291.266905,2.580231562034616,0.0414535182198461,1.0294770510296012,-0.19482265179345326,-2.3676344938809044,18.99927509524964,23.213822600634856
1760958291.2768345,2.7963374199924695,0.04084433950422715,1.0502462156278134,-0.1907373431250428,-3.099096912824314,18.567297450616817,23.118907672256313
1760958291.286782,3.002974512295123,0.04179836871640866,1.0737098149962354,-0.18652838372042832,-3.961755520857243,18.04996768209019,22.566281918991333
1760958291.297055,3.1982158009477177,0.04421916924948996,1.098810877232089,-0.1817206289668764,-4.97412559358827,17.590085994885353,21.49970385323862
1760958291.3068562,3.3792676236290933,0.04795170008813823,1.1241087313718385,-0.17571492963017493,-6.157701646419541,17.32425236462134,19.887657658141215
1760958291.316785,3.54265454149974,0.05285035487722882,1.1478887212758822,-0.1678416280056022,-7.534851551048569,17.368480135556155,17.727308838847442
1760958291.3268535,3.684524607336655,0.05881263242811441,1.1683246675216403,-0.15742803755360885,-9.126363838611207,17.807670579110255,15.045700561209108
1760958291.3368146,3.800998393301176,0.0657661132348642,1.1836779412511425,-0.14387723582492662,-10.949099151802491,18.689886704230737,11.897688610603188
1760958291.3466578,3.8884830656626823,0.07361174342201811,1.1925066683778043,-0.1267565622932779,-13.014106538541748,20.025553856028395,8.360532108370418
1760958291.356789,3.943889492940319,0.0821406412554921,1.193852711143405,-0.10589076163913469,-15.325376357849459,21.790908926616144,4.525620542648627
1760958291.3667333,3.9647187560570694,0.09095081088930435,1.187376280908188,-0.0814474788200985,-17.879163661053262,23.934348658184884,0.48839979445125886
1760958291.3770156,3.9490170764130936,0.09939311512967094,1.173417172668768,-0.05399548083627864,-20.663601472818094,26.38393247583207,-3.66197937262718
1760958291.386932,3.8952286654445785,0.1065712235936647,1.1529739597892412,-0.024511960323874704,-23.658218672548507,29.054287948585934,-7.851554436254209
1760958291.3969998,3.801999045655873,0.1114080527521638,1.1276045457525254,0.005681139713402159,-26.83304987269887,31.851563257615794,-12.02737747573316
1760958291.4071455,3.6679936745851043,0.11277598428123595,1.099260373284793,0.035056731046021306,-30.147258740055538,34.675775387357966,-16.15914227905716
1760958291.4168887,3.491796376130995,0.10967502753598703,1.0700721703288587,0.062079207043522704,-33.54746787596039,37.42075375990075,-20.23622033600761
1760958291.4269276,3.271937772756272,0.1014322952482487,1.0421111472604068,0.08541703394663266,-36.966158164920344,39.97268646515622,-24.260574932006076
1760958291.436752,3.0070764041548843,0.08788619119091015,1.0171575862501276,0.10412065845925572,-40.32053655340958,42.20883062025419,-28.236817986291275
1760958291.4467323,2.6963200215169745,0.0695128685295447,0.996512652460503,0.11772315391975065,-43.512242363422494,43.99807146166624,-32.16122114636211
1760958291.456724,2.3396406745083267,0.04745739003559399,0.9808817457210166,0.12624457163637579,-46.428222431938536,45.20465949200427,-36.011686907992264
1760958291.4668376,1.9383128524538327,0.023449672170071847,0.9703409656608029,0.13011043994206345,-48.94305823570468,45.695749661394665,-39.74052285516077
1760958291.4766746,1.49529333298686,-0.0003905034361397461,0.9643833945773518,0.13001722011607486,-50.9229879409317,45.35252414562639,-43.27139791161599
1760958291.4869165,1.015464917234926,-0.02183302976547911,0.9620363427959969,0.12678480435562733,-52.23184796879185,44.08386622266545,-46.50118707080874
1760958291.4968922,0.5056823743324526,-0.03885859511831383,0.9620387552171926,0.12122975848563627,-52.73910632910753,41.84086260109417,-49.306668933347694
1760958291.5067945,-0.025414896686244033,-0.0499677372900516,0.9630585464079955,0.11407979454650043,-52.3299674926207,38.629925610472014,-51.55537589268877
1760958291.5167587,-0.5678269655123325,-0.05442307352445833,0.9639124330761909,0.10593662977318359,-50.917141687252254,34.522114504516786,-53.11938919306152
1760958291.5267017,-1.110825057484716,-0.0523821423969998,0.9637396834058093,0.09728451988236973,-48.45334806410468,29.656337877803633,-53.890520591397504
1760958291.5366993,-1.6437323346826085,-0.04490010320677957,0.9620897222602884,0.08853472966420817,-44.94310615420244,24.23458372900926,-53.79511514508149
1760958291.54669,-2.1567712840819224,-0.03380366533376765,0.9589105153250358,0.080089766995289,-40.45202341581948,18.50822540722791,-52.80665297858488
1760958291.5566757,-2.6418783320421935,-0.021454068583364592,0.9544556238702399,0.07240522180262948,-35.111723188942314,12.755824999098534,-50.95443351813885
1760958291.566896,-3.0933797213393732,-0.010428800933046895,0.9491483101974552,0.06602427308328597,-29.118822019596067,7.2545624170231084,-48.32690739617724
1760958291.576665,-3.5084309312698188,-0.003163307232772948,0.9434455619898295,0.061564572738678394,-22.726937469868524,2.249081697991947,-45.06871774919421
1760958291.5867965,-3.887149060554442,-0.001606444496886712,0.9377363540072369,0.059651284417823476,-16.231540380884564,-2.0773253256718376,-41.37127202203304
1760958291.5967233,-4.232413795383991,-0.0069507273674782885,0.9322932497678939,0.060809001799348145,-9.948505127188586,-5.624066856444028,-37.45765081375072
1760958291.6069272,-4.549370439971417,-0.01949020784368548,0.9272791232631277,0.06534050570433515,-4.188327334792956,-8.382873011974958,-33.563664606643
1760958291.6167254,-4.844723393311136,-0.038632190429373534,0.9227943934659915,0.07322665318899399,0.7710737821968884,-10.433325870143642,-29.91758529868707
1760958291.6266904,-5.125944504079306,-0.06305403250781755,0.9189402846214846,0.08407879644266264,4.70952741087674,-11.924505091170769,-26.721293532272384
1760958291.6367867,-5.400527568626616,-0.09096699372526795,0.9158749829560481,0.0971636565973532,7.484365960559367,-13.045648443330032,-24.135278620847046
1760958291.6468422,-5.675396727031365,-0.12043221910775112,0.9138489359253859,0.11150154887187456,9.042008057010218,-13.990917726217278,-22.26922469758028
1760958291.656652,-5.956531047354699,-0.14966953241593897,0.9132150351505197,0.12601697586685523,9.419734287161743,-14.924548488358255,-21.17897282383467
1760958291.6666622,-6.2488149906070305,-0.17730596381612646,0.914414085097086,0.13970496972801882,8.737436637687278,-15.952582335414126,-20.86962800313736
1760958291.6766798,-6.556079532417142,-0.20252426261822057,0.9179338957319969,0.15177448303241564,7.1805980938318905,-17.10607827681888,-21.30364944225175
1760958291.6871347,-6.881269837363866,-0.22508773757936745,0.9242329661411647,0.16174035365973838,4.977027530231859,-18.3384889984392,-22.412070941756326
1760958291.696702,-7.226663578991647,-0.24523709340320068,0.9336167630149974,0.169450517742335,2.37071870570397,-19.537231780477065,-24.10664932399333
1760958291.706634,-7.5940683888749545,-0.2634822467159225,0.9460692818149569,0.17504969483332736,-0.4034952331636775,-20.546905922680818,-26.290790462916682
1760958291.7167287,-7.984947469228153,-0.28034426462221707,0.96107429325929,0.1788933571473093,-3.1411143744638426,-21.199633585681664,-28.867570466792948
1760958291.726701,-8.40045441906821,-0.29612243141330263,0.9774890888086009,0.18143525856110596,-5.6824831936337485,-21.347020595418346,-31.743985266874976
1760958291.736735,-8.841388752988475,-0.3107528489466691,0.9935364436095502,0.1831150434523169,-7.919458504400233,-20.88834993913929,-34.8315217219704
1760958291.7466788,-9.308098926570771,-0.3237902295112885,1.006953049795283,0.18426744639721324,-9.794392780470726,-19.790635720931398,-38.04394993373097
1760958291.75663,-9.800357421665591,-0.3345019533857476,1.0152876636560535,0.18506384418593802,-11.292594113474703,-18.097744666355666,-41.29365778280211
1760958291.766723,-10.317222557867312,-0.3420325552735432,1.0162979540314692,0.18548651051149068,-12.430000955605598,-15.927635302051728,-44.487868317727205
1760958291.7767494,-10.856896911905007,-0.3455881018042996,1.0083642204087964,0.18533102500514426,-13.238134759331274,-13.458647323369732,-47.52587531550157
1760958291.7867718,-11.416597764235116,-0.3446018777204647,0.9908263161163732,0.18423338566867017,-13.748621137432243,-10.9074750458386,-50.29819618149572
1760958291.7967434,-11.99246641084921,-0.33886254728978776,0.9641621800520175,0.1817213431035889,-13.979650271498663,-8.50269554586741,-52.68834358623871
1760958291.8067162,-12.579550991131846,-0.328596778102873,0.9299652883106148,0.17728979716384755,-13.926516765641733,-6.458206140726546,-54.5776851850295
1760958291.816784,-13.171893885999635,-0.3144952245211105,0.8907324406771624,0.17049672122281465,-13.557773066381749,-4.950532870718967,-55.85344254406297
1760958291.8268056,-13.762738901058269,-0.29766762504998406,0.849517957086633,0.1610705936085922,-12.817682303453164,-4.102852489959999,-56.41918419037291
1760958291.836816,-14.344851150394682,-0.2795246584500904,0.8095298610358654,0.14901430723749615,-11.63476990304426,-3.977086889167607,-56.20633662426457
1760958291.8467805,-14.91092092665046,-0.2616064025145206,0.7737407740459898,0.13468570879729314,-9.935419044359024,-4.573960255477187,-55.18464479229682
1760958291.8567364,-15.454006631123992,-0.2453922148865917,0.7445698850740086,0.11883363959962813,-7.660608599975589,-5.839694927427195,-53.36948259907412
1760958291.8666196,-15.967963347899902,-0.23212621591747135,0.7236689392515349,0.1025718488404453,-4.78316462722132,-7.677176317734156,-50.82444530883474
1760958291.8767438,-16.44780331060858,-0.22268169634696652,0.7118211699465944,0.08728131902314026,-1.3225422181181359,-9.959037807747645,-47.65847919633219
1760958291.8867173,-16.889941399719618,-0.21747538558458246,0.7089436962874885,0.07444474342500208,2.6456699035628146,-12.540272097365747,-44.01764108563266
1760958291.896723,-17.29229187370283,-0.21643410802624316,0.714173678907695,0.06543444610385757,6.9876704049328,-15.268596027442934,-40.07229676673491
1760958291.9069107,-17.65420124380226,-0.2190134647653156,0.7260150326580987,0.06129188577021426,11.51791927278896,-17.991676134431746,-36.001139236527486
1760958291.916913,-17.97622558431812,-0.22426831524538723,0.7425227553546482,0.06254524116028226,16.013998424848072,-20.561245136750678,-31.973848180603273
1760958291.9266567,-18.25978585275802,-0.2309733432306772,0.7615039787466177,0.06910641462634054,20.238243542814885,-22.83493853151238,-28.13450546320958
1760958291.9367683,-18.50675670811743,-0.23778560520380224,0.7807183255399395,0.08027101415140832,23.963195592355532,-24.677212054682425,-24.587920393803348
1760958291.9466996,-18.71905604864008,-0.2434302362144839,0.7980648407663539,0.09482029799329479,26.99708710383345,-25.96084225219029,-21.390658820406795
1760958291.9567847,-18.898299044256657,-0.2468800399733964,0.8117477626863561,0.11120055963669513,29.205530013817082,-26.570221953136144,-18.547819998675042
1760958291.966785,-19.045562560647145,-0.24749617278198704,0.8204179445056454,0.12774022937689458,30.526302014688977,-26.407031285207704,-16.015696310383426
1760958291.9768245,-19.16128075465486,-0.2451056445403711,0.8232902732556877,0.14286246187701093,30.97537291468722,-25.398090172966892,-13.709664302107777
1760958291.9867187,-19.245269840550588,-0.24001108066328247,0.8202384955264899,0.15526093674637614,30.643715511223782,-23.504493844774085,-11.51613548243985
1760958291.9967098,-19.296865267885536,-0.23294917662345388,0.8118652058137501,0.16402328029178323,29.685720131600853,-20.73065022362818,-9.307144549972405
1760958292.006931,-19.315146241279674,-0.22502165658370546,0.7995359171106694,0.1687000170427595,28.3010218396766,-17.131628113935324,-6.956112407951472
1760958292.0168998,-19.299215269732393,-0.21761063648811904,0.7853564717605287,0.16931997369905585,26.71218874300811,-12.817249722764926,-4.353403085534113
1760958292.0269482,-19.24849267368689,-0.2122718181430242,0.7720704140824778,0.1663494327543016,25.140989725017,-7.95157087821957,-1.4204021108991727
1760958292.0370936,-19.16298305636615,-0.2105927933326918,0.7628611117626973,0.16059378977779157,23.785876227339863,-2.7468140692132756,1.8790599129196628
1760958292.0468168,-19.04347916334299,-0.21401486928747493,0.7610575013717142,0.15305196649236338,22.802925951565097,2.5484682831776806,5.530988839331834
1760958292.0568395,-18.8916874770644,-0.22363508671335114,0.769756520753422,0.14474832704189816,22.291901908566825,7.666236024004105,9.468052465727794
1760958292.0669615,-18.710279857990542,-0.24001925279216996,0.7913913236344068,0.1365750590448448,22.28840150831734,12.338992884392102,13.571490884972828
1760958292.0769877,-18.502885659330477,-0.2630611212967263,0.8272947378397549,0.12917627098315385,22.762405444525527,16.320396803358967,17.678308417885155
1760958292.0869114,-18.274033940206525,-0.2919148276364844,0.8773254941170406,0.12289434626804253,23.622959484216334,19.40357481847978,21.59358198784396
1760958292.0967948,-18.02903805962792,-0.32500948937262947,0.9396313830056215,0.11778268759395537,24.728327468443965,21.4346742643352,25.107341363219668
1760958292.1067011,-17.773793685544206,-0.3601357664899967,1.0106176703664589,0.11367199698716254,25.90079789374609,22.320201592964146,28.015056990712406
1760958292.1166968,-17.514449100050168,-0.39458497791039365,1.0851728329518349,0.1102643880170333,26.945315457666428,22.02804963963124,30.140274146276454
1760958292.1269991,-17.25691614984127,-0.4253261772949037,1.1571725093229381,0.1072226745982053,27.671024585974905,20.583412991559797,31.357357314265037
1760958292.1367729,-17.006226042015573,-0.44921979384748467,1.2202303350511974,0.10422154345721785,27.914480040177036,18.061768522536816,31.611754815753354
1760958292.1469483,-16.76578902255351,-0.46327545892266075,1.2685953804121575,0.1009367435850156,27.562672758819566,14.581581281561121,30.93485051327732
1760958292.1566937,-16.536673665204404,-0.46495531609140595,1.2980300199850245,0.09697379632537582,26.573239319760845,10.29914357020381,29.45054587248574
1760958292.166733,-16.31706007824185,-0.45250282040991596,1.3064713024145311,0.09177551946684812,24.988509763112727,5.406713653839581,27.37135318933619
1760958292.1767056,-16.102025366999367,-0.42525274550787906,1.294313583822458,0.08457681388050362,22.939807307477256,0.1329841695020743,24.982987963645076
1760958292.1868985,-15.88378031207881,-0.38386322854606947,1.2642514720916704,0.07447023048493258,20.63909008310526,-5.2573817054844865,22.618089393729495
1760958292.196816,-15.652395372179729,-0.3304097549143183,1.2207471259048535,0.06060106305479405,18.356810948756358,-10.46965981669766,20.62150996914029
1760958292.2067938,-15.396947555639127,-0.26829311313832244,1.1692739815594737,0.04244665097875871,16.387514140143733,-15.194188262903106,19.31123723466692
1760958292.2168407,-15.10691643693446,-0.2019383604170982,1.115507879140038,0.020083778017183657,15.007577221070141,-19.131693606913384,18.940079993661957
1760958292.2271278,-14.77359096835938,-0.1363018245951168,1.0646013329745438,-0.005662662194955926,14.43188559778202,-22.02599329862886,19.66353050054568
1760958292.2367654,-14.39124211088208,-0.0762553396453067,1.0206257952378435,-0.03326005824564837,14.777334918615637,-23.697941441946437,21.51861869755333
1760958292.2467453,-13.957873193597484,-0.02596406201125882,0.9862264779060433,-0.06070167276743545,16.040335077533786,-24.073047118707542,24.41712419859919
1760958292.2566297,-13.475462521190513,0.011610160688313111,0.962506522482282,-0.08587221139300127,18.092921285738953,-23.196150563206988,28.154357480034975
1760958292.2668805,-12.949726807872777,0.03497821348617479,0.9491322652894049,-0.10694468227573115,20.69833853710975,-21.229423323725864,32.43222265511698
1760958292.2767074,-12.38952098422536,0.04412918770017283,0.9446237410915667,-0.12270499747656412,23.543134189051994,-18.43369355612991,36.892985268081226
1760958292.2867126,-11.806024790203336,0.040306822526258286,0.9467688714530215,-0.13273078239902592,26.27987380516672,-15.136554609414164,41.15867634302159
1760958292.2969928,-11.211849527805077,0.025644432024357025,0.9530838424273134,-0.13739870099200718,28.57318080993773,-11.693044269174884,44.87070538260158
1760958292.3070462,-10.620151307669497,0.0027653494006256957,0.9612393871836353,-0.13774047089068703,30.141958513239548,-8.445469194448147,47.72491959462055
1760958292.3167143,-10.043789027649536,-0.025559535846279322,0.969383176868347,-0.1351971174775557,30.792030639690893,-5.688239530973321,49.49860197857535
1760958292.326738,-9.494537235047682,-0.056646836807973756,0.9763126704258018,-0.13133146092820408,30.43549993271036,-3.641799086308696,50.06732154083178
1760958292.3367941,-8.982362124562231,-0.08802680283792517,0.9814874633613279,-0.12755609952569363,29.095384715842005,-2.437538857796068,49.410892277422505
1760958292.3468418,-8.514786129439369,-0.11749530337618501,0.9849060622231293,-0.1249232827389975,26.896215391505372,-2.113610329130659,47.60886221979034
1760958292.3568766,-8.096388655088568,-0.1431389176413738,0.9868994456481142,-0.12400651097747874,24.043044755607326,-2.620220976461406,44.82690334285633
