timestamp,angle,linear_acceleration_x,linear_acceleration_y,linear_acceleration_z,angular_velocity_x,angular_velocity_y,angular_velocity_z
1760682470.1218593,-5.463130939444713,-0.11382237151319628,0.943763060519672,-0.28841675439157477,5.281554815999826,-15.486061627924382,6.838343058913958
1760682470.1318493,-5.446263044330878,-0.11240778595934488,0.9526193951512633,-0.29796889759086054,4.964069626495547,-15.848996534701126,6.216546659425315
1760682470.1419415,-5.428896368480572,-0.10987685388784735,0.9622210362276415,-0.30690051461737206,4.583659325432055,-15.784576130840975,5.541940295248879
1760682470.151874,-5.408418007011998,-0.10608506837664546,0.9719648451614264,-0.31491780103082967,4.147970563405856,-15.305691633525589,4.874701382436869
1760682470.1619964,-5.381694659962393,-0.10102507596398119,0.9812517226422338,-0.3217277124123363,3.6690285210662137,-14.454936531954734,4.2814562112510295
1760682470.1719108,-5.345324439100701,-0.09480958389766836,0.9895372079629483,-0.32704876728279014,3.161941242113448,-13.301645208101148,3.8295651548826584
1760682470.182061,-5.295876954623102,-0.08763858000421594,0.9963607831642738,-0.33062332407609274,2.643084084660703,-11.935787596846465,3.5805867659638166
1760682470.1918838,-5.230120569003733,-0.07976393884830557,1.001356825481658,-0.3322353326286591,2.1281049401607066,-10.45919320523786,3.583639869105061
1760682470.2021294,-5.14524735085923,-0.07146195481168259,1.0042559065734917,-0.33173614428514153,1.6300995080113585,-8.975026129030901,3.869507901727976
1760682470.2119117,-5.039106650484016,-0.06301898807062091,1.0048855784944268,-0.3290768305793354,1.1582337484780205,-7.576757578913118,4.446308331612369
1760682470.2219458,-4.910447291470187,-0.05472894504438586,1.0031757376615216,-0.32434012691222874,0.7169707418939314,-6.338028874075413,5.297381446032852
1760682470.2318218,-4.759150492299156,-0.04689619092359496,0.9991679436833986,-0.31776141400272767,0.30592921918821714,-5.304748203966582,6.381770503836022
1760682470.2416513,-4.586419656334985,-0.03983612763735789,0.9930239475708498,-0.3097286736377938,-0.07970562440385587,-4.4905205227222575,7.637319182332536
1760682470.2518244,-4.394887888065235,-0.03386839052364055,0.9850278646424944,-0.30075652990135904,-0.44835597156142437,-3.8760962001671873,8.986059926682586
1760682470.261765,-4.188613653441271,-0.02930265702368924,0.9755782651416238,-0.2914369675764418,-0.8109478592853198,-3.4130009133193093,10.341265906863251
1760682470.2717743,-3.972957875690698,-0.02642218176958485,0.9651691675660902,-0.28237576628697375,-1.1796324677578673,-3.030961884216409,11.615339738000037
1760682470.2818205,-3.7543631244372953,-0.025472400020396056,0.9543611949151355,-0.2741270013405279,-1.5663980423625758,-2.6482523857302436,12.727643728197682
1760682470.2919362,-3.540071976453645,-0.026658337845597686,0.9437455088351688,-0.26713764497868864,-1.9816306412064342,-2.1836922110698636,13.611437545482778
1760682470.3022258,-3.337816134775908,-0.0301465856457321,0.9339035486613955,-0.2617108046008495,-2.4327096444557474,-1.568801220948214,14.219250569361977
1760682470.3116875,-3.1554849681043633,-0.03606132146455229,0.9253653974192553,-0.2579907433136862,-2.922771260130616,-0.7585293718647276,14.526236444041366
1760682470.321796,-3.0007562402776133,-0.044463403190660326,0.9185693699763708,-0.25596742368334663,-3.449812321239277,0.2609035629143104,14.531299930927727
1760682470.331865,-2.880656078704941,-0.0553064642968406,0.9138256488142515,-0.2554944749615811,-4.006311584703041,1.4682272521311304,14.256028937996883
1760682470.3419335,-2.8010212858698,-0.06837379785993875,0.9112875796569164,-0.25631309978085626,-4.5795025906550855,2.8081006674892772,13.741689238312562
1760682470.3516707,-2.765874325802508,-0.08321379018404355,0.9109352568579542,-0.2580759762422528,-5.152342580117861,4.196962884518242,13.044715180406435
1760682470.362003,-2.7767826471158052,-0.09910269065584994,0.9125763105931864,-0.2603692530753538,-5.705103275098259,5.533206393476902,12.231225785878134
1760682470.3719049,-2.8323290851145915,-0.11506131912693063,0.9158670178473203,-0.26273518143508356,-6.2173925754380965,6.710469742069314,11.37111052481568
1760682470.3819375,-2.927836247872296,-0.12993562816969717,0.9203527538581382,-0.2647000340907396,-6.670338930983385,7.632304864384641,10.532193273661278
1760682470.391749,-3.0554555817276716,-0.14252987607302936,0.9255222111435726,-0.26581072833594027,-7.0486588829589705,8.226176868865458,9.774930857255047
1760682470.4017146,-3.204664816096549,-0.15176569568279097,0.9308672178181668,-0.26568028655486126,-7.342381723804332,8.454783285009507,9.148050521134431
1760682470.411768,-3.363136625064792,-0.15683380594229537,0.9359401712732448,-0.2640387520209395,-7.548095872593565,8.323031953549746,8.685476239536705
1760682470.4219153,-3.5178664491808656,-0.157306941714512,0.9404028080518265,-0.2607833679920404,-7.669671957719695,7.879626447332565,8.404819978414189
1760682470.4317756,-3.6563952512482287,-0.1531914762598131,0.9440616867525824,-0.25601986778849367,-7.718474837965297,7.212980731397884,8.307595959669683
1760682470.441654,-3.7679446107359884,-0.14490897579329115,0.9468870314390027,-0.25008560935994695,-7.71308426166343,6.442005220516597,8.381137149507158
1760682470.4517334,-3.8443006644147264,-0.13321452798378317,0.949013182272133,-0.24354551677303518,-7.678511034904659,5.7030391343470095,8.601962474421786
1760682470.4618528,-3.880335249285482,-0.1190723502760376,0.950721257113336,-0.2371542247353611,-7.644854885197664,5.134713015340791,8.940098031938932
1760682470.4718888,-3.874124122091791,-0.10351707039381408,0.9524071417232078,-0.231782581877028,-7.645339408771188,4.862720506431369,9.36365003275247
1760682470.4818852,-3.8266961460757627,-0.08752949790164104,0.954539615188903,-0.22831267951131787,-7.71370492837552,4.9863565535550896,9.842815692599764
1760682470.4918144,-3.741508227206596,-0.07194971596681622,0.9576138630554827,-0.22751146420865928,-7.881050315199473,5.568310249266818,10.352545908746439
1760682470.5021696,-3.6237766591770324,-0.05743976991173337,0.9621049856732972,-0.22989780756325223,-8.17237717782598,6.62868281515343,10.8732688314452
1760682470.5116992,-3.479799080569038,-0.04449496152653121,0.9684246109635014,-0.23562098622811076,-8.603266188164206,8.14363665457333,11.389437496148712
1760682470.5219617,-3.316373418456576,-0.03349004531770686,0.9768817904493933,-0.2443694608053705,-9.177247241065054,10.048565475411582,11.886112969563541
1760682470.5318825,-3.140373933985378,-0.0247394602730981,0.9876479198807137,-0.2553275544163686,-9.884453813557773,12.245266663616466,12.344230253026742
1760682470.541822,-2.9584999525440123,-0.018552220221096045,1.0007253909093705,-0.26719419236986086,-10.70204209304497,14.612284696553985,12.735506146911366
1760682470.5518253,-2.777183960920144,-0.015269446376051543,1.0159211836170212,-0.2782722106516266,-11.596611174772887,17.017314768870342,13.01805768461192
1760682470.561719,-2.6026313104976864,-0.015278955914776007,1.0328291509694667,-0.2866284150575061,-12.528529813533183,19.330264488888535,13.133691527859273
1760682470.571627,-2.4409530678450664,-0.01900252586784067,1.0508275694595601,-0.2903129825503038,-13.457735708330238,21.435312647150894,13.007557009454192
1760682470.5818923,-2.2983393201984637,-0.02684940036995442,1.0691004150894305,-0.2876126788458434,-14.3502926360986,23.240207125337214,12.550520498829728
1760682470.591974,-2.1812056830087836,-0.03913012023567453,1.0866899587873204,-0.2772993909723904,-15.18479247771154,24.681259200007933,11.664280496456943
1760682470.6018288,-2.0962411080830043,-0.05593228913828129,1.1025830316321021,-0.2588296052744977,-15.957570849670432,25.72312378048921,10.248918756059211
1760682470.611849,-2.0502990676941777,-0.0769741702995803,1.1158237916171256,-0.23245671849675761,-16.685684148638803,26.35348934631438,8.2122793553799
1760682470.6217673,-2.050107705322332,-0.10146806816855772,1.1256349250038036,-0.19923691504916055,-17.40672132815762,26.5740235152373,5.480317038268446
1760682470.632141,-2.1018198037314666,-0.12803608716136453,1.1315217642022268,-0.16093479424051824,-18.174846113923135,26.38994402694644,2.0074115969313864
1760682470.6419237,-2.2104672483886896,-0.15471982636831455,1.1333340840765542,-0.11985606098331623,-19.052998738458587,25.801020696118403,-2.2143611251953597
1760682470.6518288,-2.3794136327432893,-0.17911048770748683,1.1312695434178328,-0.07864171750809286,-20.101878959422585,24.79646036509837,-7.147904881299345
1760682470.6620128,-2.609904173555408,-0.1985999522823191,1.12581777629612,-0.04005022071708185,-21.36705470120733,23.355076316418923,-12.706478156753752
1760682470.67172,-2.9007939608571403,-0.21072464256542,1.117659004493091,-0.006739340755542208,-22.866114416650298,21.45075301739476,-18.75238944821853
1760682470.6836524,-3.2485019927107603,-0.21355140563590086,1.1075403286670487,0.018951303460587595,-24.578045222188326,19.061939618712408,-25.09955181769666
1760682470.691809,-3.6472017370913075,-0.20604313978732897,1.0961545075801433,0.03521691072679353,-26.436887743779625,16.183072211397185,-31.52038304743432
1760682470.702529,-4.089228985658075,-0.18834092109724956,1.0840415604855798,0.0409945836685595,-28.3312020737206,12.835522656921146,-37.75741562287368
1760682470.7120223,-4.565667785827186,-0.16190681398213444,1.0715265671716339,0.03613849150309816,-30.11007642025008,9.07578653972694,-43.539670557039365
1760682470.7217932,-5.06706247373984,-0.12948709909135328,1.058700837119904,0.02152897126282692,-31.59548046485534,4.9989903829619955,-48.603297970306855
1760682470.7320838,-5.584193499984806,-0.09487970387628548,1.045448449036183,-0.0009217662201616007,-32.59987510972743,0.7363425909043386,-52.715225322294756
1760682470.742807,-6.10884414238804,-0.06251998181931644,1.031513991672521,-0.028394798651048377,-32.94726513052447,-3.554087855237761,-55.697684502916836
1760682470.7526317,-6.634475487382635,-0.036930102550044384,1.0165996249504827,-0.057425874528841916,-32.49538477763436,-7.702833915932527,-57.45070177669645
1760682470.7627344,-7.1567231490516185,-0.02210277361118973,1.0004729063837932,-0.08428081988922546,-31.15643685331643,-11.54898339765967,-57.9691816126735
1760682470.7734678,-7.6736377474619015,-0.02090555912604355,0.9830640721540705,-0.10539899912164963,-28.913730615994886,-14.961475060864784,-57.35131360095781
1760682470.782061,-8.185616947005427,-0.034596289866637375,0.9645330220349596,-0.11784454983567036,-25.83168753465954,-17.85752358971542,-55.795767740932185
1760682470.791761,-8.695020372105784,-0.06253325581797298,0.9452912118437095,-0.1197005267102985,-22.057084439357105,-20.21374611515936,-53.586466485201385
1760682470.8019326,-9.205515217886393,-0.1021461104289082,0.9259719755093585,-0.11034468298350703,-17.81019187467184,-22.066590411116426,-51.06548907727326
1760682470.811941,-9.721257945053008,-0.14920239658132672,0.9073542126648529,-0.09055784387839184,-13.365706693424915,-23.50088528111914,-48.59663809203987
1760682470.8219957,-10.24605796790604,-0.19835721229143816,0.8902559263894811,-0.0624382306320351,-9.025014623702038,-24.62820048282486,-46.5240207013925
1760682470.8320458,-10.782676102633996,-0.24391421502824415,0.8754208974277272,-0.029126190860299064,-5.08308292104971,-25.559378378528983,-45.131231125157555
1760682470.8418648,-11.332377593092298,-0.28067223650638284,0.8634206542622039,0.00562275015264471,-1.7946767679115674,-26.377270877490133,-44.606994433476494
1760682470.8519247,-11.89479445220722,-0.3047040794371291,0.8545861237806958,0.03795111590364817,0.6549145645969018,-27.115903330938465,-45.0223231145667
1760682470.8624833,-12.468074980384921,-0.3139236569511623,0.8489739032979394,0.06441840329054542,2.170109905952646,-27.7509753440066,-46.32255934181061
1760682470.8720875,-13.049237552830935,-0.30834385813564874,0.8463656571980098,0.08244504280092664,2.7533351087631814,-28.204119007558884,-48.33555084947197
1760682470.8821204,-13.634623804135407,-0.2899992055044188,0.8462968443127779,0.09061565391879546,2.500677055036786,-28.360180554843332,-50.79503826035419
1760682470.891934,-14.220365273533018,-0.26258077461778784,0.8481110912520545,0.08880340846654794,1.5863270132198406,-28.093702127119336,-53.37636838635121
1760682470.901921,-14.80281652422494,-0.23087821123367047,0.8510366859714225,0.07811166976316035,0.23882530891041298,-27.298657462419047,-55.740027988640584
1760682470.9119673,-15.378938699461907,-0.20013259185763113,0.854279794431209,0.06066029577155194,-1.2871500543927652,-25.91501805782228,-57.57733212600327
1760682470.9219468,-15.946624646084942,-0.1753849141186928,0.8571240942906931,0.039262283895220296,-2.7397347779552095,-23.946907289706406,-58.65205305321173
1760682470.931902,-16.504943134186977,-0.16087921192938745,0.8590204234944476,0.017039443396333988,-3.896314272092653,-21.4693115784888,-58.832013949230415
1760682470.9418917,-17.054260356154682,-0.159562326778853,0.8596477575402018,-0.0029791967483656615,-4.584799298338215,-18.62275414958424,-58.105816263125355
1760682470.9519217,-17.596188701397367,-0.1727191504403116,0.8589327399606055,-0.018235467861065856,-4.697777953479104,-15.597416049122772,-56.58189335681312
1760682470.961672,-18.133327227881193,-0.19978750442102824,0.8570275146260578,-0.026953982679041796,-4.198403184023616,-12.609645681443071,-54.46975817553319
1760682470.9719398,-18.668796682685446,-0.23839716403481317,0.8542572508905136,-0.028345647912708525,-3.1178648677199825,-9.87458780561904,-52.04620119072657
1760682470.9818988,-19.2056243229475,-0.2846587636380642,0.8510532813759096,-0.022671556232244233,-1.5453264932150836,-7.578850746615284,-49.61172161722565
1760682470.9917433,-19.74608262950114,-0.33368796983379895,0.8478857184728895,-0.011157561526258736,0.3879175153992026,-5.856859825477409,-47.44411608558559
1760682471.0019884,-20.29111354730707,-0.38030045489895703,0.8452050468546222,0.004225900092277257,2.527713004685725,-4.774007625513208,-45.756609259501865
1760682471.011938,-20.83996420305628,-0.41977090971094355,0.8433976785718243,0.021083638475768406,4.717120209812433,-4.319000499702998,-44.66713075319704
1760682471.0218852,-21.390119341571427,-0.44852734986652093,0.8427553606316837,0.036964977470266454,6.81472135598884,-4.406813624824889,-44.183437091890916
1760682471.031797,-21.93755087325142,-0.464656696010838,0.8434532148329147,0.049723713717628085,8.708967684924103,-4.892280828782598,-44.20605318973608
1760682471.0417016,-22.47723548543242,-0.4681291746024085,0.8455292705615945,0.05781087993484192,10.327005797407477,-5.592662763611455,-44.547959405402175
1760682471.0518165,-23.00383514028332,-0.4607009127666961,0.8488623845845016,0.060454819210494185,11.63722682176669,-6.315903037610779,-44.96714680991485
1760682471.0618072,-23.512402388496838,-0.4455152244808024,0.8531535096492676,0.05770611967323504,12.645673346135295,-6.890114484363453,-45.206121931723956
1760682471.0719118,-23.998966791919646,-0.4264814885118935,0.8579214059330649,0.05035381198287532,13.387335188119762,-7.189448536279469,-45.03152986195685
1760682471.081854,-24.460881103417616,-0.4075538394593629,0.8625236287507858,0.03974499221346666,13.914145964273136,-7.151991808602358,-44.26741555076782
1760682471.091926,-24.896852773729925,-0.39204910942968824,0.8662075592581661,0.0275534685349834,14.281993860928798,-6.786614284793269,-42.81714543262358
1760682471.1018343,-25.30665026705111,-0.38212999177278006,0.8681881098542066,0.01554133136330029,14.53912579592257,-6.167566729298995,-40.67134769510859
1760682471.1118002,-25.690544491711186,-0.3785400281216212,0.8677422287089422,0.0053458997368533955,14.717897929612253,-5.417811339370607,-37.90190588690373
1760682471.121857,-26.048610983758003,-0.380623403892458,0.8643076201287517,-0.0016890219338179316,14.831007780788468,-4.684162428924025,-34.644467667644
1760682471.1318417,-26.380063335495574,-0.38660789482254615,0.8575740876564042,-0.004629730226801793,14.87235219611364,-4.108835609450485,-31.073611287716087
1760682471.1418269,-26.682797664568422,-0.3940832542622065,0.8475584798134927,-0.0030163177230278335,14.821732756482886,-3.8025963276570973,-27.37550618626192
1760682471.151778,-26.953292204279318,-0.4005748081469668,0.8346561996987426,0.0031240548411272575,14.65197472677415,-3.824267293783231,-23.722640588010126
1760682471.1618845,-27.186927659825795,-0.4040965118460983,0.819662987061292,0.013310407948300134,14.336759455541545,-4.170041839826933,-20.254183138246443
1760682471.1718261,-27.37868910584679,-0.4035726434648737,0.8037609644368927,0.02668113801709603,13.857609799656915,-4.7741225600401105,-17.064093906789402
1760682471.182064,-27.524106129838778,-0.39904412748036816,0.78846426960298,0.04209612043108051,13.208918830361469,-5.519996846355003,-14.197499976183465
1760682471.191992,-27.620216279106575,-0.39162197262742265,0.7755233307895247,0.05825290437792925,12.400504052903086,-6.2596030921741255,-11.654380728290294
1760682471.201803,-27.666323001372568,-0.383208298594792,0.7667926684051866,0.07380130478288965,11.457726653939371,-6.836227334858709,-9.398518030531267
1760682471.2119513,-27.664368863852733,-0.37605882727299705,0.7640722640096772,0.08744299857135529,10.419621836011254,-7.106570980837088,-7.3691167243128355
1760682471.22193,-27.61883804501217,-0.37229064825238184,0.768933736747319,0.09800813718376192,9.33570007404314,-6.9580931878833905,-5.492509677147425
1760682471.2319934,-27.536204106647098,-0.3734367029633257,0.782540351841888,0.10450898344246899,8.262099244772246,-6.319172032500587,-3.6918309146491097
1760682471.2419417,-27.424020631160392,-0.38012272758387833,0.8054701184653996,0.10617808370218731,7.2576242346725275,-5.161395606899124,-1.8933190265899758
1760682471.25193,-27.28980386544119,-0.3919116275018841,0.837558667910264,0.10250122722056043,6.379979874459334,-3.4949529598545217,-0.028853610658579602
1760682471.2619286,-27.13988501072108,-0.40733527745610487,0.877789350535043,0.09325173585668449,5.682279232244228,-1.359341929908215,1.9646946265233676
1760682471.2719486,-26.97842155813868,-0.42411110109176925,0.9242627040458964,0.07852375070317814,5.209751663838072,1.187711618541731,4.147842885990772
1760682471.2818582,-26.806743434069485,-0.43951135417932274,0.9742714016468759,0.05875140058977399,4.996508093486161,4.0801883324255925,6.58057493180427
1760682471.2917132,-26.623154501315998,-0.45081667230679184,1.0244927704330804,0.03469436465985599,5.06228106229143,7.250218548612441,9.322060011385709
1760682471.3019152,-26.42321538621847,-0.4557586705725834,1.071293269131702,0.0073759739408121965,5.40928620573779,10.629783088497243,12.426602900138112
1760682471.3119135,-26.200433519841308,-0.45286257525749674,1.1111188854803762,-0.02202180121004869,6.0197027196254345,14.147768997766473,15.935635230752013
1760682471.321862,-25.947223542379675,-0.4416449297005653,1.1409218656651312,-0.05228376100560658,6.854552249040981,17.723771057101484,19.866957517658687
1760682471.3321912,-25.655990047090896,-0.4226743362931614,1.158552034623493,-0.08228161066703259,7.854761170585857,21.26098188538063,24.203532242924844
1760682471.3419876,-25.320201685055416,-0.39752275468818726,1.1630327108380627,-0.1110748238984784,8.944889117687904,24.64091019746825,28.884618013635478
1760682471.3517182,-24.935339427680887,-0.3686091975789002,1.1546595158767288,-0.13798629812287197,10.03953911744567,27.72238048756249,33.80193034524481
1760682471.3617806,-24.499604841464894,-0.33890588344499684,1.1349033747892747,-0.16264061624945714,11.051953779010466,30.34629138742202,38.80289399805465
1760682471.3720322,-24.014285511160594,-0.3114959914857166,1.1061472066551583,-0.18494480118553205,11.903759945501779,32.346159681484195,43.70183619173468
1760682471.3817286,-23.483715629694128,-0.28904986947311695,1.0713183787782319,-0.20500043756916528,12.534309643294485,33.5630323611313,48.298129890000034
1760682471.391994,-22.914839556426507,-0.2733574598725166,1.0334904221372885,-0.22296292697568348,12.90782217693214,33.86244649706222,52.39828958236268
1760682471.4018126,-22.316460265769532,-0.2650492270523474,0.9955243389444854,-0.23889158564134189,13.016824099220226,33.150961411113116,55.837738517654905
1760682471.4119387,-21.69830569391333,-0.2635619265712656,0.9598062428881662,-0.2526448080209746,12.881191797225812,31.390110501448824,58.49804986174594
1760682471.4229622,-21.070063123331362,-0.26732265811108225,0.928112589489109,-0.263860839727543,12.543106812680165,28.606021755840484,60.31681412357788
1760682471.4319837,-20.440519953556,-0.274080580586051,0.9015995345132339,-0.2720339756960379,12.059086310659456,24.893312795885475,61.28924746922459
1760682471.4417105,-19.81691793664093,-0.28130988044430766,0.8808808209703547,-0.2766625443037564,11.490750020080364,20.41230564613982,61.46249782847509
1760682471.4517894,-19.204584668723147,-0.2866177421476699,0.8661423277336526,-0.2774220695508867,10.896060645194897,15.379242183712515,60.92482400149342
1760682471.462016,-18.606857815921842,-0.28810085305374866,0.8572461843952355,-0.2743116099601275,10.322452766308555,10.05000513810445,59.79225125121062
1760682471.472004,-18.025272340816684,-0.2846021791683456,0.8537987684180831,-0.2677328282573526,9.802673574958241,4.6987668746234945,58.19507456876011
1760682471.4821968,-17.459945709461277,-0.27583305947996556,0.8551842313692609,-0.2584830599982021,9.353494299446714,-0.40614329129703336,56.26596021934435
1760682471.4920788,-16.910074223082773,-0.2623472757915019,0.8605850957762031,-0.24766665998510137,8.976901923053637,-5.0262081519523925,54.130651037642764
1760682471.5019028,-16.374446881755485,-0.24538037586886294,0.8690150623188928,-0.23654674666076544,8.663058064213542,-8.973318651420763,51.90158884007049
1760682471.511892,-15.85189231894976,-0.2265926865256316,0.8793787643070351,-0.22636993748198583,8.394223439275327,-12.124061694624565,49.674221549190136
1760682471.522034,-15.34159773788766,-0.20777103004452105,0.8905583439590927,-0.21819978436527546,8.14891985708028,-14.425621211888814,47.525414363936
1760682471.5319605,-14.843271500277245,-0.190547270809941,0.9015145199777232,-0.2127899772436655,7.905741933997699,-15.892558429543179,45.51325992626853
1760682471.541976,-14.357155953973143,-0.1761817195576865,0.9113828301924624,-0.21051641301114496,7.6463752776931715,-16.595340319460988,43.67766772088349
1760682471.551746,-13.88392690135206,-0.1654406825801387,0.919545533736739,-0.21137185495047212,7.357520337036475,-16.642983320340207,42.04134468679667
1760682471.5659463,-13.424534874162756,-0.15857564229181315,0.9256664147278832,-0.2150138417966581,7.031585904853113,-16.163162186401106,40.611054709605035
1760682471.5719032,-12.980047107385984,-0.1553909766479827,0.9296857064760556,-0.2208488538430653,6.6662086925074755,-15.283332358278566,39.37924956180517
1760682471.5836809,-12.551536471372216,-0.15537133677417822,0.931780219466732,-0.22813317491083768,6.262840915294713,-14.115818944078637,38.32621815047599
1760682471.591759,-12.140038315781204,-0.15783249391505236,0.9322973991205076,-0.23607221364697487,5.824779950749343,-12.748656022933016,37.422803049537784
1760682471.602887,-11.746566932245477,-0.16206146448758935,0.9316731689826064,-0.24390465104422132,5.355068901018695,-11.24256764032195,36.63356152071278
1760682471.6118236,-11.372159227879605,-0.16741957976999128,0.930344272952443,-0.2509645563340203,4.8546765041655915,-9.633232179356398,35.92010782534737
1760682471.6219919,-11.017900383946762,-0.17339308397387584,0.9286670815524426,-0.2567211473809827,4.321284501838513,-7.937129589227417,35.24432922761885
1760682471.6332145,-10.684889092905857,-0.1795900115092657,0.9268558261685798,-0.26080006194782224,3.748890299648459,-6.15893961352966,34.571217727287824
1760682471.6419766,-10.374119930024502,-0.18569783819854763,0.9249525766727547,-0.26299175778330863,3.1282913240345347,-4.2986003666943295,33.87115705890498
1760682471.6521199,-10.086291904346323,-0.19142771460185545,0.9228373497747373,-0.26325278130064816,2.4483695587433214,-2.356634044802465,33.1216006426288
1760682471.6617887,-9.821583093474787,-0.1964725851874644,0.9202789096921492,-0.2617041031223584,1.6979566581305217,-0.33705821454904056,32.30815082654507
1760682471.672159,-9.579449945368829,-0.20049824057297275,0.9170167507951172,-0.25862736724023355,0.8679531652716473,1.7520302868549418,31.42511016060066
1760682471.6824024,-9.358510385886147,-0.20317255552159774,0.9128562100355192,-0.2544560215984729,-0.04667820692822612,3.8994697049944143,30.475622303179964
1760682471.6920257,-9.156551625213096,-0.20422368970712937,0.9077555927835329,-0.2497558826817681,-1.0454063979306403,6.092582940806804,29.471526618793263
1760682471.70193,-8.970670986473028,-0.2035073308062088,0.9018880811638154,-0.24518957137970931,-2.121372905439053,8.31826384096723,28.432988125915177
1760682471.7119873,-8.79752167657155,-0.20105968053060475,0.8956698919452166,-0.2414610795218363,-3.26147292491976,10.562993329819275,27.387840771637766
1760682471.721728,-8.633608320001928,-0.19711745840029649,0.8897553484076971,-0.2392401029758845,-4.4471912063056065,12.811708833972304,26.37043906341994
1760682471.7320466,-8.475568106683447,-0.19209579617935416,0.8850052927957628,-0.23907039152579523,-5.655984064926358,15.04592888628482,25.419703612247435
1760682471.7419794,-8.320383486221154,-0.186525561659527,0.8824358274740006,-0.24127135568622743,-6.862972409181904,17.24184189403615,24.576022615178097
1760682471.7522619,-8.165496932930589,-0.18096117447241528,0.8831507690718736,-0.24584628415719223,-8.04278186621361,19.369160878018015,23.876776687417337
1760682471.7619295,-8.008830960502639,-0.17587760771185146,0.8882568071480539,-0.2524127626152888,-9.171503211180054,21.391428136781453,23.350505654227398
1760682471.771954,-7.848749060831609,-0.17157938470589523,0.8987590723973679,-0.2601706857047312,-10.228880879966853,23.26814904733739,23.010112885603213
1760682471.7818656,-7.684014729795874,-0.16814209856511092,0.9154386882041358,-0.2679202687899262,-11.200877025750971,24.95869399245413,22.845942318281264
1760682471.7919772,-7.513806140009245,-0.16539727426696146,0.9387220148948395,-0.2741367458775019,-12.082637732307889,26.427430188805523,22.819955016784967
1760682471.8028548,-7.337820757540559,-0.1629578166670076,0.9685605161688402,-0.27710105381050015,-12.881613085052239,27.64916410635665,22.862432477005097
1760682471.8119984,-7.156465326588969,-0.16027015583764834,1.0043464094923098,-0.27507839939421974,-13.620232363918245,28.61380743009398,22.872515308563777
1760682471.8219042,-6.971086753997518,-0.1566750804287361,1.0448890656848906,-0.2665299227066169,-14.337234591807688,29.329271325610573,22.723404496323493
1760682471.832127,-6.784172810253447,-0.1514629703631212,1.0884688696380505,-0.2503362573703161,-15.086648242456258,29.821908861735,22.272284272226074
1760682471.8422627,-6.599447897496103,-0.1439191989499582,1.1329695663024126,-0.2260055853923912,-15.933620321704304,30.134277284622225,21.374144367036596
1760682471.8522046,-6.421810765092517,-0.13336856590635196,1.1760704071668642,-0.19383461292642748,-16.9468352108197,30.320471149761705,19.897898260536063
1760682471.8619547,-6.257100596557832,-0.11923744668355975,1.2154626489580347,-0.15499194129302887,-18.18802930234437,30.439669625389868,17.74270075080389
1760682471.8718832,-6.111720513063368,-0.10115160366835567,1.2490494813028385,-0.11150137066222869,-19.699899779675228,30.54876711515115,14.852262057247652
1760682471.8819232,-5.992178999178572,-0.07907336139240712,1.2750977641384373,-0.06611585952423277,-21.494304310061416,30.69501641436647,11.225214898059866
1760682471.8920135,-5.9046229143804725,-0.053458682885981844,1.2923287325435295,-0.022086687310199617,-23.542876452815975,30.909577993665682,6.920104890402557
1760682471.9018772,-5.854431057458558,-0.025393323872322113,1.2999529032238546,0.01715659230090838,-25.771963805047605,31.202803469868183,2.0542078301939126
1760682471.9130952,-5.8459200498960024,0.0033410856357396963,1.2976642059158456,0.04839070772644241,-28.0631817007574,31.56198459498912,-3.203991554260374
1760682471.9220748,-5.882191630808016,0.030310992086616428,1.2856087101541986,0.06901142566928001,-30.26001278497116,31.95210006252038,-8.64826465770448
1760682471.9318926,-5.965127975441276,0.0526024650305976,1.2643386054264605,0.07742236419605576,-32.179972020826135,32.31968488020914,-14.053140566685112
1760682471.943139,-6.095522216704117,0.06711050300150544,1.2347582502128343,0.07333385387146475,-33.63109790600848,32.59926195147336,-19.19600482356263
1760682471.951846,-6.273315803770302,0.07091091269907022,1.1980686133191059,0.05790413737936053,-34.43104631564094,32.72090367669758,-23.88079507321725
1760682471.9622576,-6.4979028549557984,0.061661265011326905,1.155716416100966,0.03367182774899326,-34.42683861545186,32.61675920746136,-27.96076950739764
1760682471.9719367,-6.768454042130924,0.037969809092408845,1.10935041413243,0.004262718403837416,-33.5132427013298,32.224246991282335,-31.357438904751792
1760682471.9829767,-7.084208078809067,-0.0003237259031637493,1.0607797761677928,-0.02610103903445905,-31.647750407014474,31.484403439797067,-34.072641683488776
1760682471.9919667,-7.444677728260971,-0.05199528079317504,1.011923797188908,-0.053216784132311255,-28.860147070143427,30.335568913076187,-36.1910789634096
1760682472.0025926,-7.849722102775607,-0.11443027873520054,0.9647428337951881,-0.07353692695183293,-25.254852485797706,28.704725315329938,-37.871562548763336
1760682472.0119958,-8.299451640928902,-0.18376485613338048,0.9211470821947458,-0.08470657082078742,-21.0047474888044,26.50062906698936,-39.32676409850703
1760682472.0220888,-8.793957399194129,-0.25516438165025557,0.882888995853082,-0.08589782885684999,-16.33626089739739,23.613639787848456,-40.79317874681303
1760682472.0337024,-9.33288905130576,-0.32322347471937896,0.8514524232326327,-0.07787230861238975,-11.507035855327617,19.926278837495005,-42.49496828927859
1760682472.0428047,-9.914941199713295,-0.3824666629470177,0.8279531268848078,-0.06275820476301386,-6.779157409613541,15.335917127351614,-44.60690216520417
1760682472.0522513,-10.537338873996342,-0.427918908714241,0.8130600758057394,-0.04358944670111708,-2.392106865310919,9.787049697040121,-47.22234429962402
1760682472.0621464,-11.195431823029262,-0.4556978804516475,0.8069388009397507,-0.023706077478617776,1.4602099127686095,3.306527099799431,-50.33183463117176
1760682472.0736187,-11.882504278639471,-0.46355944679558,0.8092144121659794,-0.006142983600560791,4.644950151513223,-3.9675914467212166,-53.816278295675794
1760682472.0819738,-12.589877742111735,-0.45131212939934967,0.8189566751724717,0.006870067097658885,7.096637413317472,-11.77304995341437,-57.45646751549295
1760682472.0920224,-13.30733463961096,-0.42101063470303235,0.8346998696938424,0.01420829325762342,8.814490991968428,-19.73309033744238,-60.958326607414236
1760682472.1033757,-14.023835281279771,-0.3768493971348212,0.8545177504357168,0.015914914289053443,9.852565166073234,-27.390765144747924,-63.9915799767489
1760682472.1133833,-14.728452518497924,-0.32471347872192247,0.8761704664784195,0.013043676759063108,10.305354485032565,-34.263887672024936,-66.23837720129771
1760682472.1219788,-15.411409669851157,-0.2714094552855004,0.8973230904563094,0.007337887346715856,10.291604921134487,-39.91125548934899,-67.4464721932272
1760682472.1317656,-16.06507498692279,-0.2236803157158325,0.9158098436480275,0.0008250468953295526,9.938591901939024,-43.997528138320284,-67.47814284084012
1760682472.141858,-16.6847474498309,-0.18717902328395583,0.9298955114526275,-0.004590481344345424,9.368485948913495,-46.34390687564891,-66.34331098552306
1760682472.1521456,-17.269081731909523,-0.1656078075934302,0.938477989853167,-0.0074663479975324906,8.68791785131687,-46.95440330476852,-64.20674639472273
1760682472.1618629,-17.820056407614302,-0.16020856183431428,0.9411883081868707,-0.0070423847720098316,7.9814926613528385,-46.01225357245734,-61.36546862225896
1760682472.1719058,-18.342479807503164,-0.16971399275583396,0.9383706620842603,-0.0033134389135458676,7.309621501479009,-43.84698407370173,-58.20056033424613
1760682472.181854,-18.84312432033421,-0.1907592127371804,0.9309538244300718,0.003050416243530091,6.7105169953066675,-40.878509587551186,-55.11400957302196
1760682472.1919093,-19.329651355798863,-0.21864655337394256,0.9202486499720111,0.010913332195393907,6.20555338519507,-37.549053445703294,-52.46399935595516
1760682472.2020712,-19.809517326719767,-0.24828739660967253,0.9077193904873663,0.018961101381825957,5.806564376305156,-34.25564621816808,-50.511152867085976
1760682472.211964,-20.28903468451305,-0.27512595670710827,0.8947752784385461,0.02599747329332995,5.523229324749932,-31.295209812256733,-49.384626939194895
1760682472.2218359,-20.772712598701865,-0.29587353826803164,0.8826132777115221,0.031182293912975327,5.3686590241891325,-28.83110078521257,-49.07203609841653
1760682472.2319047,-21.262936842892163,-0.30893479498683935,0.8721207247812827,0.03416393448976674,5.361719696943469,-26.885301700218186,-49.432313342987456
1760682472.241944,-21.75998486950155,-0.31447754359227176,0.8638292850382489,0.0350878401686734,5.525450325185163,-25.355384014011523,-50.22677794182029
1760682472.2522154,-22.262321281771857,-0.31417164615783444,0.8579055051434392,0.034493309619323925,5.881923788811643,-24.05105151690556,-51.161411641414226
1760682472.2620246,-22.7670857065339,-0.310684850242983,0.8541659803045464,0.033133910837321603,6.444832117551553,-22.742228916319167,-51.93266021101814
1760682472.2719443,-23.27066971866759,-0.3070592127005467,0.8521107921356473,0.031768677696703815,7.21172577322115,-21.209526614831614,-52.26968037892961
1760682472.2820692,-23.76928005185834,-0.30609430952059874,0.8509733528260102,0.030971722254697544,8.158042787320099,-19.288411645266727,-51.96747253773593
1760682472.291721,-24.259399130604137,-0.3098396152033018,0.8497873264881174,0.03100065091412429,9.234765076725743,-16.900286961991867,-50.907402060080805
1760682472.301827,-24.73807844886517,-0.3192635081030396,0.8474726383413019,0.031752255869237876,10.370824211962992,-14.06652321286058,-49.06383356337613
1760682472.3119853,-25.20303352838739,-0.3341335593619496,0.8429428666595277,0.032817538755463435,11.48042740289571,-10.904736147297351,-46.4976729822754
1760682472.3219635,-25.65254821305914,-0.35311464444345303,0.8352341265672376,0.03362611292077643,12.474449538980748,-7.609591739091938,-43.33934934052459
1760682472.331745,-26.085234941866826,-0.3740617197006488,0.823649125607943,0.03364513867614887,13.274068896142436,-4.422592241470873,-39.76503873745915
1760682472.341932,-26.499727849277757,-0.39445024402925105,0.8078997410618922,0.03257901816840089,13.824093068337048,-1.5964074287249799,-35.97057127335924
1760682472.3518345,-26.894399144556907,-0.411858570724303,0.7882210538336696,0.030512813004168842,14.103177484077124,0.6405906618098566,-32.147302374576384
1760682472.3620021,-27.267182031195897,-0.42440698484981865,0.7654252517805747,0.027957261245264278,14.128559961775705,2.114672382918051,-28.4632286303094
1760682472.37186,-27.61555693584069,-0.43107254475181467,0.7408696606549106,0.02578018358664225,13.953972933933791,2.7283790810827853,-25.050970493121213
1760682472.3818657,-27.936719672282354,-0.4318315308068598,0.7163292557962917,0.02503871982751464,13.660795713469113,2.471452886332851,-22.00236775171697
1760682472.3918316,-28.22791026012858,-0.4276208303633676,0.693786697137709,0.026751413841847527,13.343960985716176,1.4207181703194744,-19.36795625688899
1760682472.4017544,-28.486844726052446,-0.42014424719385707,0.6751783585400082,0.03166279769323854,13.09535063541984,-0.27001526720799085,-17.15911324901385
1760682472.4131112,-28.712160305718218,-0.4115717714229515,0.662156942697963,0.04005297991623717,12.988107122518196,-2.387921314969017,-15.351310887276943
1760682472.4219043,-28.903762941928317,-0.4041879875881232,0.6559357989325438,0.05163275561518001,13.065114464311907,-4.684299158234388,-13.88803040604217
1760682472.432123,-29.06296802490188,-0.40004222714287263,0.657252857710297,0.06554543949310308,13.333754688301916,-6.900001870946538,-12.685504478008246
1760682472.4417791,-29.19235900107516,-0.40064155796669265,0.6664420233543156,0.08047339109326686,13.767347044788869,-8.790408156118104,-11.638397200010006
1760682472.45182,-29.295346635896138,-0.40671493460996955,0.6835583707875126,0.09482338617710184,14.312172803787247,-10.147531308892441,-10.626418696170413
1760682472.4619234,-29.375477835968717,-0.41806923747162733,0.7084927017369317,0.10694691179050479,14.89812216205772,-10.8172504809125,-9.522025667065762
1760682472.4718456,-29.43560155905584,-0.43355548368309416,0.7410267125195537,0.11534635543070482,15.45073086838009,-10.710056844973563,-8.199421171918333
1760682472.481886,-29.477039031587505,-0.45116015643696,0.7808068715023819,0.1188282599311818,15.902513906280744,-9.804238926830939,-6.54470024362359
1760682472.4921274,-29.498919113331198,-0.46822710804237144,0.8272422677156656,0.11658564394950001,16.20194304073741,-8.141218826865966,-4.466331589014408
1760682472.5017939,-29.497825907010416,-0.4817995545483615,0.8793540699214071,0.10821426030164587,16.31906668188958,-5.813800597776615,-1.9045995586381417
1760682472.5119138,-29.467867233516845,-0.4890518356357478,0.9356201595729154,0.09368437014049472,16.247495170543573,-2.9492320825015392,1.1615459938576755
1760682472.5219603,-29.40121148644265,-0.4877592687937892,0.993868174786878,0.07329513114398843,16.00311170364944,0.3100737354407221,4.71147576757404
1760682472.53184,-29.289059307636474,-0.4767348801299416,1.0512727256171328,0.04763237037851774,15.62029461908287,3.8248427134817815,8.684271101410756
1760682472.5422113,-29.122925986696846,-0.45614994341953896,1.104502928102226,0.017535994574207327,15.146584866311908,7.473137584848483,12.984304097442488
1760682472.5519218,-28.89603254218876,-0.42765856453759316,1.1500370114173424,-0.015931742722694268,14.636602229071961,11.158164682672702,17.490151735719692
1760682472.5633361,-28.604563942401313,-0.3942715820525725,1.1846097695899798,-0.051531777040535326,14.145697771783652,14.80872288825694,22.065588628270785
1760682472.5724196,-28.248566785570937,-0.35997264604167095,1.2056999441380603,-0.08791484961675285,13.723535967800272,18.372809731444153,26.571228147919737
1760682472.5820146,-27.832321804589576,-0.3291284975412974,1.2119277234577364,-0.12370437027841136,13.407788254027833,21.806282150849444,30.875391611621787
1760682472.5920517,-27.36412131589333,-0.30579679460019693,1.2032467995098257,-0.1575864979031741,13.21851796247947,25.05960214947922,34.86296249350043
1760682472.6019676,-26.855488557926062,-0.29306328929445485,1.1808854746504869,-0.18840175760000136,13.154442247483244,28.06636584994748,38.44133078655938
1760682472.6119418,-26.31997532550918,-0.29253918414458097,1.1470841177732185,-0.2152324693160262,13.192561658012945,30.73712775169862,41.54305851377178
1760682472.622026,-25.771743427435695,-0.3041162632831749,1.1047397114037616,-0.23747418796992226,13.292184540572938,32.9607466218835,44.12555136546597
1760682472.6318376,-25.22415429515658,-0.3260171925615632,1.057070146415032,-0.2548756352241205,13.403127023954356,34.613439372709216,46.168635693525395
1760682472.641967,-24.688558172812154,-0.35511078429731274,1.0073606154706016,-0.2675356080358268,13.476361597841015,35.57374641431372,47.67126552913905
1760682472.651929,-24.173410240416693,-0.38741092752044815,0.9587895815605745,-0.27585456871807307,13.47434204610791,35.740371485371114,48.64845398480151
1760682472.6620684,-23.68377285232234,-0.41865606962897345,0.9142901008167333,-0.28044915197162135,13.37814128372838,35.049549831915314,49.12900708636907
1760682472.6717975,-23.221207952714,-0.44487153495741777,0.876401138484102,-0.2820475177901469,13.189451114541825,33.489013811544865,49.154013672066654
1760682472.6819005,-22.784024914071235,-0.46283844955029535,0.8470946289059661,-0.2813897339348233,12.927060474031201,31.106427353588813,48.77560893590988
1760682472.6920214,-22.367822132610215,-0.4704186911498756,0.8276027317735017,-0.279156251187737,12.619074255239548,28.011070034403588,48.05542455368872
1760682472.7023041,-21.96624154654103,-0.4667095947974392,0.818292363778193,-0.27593685829469516,12.293282725810979,24.368426075212163,47.06231856741015
1760682472.7119749,-21.571843669767247,-0.4520267179484758,0.8186310210221788,-0.2722357907461706,11.968402508841136,20.388158767402775,45.86929124438004
1760682472.72196,-21.17700915135274,-0.4277391305639302,0.8272647739790819,-0.26849462898233734,11.648397751991594,16.30674287065666,44.549788573999436
1760682472.7319958,-20.77478213124068,-0.3960038002297318,0.84219943560959,-0.2651109390087662,11.321044906353652,12.366726843798846,43.17378001312314
1760682472.7422621,-20.35958739040944,-0.3594546472418666,0.8610519986661612,-0.26243787201419105,10.960707128251883,8.795068670125918,41.804051901031414
1760682472.7518728,-19.92777125414326,-0.32089492230173744,0.8813290141936354,-0.2607623555221774,10.5342635158791,5.783121882290916,40.49312208968032
1760682472.761866,-19.4779310010477,-0.28302522963641574,0.900692073140193,-0.26027059587793117,10.008523146410523,3.4706114814868627,39.28109416992552
1760682472.7717874,-19.011010719074907,-0.2482237424351395,0.9171817947764381,-0.261015662054558,9.357343937623847,1.9353707119384604,38.194630088274494
1760682472.7819912,-18.530159417658442,-0.2183859815328824,0.9293825126404502,-0.2629015848817933,8.567009412386003,1.1898090637991943,37.24702889498095
1760682472.791979,-18.040373521996315,-0.19482807379838538,0.9365162251128627,-0.2656922587065253,7.639006319551588,1.1841936207660542,36.43920888259316
1760682472.8018656,-17.547975517818816,-0.17825436588026206,0.9384585823423488,-0.2690443040138274,6.589989950182062,1.8159818869508049,35.76127128658617
1760682472.811854,-17.060001776515026,-0.16878373334950694,0.9356762143760842,-0.2725549587309535,5.449276256356415,2.943739082976244,35.19430537860324
1760682472.8218248,-16.5835769203665,-0.16602061657500616,0.9290953174596964,-0.27581213010679634,4.254579772964452,4.403692149972677,34.712159725683165
1760682472.8317814,-16.125341010486558,-0.1691523024388422,0.9199236492717242,-0.2784350173728902,3.0468990677716383,6.026805825850888,34.28302161218753
1760682472.8420467,-15.690977198287362,-0.17705589366422952,0.9094572697048898,-0.2800992098252748,1.86545550885672,7.654462077345215,33.87079092659966
1760682472.8521187,-15.284867002882741,-0.1884034656942315,0.8989054108386261,-0.28054731842206915,0.7434536754120591,9.151322851654799,33.436385674083404
1760682472.8621964,-14.909880973086342,-0.20175879208746808,0.8892603756546273,-0.2795918395412931,-0.29480708083527535,10.41458220016902,32.93924753555487
1760682472.8719542,-14.56729882316074,-0.21566469784732129,0.8812264883100126,-0.27711865813692493,-1.235235848256736,11.379372871918976,32.339384783019504
1760682472.882097,-14.256849178887053,-0.22872646390855322,0.8752072724007535,-0.27309684929215267,-2.0737348454209776,12.020478625011242,31.600247269288822
1760682472.8920014,-13.976861562704803,-0.23969890978538175,0.871337530627926,-0.26759482367580173,-2.814786390988155,12.350717158341965,30.692549868935284
1760682472.9019766,-13.724522894897795,-0.24757915211071976,0.8695398915271048,-0.2607973506706211,-3.4693268550380383,12.416460277435865,29.59886523649643
1760682472.911974,-13.496220482677066,-0.2516963648456708,0.8695854979057908,-0.2530154221217265,-4.052437994416678,12.290822756815858,28.31845257053662
1760682472.9219286,-13.287934331488495,-0.25178098935613663,0.8711455760495128,-0.244682344372157,-4.581306435671086,12.065134928972249,26.871467915584184
1760682472.9319842,-13.09562278373904,-0.24799441727647697,0.8738311917943336,-0.2363336878885512,-5.073717741737896,11.839432467138252,25.30152171679453
1760682472.9420426,-12.9155385377183,-0.24090748056751032,0.8772271097013159,-0.2285735396046751,-5.547116031547596,11.712824583516392,23.675599653618512
1760682472.952106,-12.74442366837179,-0.23142872383537638,0.8809282211049467,-0.2220330446264385,-6.018052591339193,11.774677725916945,22.08067667792313
1760682472.9619858,-12.579559903143318,-0.22069553541868822,0.8845834577257736,-0.21732845937023743,-6.501742123324351,12.097496604694651,20.616898140147992
1760682472.971986,-12.418684568066002,-0.20994807071088328,0.8879460800724103,-0.21502411813943115,-7.011475650796084,12.732139749558268,19.387876224948812
1760682472.9818428,-12.259813674372568,-0.2004067588094713,0.8909246685005905,-0.2156005796599446,-7.557780765923757,13.705584688815744,18.489288457548536
1760682472.992144,-12.101036631697658,-0.19317114243776132,0.8936272375606912,-0.21942180313114412,-8.147409053567793,15.020964424454348,17.997373840914406
1760682473.0020561,-11.940358402685431,-0.18915152916832637,0.896390349393137,-0.22669220357481218,-8.782393858799281,16.659193199441148,17.958975952778886
1760682473.012024,-11.775657391970372,-0.18903407465583144,0.8997850027421577,-0.23739850859186815,-9.459508286608992,18.581313853783108,18.38449421157499
1760682473.0221295,-11.604794989192307,-0.19326597497838313,0.9045922500770944,-0.2512411676243363,-10.170449054828937,20.730769379449974,19.24459769453495
1760682473.032291,-11.425860551226583,-0.20203703986684896,0.911744644490383,-0.2675703327622808,-10.902984212566045,23.03509104769111,20.470979272125657
1760682473.0420616,-11.237483036411511,-0.21523524687144166,0.9222339435335598,-0.2853469112487233,-11.643142283442755,25.40693403435874,21.960893735818587
1760682473.0521154,-11.039112617323491,-0.23237076563802594,0.9369904247413942,-0.30314758405286546,-12.378302211573352,27.744889820983072,23.584800669926103
1760682473.0621052,-10.831186085475258,-0.2524885788829402,0.9567450272875468,-0.3192255508396295,-13.100801788120366,29.934953222001514,25.19616402106609
1760682473.0721009,-10.615129345385954,-0.2741083982955446,0.9818913866127743,-0.3316301500266662,-13.811470809875454,31.853786227103328,26.64235530700352
1760682473.0822906,-10.393196181764829,-0.29523137415719936,1.012368419544036,-0.33838083804875396,-14.522371685389126,33.3748547098706,27.775634761739077
1760682473.0919306,-10.168178859425035,-0.3134390715735647,1.047584348040373,-0.33768310402867424,-15.258040265069306,34.37801940920555,28.46331111512066
1760682473.1018894,-9.943049143442217,-0.3260894301508521,1.086400002745821,-0.32816474872960694,-16.054677654813478,34.76227382648569,28.596393872938208
1760682473.1120799,-9.720598843198628,-0.3305925979366808,1.1271825047703259,-0.3091030440117711,-16.95701539838653,34.46024217996396,28.096316982102504
1760682473.1219883,-9.503148574839152,-0.32473242759456467,1.1679295360511093,-0.28060962311985194,-18.012898201811808,33.452098098013806,26.91955541433843
1760682473.1323798,-9.2923843726527,-0.3069916550088417,1.2064508401842966,-0.24374087256950233,-19.2659561374013,31.77604316685266,25.060124138541543
1760682473.1421485,-9.089365024655924,-0.27683788331708825,1.240581086711206,-0.20050666165629033,-20.747065343746886,29.532568400826342,22.550051626091218
1760682473.1519916,-8.894717611946175,-0.23492768417476884,1.2683906051009946,-0.15375989190810624,-22.465615757119142,26.88044061307059,19.457988053159085
1760682473.1619494,-8.709005401799958,-0.18318851220445137,1.2883595850956462,-0.10696292139834376,-24.4018619726577,24.02363734106739,15.886131340802354
1760682473.1718678,-8.533216538434129,-0.12475067282157938,1.2994874030787902,-0.06384234589348887,-26.501730809313912,21.190129122459645,11.965568541368068
1760682473.1819644,-8.369292760912176,-0.06372734648296768,1.3013210672840771,-0.02796017516818439,-28.675310453183187,18.605177380992846,7.849892004141047
1760682473.1920698,-8.220601954648211,-0.004870113388450217,1.2939030725427825,-0.0022478575049601833,-30.799835605277657,16.46324864943384,3.7066465677659832
1760682473.201973,-8.092259119982648,0.04685454049699837,1.2776559462561212,0.011432245281012695,-32.72738530708345,14.903258589350509,-0.29397246505847524
1760682473.21206,-7.99121602244149,0.08672183626934053,1.2532356588815057,0.012622891003662116,-34.296856111086505,13.991304429871862,-3.993487969283973
1760682473.2217767,-7.9260685520726515,0.11070174339880925,1.2213957881389916,0.002435520075656873,-35.34918046459619,13.713332345408345,-7.262171807322791
1760682473.232015,-7.906570539951988,0.11587815446879744,1.1829044973008922,-0.016507421975162837,-35.744274396930116,13.977801463810273,-10.017308589366117
1760682473.2420018,-7.94288839151402,0.1008028664927745,1.1385434204524334,-0.04036890701722012,-35.377810864331366,14.626206771514203,-12.240215278954636
1760682473.252264,-8.044674291161057,0.06574839410225106,1.08919203309684,-0.06461396777971054,-34.19565243556683,15.448193391663704,-13.988763429309474
1760682473.2619493,-8.22006991876459,0.012819964747669011,1.0359694687019398,-0.08468856005578453,-32.20374686372418,16.19836031881821,-15.401893759005961
1760682473.272037,-8.474775082666953,-0.054113181261266775,0.9803794581330662,-0.09676180663176621,-29.471603375915414,16.613350665198897,-16.693054562683585
1760682473.2817807,-8.811325765283074,-0.12969889778997315,0.9243952103082104,-0.0983988880962597,-26.12816869699943,16.42944267946896,-18.130752770029876
1760682473.2920394,-9.228716963356923,-0.20760144953051807,0.8704348265403454,-0.08901998852039211,-22.349994445609607,15.40155984173965,-20.006471947282066
1760682473.3019996,-9.722461128111304,-0.28117707318409263,0.8212083276079855,-0.0700268387220395,-18.342935843690807,13.324074400573602,-22.592813947489745
1760682473.3120987,-10.285082133185997,-0.3442288798688477,0.7794522480996855,-0.04454654649685903,-14.31998491380503,10.052484236538323,-26.097300370647407
1760682473.3221285,-10.906927206321184,-0.39171257599408216,0.7475962388659038,-0.01683479763561491,-10.47880451126172,5.523772435476849,-30.619169506801704
1760682473.3320043,-11.577088345867526,-0.4202782939618735,0.7274221408251106,0.00853532517800784,-6.9826896347506455,-0.22749653907908352,-36.11720771528519
1760682473.342069,-12.284213322113333,-0.4285860787826054,0.7197782941828395,0.027524761335664,-3.947879559221269,-7.060370577359789,-42.39589903270777
1760682473.3521385,-13.017066156607777,-0.41739201476543586,0.7244037883004205,0.037345629032831014,-1.4386112316344137,-14.728445886721202,-49.11493984772162
1760682473.3620253,-13.764827880201162,-0.38943592158528056,0.7399028471329607,0.03691141415948028,0.5304212293437165,-22.89196485152425,-55.823607245379186
1760682473.3718698,-14.517243768511364,-0.34915826512605436,0.7638873081284095,0.02695431938450987,1.9859007938557642,-31.14128687512406,-62.016967772341026
1760682473.381966,-15.264770428180444,-0.3022518872125203,0.7932725185481507,0.009814267204086622,2.9843996722879327,-39.03067441906074,-67.2062247492005
1760682473.3918571,-15.99884345787623,-0.25504686919699376,0.8246760413263089,-0.01103815547233989,3.5999383091083903,-46.11990678752984,-70.99179541986697
1760682473.402172,-16.712300215602077,-0.21375222081020595,0.8548452609502976,-0.03164331586948751,3.9124574366063665,-52.01956298881433,-73.12614729154225
1760682473.4118023,-17.399894012997127,-0.18362697965741145,0.8810389850372139,-0.04823816181726004,3.9984048465877327,-56.43408016924472,-73.55455902028044
1760682473.422161,-18.05876368470027,-0.1682047978675454,0.9013056152066822,-0.05786860828722799,3.92411061889283,-59.19545721178837,-72.4255869283436
1760682473.4318113,-18.68870064974988,-0.16872868275076888,0.9146262718194899,-0.058834838633212816,3.7423310981119853,-60.28060372889582,-70.06841333567266
1760682473.4418259,-19.292090174451246,-0.18394426748788925,0.9209168242420309,-0.05090976086595622,3.492107901036097,-59.80754963350019,-66.94046546753522
1760682473.4518158,-19.87348090036439,-0.21033821233734132,0.9209040072331566,-0.0353081871458996,3.2016700613559337,-58.00993355288983,-63.55453144293964
1760682473.4618173,-20.438830075072765,-0.24280456401336056,0.9159074204533144,-0.014423312254268898,2.893501522185582,-55.19421871867508,-60.3987406724637
1760682473.4718492,-20.994551645288386,-0.275610305602072,0.9075706895377278,0.008616186830127295,2.590166824143355,-51.68821848266748,-57.86408711158967
1760682473.4822626,-21.546538021653948,-0.30345236690197336,0.8975888252144434,0.030488804585372394,2.319303012351341,-47.791363387126594,-56.19221097328646
1760682473.49188,-22.099326102674876,-0.322380215331257,0.8874733385388393,0.048231248073446566,2.116415252802875,-43.736275939869934,-55.45150747404278
1760682473.501833,-22.655541204670694,-0.3304037692683963,0.8783836224440547,0.05970744755432854,2.0246568210845575,-39.6681466791438,-55.54368092822136
1760682473.5118175,-23.215693709342368,-0.32769318986845686,0.8710364037833794,0.06391744835685108,2.0914748841833983,-35.6441461637179,-56.237104393179315
1760682473.5218344,-23.778336756161245,-0.31637212603899784,0.8656894425369567,0.06109370800286605,2.362716151395896,-31.65077234593753,-57.21889145936755
1760682473.5320542,-24.34053011643434,-0.2999843216176242,0.8621850339379843,0.05257139651446889,2.8753840312493253,-27.63357736062345,-58.15506401179558
1760682473.5421317,-24.898504509632563,-0.2827637828470771,0.8600349605092541,0.04046492843630285,3.650597473930551,-23.531797903126353,-58.74780841162721
1760682473.5519342,-25.448389884249156,-0.268857530208282,0.8585300878673211,0.027222404267378927,4.6883125464292394,-19.31026447419695,-58.78039400286106
1760682473.5619757,-25.98686596587752,-0.26163835654659745,0.8568609331515751,0.015151871570290161,5.964999500246067,-14.982369148740698,-58.14342110833818
1760682473.5718825,-26.511614475367875,-0.26320919423619943,0.8542368027390512,0.006014659302907028,7.434816457912801,-10.620301878757395,-56.839961985678364
1760682473.5819898,-27.021495315691972,-0.2741530595447543,0.8499907110436274,0.0007634678603248774,9.03408132730367,-6.351615828177479,-54.97102939517966
1760682473.5918946,-27.516426063414016,-0.2935392266218162,0.8436581131844252,-0.0005300370718147856,10.688218287252736,-2.343905577969303,-52.70594799576187
1760682473.6020367,-27.997006375634676,-0.31916630316505135,0.8350213211757355,0.0014434219848914029,12.319963786158857,1.2184931635751608,-50.24422632624599
1760682473.612105,-28.463984747497392,-0.34799903336683236,0.8241175219431865,0.005497526329575851,13.857482667109624,4.1607338947651336,-47.77632340544923
1760682473.6223402,-28.91769975139905,-0.37672657839993867,0.8112146441546483,0.010289409939249754,15.241153322537828,6.3416168281587835,-45.45026720316161
1760682473.6330154,-29.357630238980562,-0.40234159382831236,0.7967646054289653,0.014645114770915226,16.428113292273043,7.671762327437314,-43.34946818901205
1760682473.64206,-29.782158673202524,-0.42263121565391715,0.781346899922108,0.017801394252827216,17.394151728065083,8.12355033031281,-41.48454450885237
1760682473.652174,-30.18859860911154,-0.43649175202240487,0.7656164531958295,0.019526160889524163,18.133066367324417,7.7322600024397845,-39.79908014709981
1760682473.6621418,-30.573474826661446,-0.44401852636059913,0.7502684210889907,0.02011407477331199,18.654036605909837,6.589235544648563,-38.18662702920338
1760682473.6719844,-30.93298597816371,-0.44636718346731047,0.7360295088918296,0.020278883848801887,18.97781379867012,4.828957509472289,-36.51445465606669
1760682473.682003,-31.263536797161237,-0.44542454711616714,0.72367939067946,0.02097621731970727,19.13255730855036,2.6126460974270613,-34.64882076383208
1760682473.691885,-31.56220864223378,-0.443359467341064,0.7140957353804058,0.023191380009968836,19.149976247272924,0.11142254645577064,-32.476920334001356
1760682473.7028148,-31.82704725830315,-0.44214112046541065,0.7083038308324265,0.02772247176619961,19.062174678365327,-2.5080019124237682,-29.92198594007041
1760682473.711952,-32.057084671083885,-0.44311273286892133,0.7075017683837976,0.03498676476842076,18.899355769995935,-5.092759271983714,-26.949888518211544
1760682473.7219064,-32.25207398581497,-0.44669726433117946,0.7130299270095466,0.04487902650842691,18.68836057787992,-7.5072294501265135,-23.567547200363286
1760682473.7320936,-32.411991398539335,-0.45229183764884073,0.7262612838884148,0.05670872784598211,18.451882391445686,-9.630860889382769,-19.81505133968518
1760682473.7420092,-32.53642989287245,-0.4583775480832531,0.7484053814121964,0.06923311340928644,18.208096360044426,-11.352419979736077,-15.754332244976267
1760682473.7519217,-32.624050365415485,-0.46282994923242743,0.7802404121978612,0.08078590639783212,17.970399663693808,-12.56373303689494,-11.45740377237936
1760682473.7618852,-32.67225266590279,-0.4633721009575519,0.8218111856050341,0.08948307945239473,17.74701730424886,-13.156201387398232,-6.996699539400007
1760682473.7719648,-32.677182315992766,-0.458080948987459,0.8721513187121751,0.09347275876119203,17.540432924464714,-13.022700477503276,-2.4390656996180535
1760682473.7820168,-32.634112854917504,-0.44584703296101535,0.92910095283299,0.09118785883055497,17.34692368039516,-12.06606916863583,2.1562127862881653
1760682473.7920294,-32.53815684123952,-0.42669583232249847,0.9892923366375681,0.08155869057333913,17.156764009056115,-10.213557563402127,6.736080436964479
1760682473.8018482,-32.38517772105564,-0.4019025692276419,1.0483609535596112,0.06415024066352173,16.95569579471071,-7.434760169380933,11.25059339726549
1760682473.812103,-32.17271865949228,-0.37386937556459415,1.1014045124178098,0.039205003616098785,16.727902947608783,-3.7591959034779574,15.649865635436932
1760682473.8218887,-31.90075100497045,-0.34578172291155035,1.143652260978735,0.007593846472676526,16.460046434685395,0.7107882074974935,19.88273531053662
1760682473.8321023,-31.57208057791716,-0.3211096436259563,1.1712308916551188,-0.029301772456517626,16.14519574845484,5.795505480436094,23.89810391244411
1760682473.842001,-31.19232178229747,-0.30305077661210506,1.1818498798760053,-0.06974208539749217,15.785141887987933,11.243951765766942,27.64884789057115
1760682473.851819,-30.769434680271594,-0.2940144437181057,1.1752188317480223,-0.11178805219879837,15.38995290486748,16.75051413045974,31.097140037142328
1760682473.8621337,-30.312900541047387,-0.29522648369598237,1.153075125512724,-0.15345656554064552,14.974757086176815,21.98079065710303,34.21935473939409
1760682473.872033,-29.83267728805471,-0.30651188915022864,1.1188212928035264,-0.1928715647568905,14.555080367781468,26.603690823698024,37.00874548319483
1760682473.8822713,-29.338117637488313,-0.3262913088143908,1.0768906036623738,-0.22840661628856831,14.142787027966888,30.325942522269546,39.47479356277426
1760682473.8920796,-28.837035779757827,-0.3517990168529635,1.032021236980294,-0.2588053660828894,13.744291281971673,32.924256027105756,41.63927499766562
1760682473.9018042,-28.33506744112609,-0.3794916720558138,0.988607761037673,-0.28326265757515007,13.361489377412834,34.27014814269219,43.53021890377848
1760682473.9119806,-27.835395867488963,-0.40557853627782103,0.9502357347803922,-0.30145235256936403,12.994544698632803,34.343241961317375,45.17558759795875
1760682473.9220424,-27.338837295915102,-0.4265757820370791,0.9194287049377411,-0.31349607418776493,12.644876819855174,33.230664808062436,46.59849539839438
1760682473.9318163,-26.84421543119439,-0.43977963648185064,0.8975786627861645,-0.31987917813989897,12.31670510277126,31.11255103840092,47.81518410776691
1760682473.9420958,-26.34891699987517,-0.44357217744685085,0.885006394638952,-0.32133326199528117,12.016189898197318,28.23614839759411,48.83603106937617
1760682473.952333,-25.849512473060432,-0.43751694428394716,0.8811033013960579,-0.31871267480354804,11.748292705062047,24.88314312123634,49.66888119428981
1760682473.9619083,-25.34234385919468,-0.42225554490152095,0.8845246256450684,-0.31289114890605196,11.512498356217622,21.336002894231473,50.323280797077224
1760682473.9718564,-24.824016216733767,-0.39926261516195194,0.893417905478305,-0.30469443796085566,11.29908762562657,17.848954650653297,50.81397945491927
1760682473.981853,-24.291769070526193,-0.37053907159366506,0.905671220108886,-0.29487115137573416,11.087523154619436,14.627694459250469,51.16239174339156
1760682473.9919136,-23.74373617043263,-0.33831731481151506,0.9191572759732946,-0.2840926728856895,10.847814736721089,11.819599753920071,51.39541284577987
1760682474.0022154,-23.179118985024683,-0.30482511649630895,0.931943056131935,-0.27296720186353246,10.54475614448193,9.51380713358793,51.54180951454323
1760682474.0118527,-22.598299541962916,-0.27212300431688907,0.9424398717338935,-0.262053156195856,10.144026676187561,7.748655367236717,51.62711261241208
1760682474.0220227,-22.002906343011766,-0.2420058371362688,0.9494849946561941,-0.25186256685858466,9.61862366456567,6.523055190388605,51.66832931444017
1760682474.03217,-21.39583075748457,-0.21594745521679384,0.9523647587164729,-0.2428531319715909,8.954078783070477,5.808418849409404,51.66979257408282
1760682474.0419724,-20.78117844661239,-0.19506665265062087,0.9507999784235136,-0.23541397521903346,8.151346463143724,5.558653458888731,51.62112665952159
1760682474.052066,-20.16413730549507,-0.18010067955123785,0.9449133721294188,-0.22985121114594118,7.2269238407082455,5.7169964833556275,51.497772771146046
1760682474.0619628,-19.550752328481156,-0.17138473094350692,0.9351884709960004,-0.22637581672792723,6.210429325462462,6.219730921780462,51.26394393234047
1760682474.072178,-18.94761501540541,-0.16884579367171274,0.922417730303533,-0.2250927391300662,5.1403573485169485,6.997745087995368,50.8773906806736
1760682474.0819583,-18.361492549338713,-0.17202161176281236,0.9076315733688687,-0.22599039917776312,4.058961352452759,7.977326764425684,50.29505483568489
1760682474.09206,-17.798932194055034,-0.18011009642410214,0.8920033077931174,-0.22893316560204063,3.0072042240134924,9.081486900049345,49.47863214071571
1760682474.1019578,-17.265875610740167,-0.1920451213051994,0.8767346612813623,-0.23366241827259268,2.0205187938109392,10.23261327159816,48.39926045446734
1760682474.1118486,-16.767308645250083,-0.2065867649253487,0.862936144053248,-0.23981139426145054,1.125823859833104,11.356565101267853,47.040914743004194
1760682474.1221244,-16.306961463795126,-0.22241192076046146,0.8515198796914623,-0.24693471373448864,0.3399291144678139,12.38766352866173,45.40247269260706
1760682474.1321473,-15.887068268800018,-0.23819535478272208,0.8431196098352542,-0.2545477112755182,-0.3307892479920852,13.273605401810439,43.498668789289596
1760682474.1419196,-15.508197814145408,-0.2526789352720018,0.838046683137837,-0.26216684314589134,-0.8897074568047727,13.97924512577599,41.36020469369285
1760682474.1524644,-15.169173550170477,-0.26473398077322857,0.8362851550729382,-0.2693425656576544,-1.3485735312459413,14.488454244526444,39.03315156206958
1760682474.1621454,-14.867109423245468,-0.2734243331254743,0.8375246936931902,-0.2756799244741888,-1.7256998794811593,14.803765185696083,36.57757575711372
1760682474.1722383,-14.597585505277424,-0.2780727289806851,0.8412264145183581,-0.2808476926034953,-2.043941793792824,14.944042382256985,34.065192035599985
1760682474.1819623,-14.354970166134498,-0.27832213769776726,0.8467134567094811,-0.284581771882437,-2.328626324307035,14.940824284786478,31.57589829157984
1760682474.1920738,-14.132864309748252,-0.2741747284773926,0.8532748192800754,-0.2866909068406101,-2.6055750511682905,14.834160768748307,29.193266685752928
1760682474.201856,-13.924609885300258,-0.2659914779236649,0.8602682556749818,-0.2870720451276767,-2.899359481774756,14.668742256445345,26.99936044943919
1760682474.212109,-13.723784080525819,-0.25444557065717505,0.8672074075665418,-0.28573922990409734,-3.231914515811486,14.490925911944727,25.069480250393237
1760682474.2219324,-13.524601427525017,-0.24043679333748072,0.8738211413786519,-0.2828640150052104,-3.6215946965040637,14.346952777605722,23.467508953316088
1760682474.2321396,-13.322169085420803,-0.22498571814255705,0.8800787918056913,-0.27881772474243505,-4.082687274587302,14.28225769921496,22.242387119520053
1760682474.2419562,-13.112580202122706,-0.20913254983939447,0.8861817624833656,-0.2741985992705407,-4.625310316721093,14.341365017852361,21.425965335092492
1760682474.2521207,-12.892876323201062,-0.19386475164534608,0.8925275266186189,-0.2698234769811907,-5.255554037446842,14.567548769529271,21.032136589603294
1760682474.2622273,-12.660945823128383,-0.18008743139891145,0.8996549960211728,-0.26666713580617973,-5.97570526334725,15.00135933533487,21.056850976800735
1760682474.2720706,-12.41543246416631,-0.1686304855679821,0.9081800971879928,-0.2657429236057893,-6.784443897062586,15.677374103180954,21.478439192949104
1760682474.2824266,-12.1557013365097,-0.16026565581160332,0.918728127396847,-0.2679326515342873,-7.676993591531651,16.619085102462762,22.25766923149562
1760682474.2922623,-11.881866878165237,-0.15569960725339022,0.9318667168023103,-0.2737874806152139,-8.645300399935167,17.83253723121345,23.33713997121447
1760682474.3020751,-11.594855717596813,-0.15552098304595283,0.9480414990611895,-0.2833319192197394,-9.678366487523018,19.299971521201982,24.639949971535316
1760682474.3122463,-11.29646831124287,-0.16010145920068575,0.9675166801104111,-0.2959091088267819,-10.762875004340344,20.975112735688285,26.068012854612736
1760682474.3222444,-10.989413756343456,-0.16947166826233961,0.9903243347517451,-0.3101063689189104,-11.88422653202863,22.781720814383817,27.500832501406492
1760682474.332,-10.677309586289015,-0.1832051166093558,1.0162281220668727,-0.3237941809438831,-13.028081958415202,24.616546366686215,28.79588368956072
1760682474.3419313,-10.36464929390583,-0.20034352913138134,1.0447073530105808,-0.3342985000142339,-14.182450728548908,26.356967615655876,29.79184036324428
1760682474.3521452,-10.056737879423784,-0.2193879905616662,1.0749649937474786,-0.3387053992711353,-15.340234061715883,27.872536492986814,30.315660090846542
1760682474.3618371,-9.759585109244863,-0.2383690501812291,1.1059595783247913,-0.33427067491714424,-16.501913327790167,29.03869017570468,30.193951712616965
1760682474.3719673,-9.479738896929689,-0.2549995532884612,1.136458908369293,-0.31888092894747855,-17.677806173746003,29.750259548810497,29.2682085275429
1760682474.3821359,-9.224044131532825,-0.26690363266994294,1.165113780021909,-0.2914939867957773,-18.889088096904203,29.932317218353653,27.412557202870595
1760682474.3918502,-8.999324305393737,-0.27190092872285476,1.1905502816090432,-0.2524794778001286,-20.166704380766717,29.546395884478812,24.551859966178966
1760682474.401926,-8.811999856126418,-0.2683092304721107,1.211475961192956,-0.20378537842822966,-21.547469016139562,28.591077114926392,20.677480097345732
1760682474.412096,-8.667674295246718,-0.25521810245662385,1.2267880710110968,-0.14887311385067542,-23.067095343668477,27.097218664927507,15.857874792826827
1760682474.4224367,-8.570734342328057,-0.23268644755964077,1.2356652951582043,-0.0923936711676948,-24.750566565519012,25.119381450540093,10.241458964783705
1760682474.4324005,-8.524021132352471,-0.20182925889030298,1.2376229541365937,-0.03962026194613775,-26.600998086317553,22.72596188987521,4.049897731278454
1760682474.444563,-8.528633102387442,-0.1647784267808101,1.232517660990753,0.004295600401542166,-28.588816320667675,19.990766275039107,-2.4388760843594675
1760682474.452059,-8.583913791875862,-0.12452182484305277,1.2204996849180287,0.0351293536681392,-30.64354199424413,16.98810086923909,-8.917108470198656
1760682474.462628,-8.687657432315673,-0.08463853759791383,1.2019272984427634,0.05030397913292923,-32.65058105772301,13.792020393641744,-15.08061119057995
1760682474.4721456,-8.836533814895635,-0.0489566316026242,1.1772722919830758,0.04937989466471918,-34.45504752911727,10.478627856450563,-20.66501205264472
1760682474.481972,-9.026697373574871,-0.021167610010276557,1.14705207735508,0.034203137335353226,-35.87367565134787,7.128901934663307,-25.479805739868038
1760682474.4919376,-9.254510682608295,-0.004439920599728502,1.1118157209022053,0.008663118199494519,-36.71438707993135,3.8290207365778604,-29.434997097851635
1760682474.501948,-9.517285487591273,-0.0010784372733345462,1.0721909605221631,-0.02191419457376889,-36.80134527089313,0.6657759173850564,-32.555884155160925
1760682474.5121882,-9.813929617546371,-0.012272317586182717,1.0289760972702566,-0.05163975306865608,-36.001794543975045,-2.283762622666998,-34.983058616996324
1760682474.522314,-10.145389745079687,-0.03795979221695431,0.9832444713121408,-0.0750473562491564,-34.250079306058815,-4.967114534487824,-36.956736393403276
1760682474.5320415,-10.51480075968819,-0.0768216266577266,0.9364243595785324,-0.0880095568203424,-31.564243684542223,-7.372562840933095,-38.7867180823157
1760682474.542065,-10.927291436866158,-0.12640137090252646,0.8903216335851557,-0.08840901823936556,-28.05159058691414,-9.541998277153468,-40.81129036988768
1760682474.5521822,-11.389445715557972,-0.18333907249154,0.8470624518087245,-0.07643593551342957,-23.901404479482682,-11.575499131678093,-43.3499711702625
1760682474.5621185,-11.90846630673704,-0.2436908750969961,0.8089468554519479,-0.05445790648608007,-19.365383326123723,-13.623851177521994,-46.65599024068058
1760682474.574317,-12.491120885311517,-0.30329110316174973,0.7782212677978578,-0.026499275553456873,-14.728674965407446,-15.867774781363293,-50.87464430188995
1760682474.584462,-13.14257027727841,-0.3581076418124085,0.7567972145026834,0.0025519462151955205,-10.276212012094652,-18.486095894710928,-56.01314882909046
1760682474.592444,-13.865194742800604,-0.4045558424493006,0.7459617864626926,0.027843068685156538,-6.259836712284416,-21.618442580526683,-61.92647558662246
1760682474.604164,-14.657558299813914,-0.43976271092384905,0.7461377564191162,0.04538845413329308,-2.8713127255157054,-25.330079282399623,-68.32213484235672
1760682474.6134431,-15.513673780548325,-0.4617889283706509,0.7567513395662654,0.05268960509525466,-0.22490622668014845,-29.586496519207703,-74.78501443537074
1760682474.6232104,-16.422731301948495,-0.4698080792733503,0.7762472155767152,0.04905094443804708,1.6487491587293994,-34.2434871261683,-80.82110260800842
1760682474.6320906,-17.369414191479613,-0.4642207540832288,0.8022554053133768,0.03556177097071652,2.797785230937649,-39.05540034587547,-85.91613046895672
1760682474.6421504,-18.334849344431873,-0.44666728612178547,0.8318769843387737,0.014778680614131302,3.3351486335425182,-43.700897392590235,-89.60220658012985
1760682474.6536486,-19.298135341454326,-0.4199082186553635,0.8620323686307289,-0.009804471736409713,3.4185471116067228,-47.822438692846276,-91.52313434037076
1760682474.6632285,-20.238280016717624,-0.38756234406054035,0.8898128123633154,-0.03438121425728976,3.22767967618548,-51.07331366280955,-91.48812994867352
1760682474.6734724,-21.13628503637747,-0.3537182860791415,0.9127862417549903,-0.05543114290114888,2.941938713319768,-53.16464054163083,-89.50462971765238
1760682474.6824353,-21.97706639728746,-0.32245977203805803,0.9292232369017884,-0.07019520665525195,2.72113582878017,-53.904769341521465,-85.78383855627621
1760682474.692453,-22.75091416509838,-0.29736422860594414,0.9382222494867127,-0.07696967292392443,2.6909604852514772,-53.22501602942199,-80.71711959001449
1760682474.7023008,-23.454269457104196,-0.2810477923202501,0.9397243280453257,-0.07520525532091775,2.934033579839968,-51.188246916627996,-74.8263171483771
1760682474.7129505,-24.089711677325834,-0.274833505348459,0.9344200123927088,-0.06543686485811219,3.4866883877487447,-47.97977326346066,-68.69559070333837
1760682474.7219782,-24.665178179295246,-0.2786074006250801,0.9235676003938691,-0.04909384865249498,4.341055607505608,-43.882629538219824,-62.895427035699726
1760682474.7322197,-25.192557048982486,-0.29089624095715977,0.9087598259796739,-0.028244634613193216,5.4516677695974,-39.24124568185254,-57.91057419370288
1760682474.7421446,-25.685880839987707,-0.3091564918810252,0.8916868758432622,-0.005316623486793191,6.745600772506098,-34.41871928853978,-54.08250335139882
1760682474.752895,-26.159391869997282,-0.33022106102443544,0.8739402705712542,0.01718574841996752,8.135035889704342,-29.7534116756447,-51.5740389520323
1760682474.7625675,-26.62574694752183,-0.35082327800974217,0.856883719123808,0.03695262452633223,9.53092899749134,-25.52052551069023,-50.359848670264434
1760682474.77206,-27.094590197135606,-0.36811231985421694,0.8415913098113996,0.05211812503443923,10.856183261930614,-21.903736820337027,-50.24245332315967
1760682474.7821157,-27.57165851273074,-0.38008526453926245,0.8288328685983893,0.06146920984797915,12.056478194699508,-18.9808326550481,-50.88995753430646
1760682474.7920585,-28.058502949340724,-0.3858775368223854,0.8190798240930638,0.06458843858861554,13.106946858832028,-16.725567980580326,-51.88916629611347
1760682474.8035629,-28.55281675904007,-0.38586888635170014,0.8125114259718706,0.061902707362607015,14.013363452826606,-15.025616870098595,-52.80624753531377
1760682474.8120987,-29.04926643585095,-0.3815774517765029,0.8090129515616425,0.05461705772694675,14.807381261102075,-13.713803012134901,-53.246587817272804
1760682474.8218827,-29.540642395220257,-0.37533731428126005,0.8081681074731456,0.04453018083518008,15.536501492572286,-12.607228558391142,-52.90588502159249
1760682474.8319342,-30.019099059038606,-0.36979295264706125,0.8092555873672203,0.03375310478782993,16.250642329446347,-11.547081404916643,-51.60576602434356
1760682474.841919,-30.47725209693796,-0.3672958394795461,0.8112660250873388,0.024377407021370635,16.988110479827892,-10.43135805390823,-49.3092905816067
1760682474.8520088,-30.908944488461675,-0.369336291723884,0.8129602128968042,0.018154344432375562,17.764105524315532,-9.233801359334736,-46.11456048104513
1760682474.8621745,-31.309574282474724,-0.3761597976934322,0.8129876303100309,0.01624461124962541,18.564406893298344,-8.004924680943882,-42.228045926633214
1760682474.8718753,-31.675979778699674,-0.3866835842197446,0.8100706909919634,0.019081248759287295,19.345711490790706,-6.8546247637401105,-37.92260887323645
1760682474.882113,-32.005981646749504,-0.39875318255326175,0.8032372141840299,0.026363323258341644,20.04257721488736,-5.919872797936943,-33.4878056948809
1760682474.8920712,-32.29776281124266,-0.4096870506082891,0.7920612733504281,0.03717283987592801,20.57952207007045,-5.324429717668837,-29.181242757422364
1760682474.9019694,-32.549303693745124,-0.41697956787000634,0.7768584764247294,0.05018556290541119,20.885849637470752,-5.139567261982187,-25.189248783772225
1760682474.9121766,-32.758068457251134,-0.41898922249042114,0.7587799684053432,0.06392972051604122,20.910326449685726,-5.354818350887057,-21.603106892103533
1760682474.9222898,-32.92105805668414,-0.4154389101367094,0.7397661244787384,0.07703769807415506,20.632877732013338,-5.865763289133243,-18.41407497017499
1760682474.932133,-33.03522763705099,-0.40759870854883573,0.7223576798907885,0.08843822579400043,20.070951265749187,-6.482186323675324,-15.526985193860805
1760682474.9423983,-33.09814507527304,-0.3980971410979648,0.7094026114416356,0.09745175640919065,19.279135392394828,-6.955418330416214,-12.788887404564026
1760682474.9519453,-33.10868590674333,-0.39039498405747913,0.7037162158481225,0.10377713766834569,18.341932991093845,-7.019428583324583,-10.026559031556733
1760682474.9619133,-33.067546855963414,-0.388034925321744,0.70774228446985,0.1073868188105843,17.361015178812902,-6.437333344390332,-7.085299722389306
1760682474.9721003,-32.97741821843851,-0.39383264314059857,0.7232417235903198,0.10837204841960618,16.439426961095695,-5.044093245811183,-3.8615858261537372
1760682474.9819686,-32.84275998660558,-0.4091871973472761,0.7510218225960814,0.10679089422504419,15.665797919107817,-2.7773003869309227,-0.3238090409789163
1760682474.992122,-32.66923919824327,-0.4336590293955317,0.7907224750957881,0.10256641802243142,15.101508608766148,0.30933746571128234,3.4819934644169384
1760682475.0019577,-32.46297036993516,-0.4649041118441799,0.840689662322927,0.09546174935835608,14.77303392315682,4.051646175473062,7.441470617001152
1760682475.012117,-32.22973674232627,-0.49898169530312186,0.8979793408670471,0.08513082329303072,14.670534991120185,8.198009252945551,11.393647467393588
1760682475.0222344,-31.974356808335276,-0.5309858282384351,0.9585350630755128,0.07121923051964778,14.752510484624846,12.445120248425393,15.160237134058567
1760682475.032172,-31.700310631587996,-0.5558931210419742,1.0175639506679244,0.053477545987382864,14.955247517436101,16.48009054421688,18.576796840064453
1760682475.0420601,-31.409670139876635,-0.5694724981917045,1.0700977552497157,0.031851435689068765,15.205107984891145,20.02210922327759,21.52004070513437
1760682475.052041,-31.103304617198596,-0.5690761498000804,1.111673626034544,0.00652587625210357,15.43136555744475,22.857560038884493,23.92677114199441
1760682475.0619147,-30.781275879916247,-0.5541429844928782,1.139013482037315,-0.022078826475522232,15.577299857539641,24.86397658380936,25.801764686002414
1760682475.072023,-30.4433109319623,-0.5263056068245753,1.150541279732996,-0.053341019746891274,15.607534262846835,26.020029130981584,27.21406840363604
1760682475.0819173,-30.08924500416023,-0.48908316602520396,1.1465838219046802,-0.08647594145126133,15.510293111803472,26.400641659170308,28.283084981756623
1760682475.0921936,-29.719356231377553,-0.4472354764167895,1.1291767185509503,-0.12056582006597359,15.294480530677012,26.158390735442808,29.157259984284636
1760682475.1022332,-29.33455258981006,-0.40592427208947907,1.1015285318334813,-0.154592214141311,14.983024959620405,25.494542143876796,29.98903662592508
1760682475.1123157,-28.936409109737284,-0.3698590383705436,1.0673210957750527,-0.18749106908579952,14.605102338955628,24.62494721598768,30.91005940542899
1760682475.1222425,-28.52707788667905,-0.342590226017106,1.030071845551883,-0.21823938651186195,14.189952520475,23.74680090550529,32.010473235873754
1760682475.1319659,-28.109103203338073,-0.3260627616818586,0.9927298955984346,-0.24595957530955642,13.763941027511155,23.011634600668447,33.32558759840257
1760682475.1420286,-27.685176391777173,-0.3204802804570351,0.9575571800313475,-0.27000997997246945,13.350865314856659,22.508197754601753,34.83208682152059
1760682475.1520336,-27.25786520502732,-0.32446957703531104,0.9262247787206797,-0.290028422439718,12.974056481862672,22.256680303073846,36.454380205024265
1760682475.1621788,-26.82934896898925,-0.3354799046433037,0.8999879074569764,-0.30591147050259226,12.658151903554753,22.213611005706607,38.07983089695797
1760682475.172326,-26.401183163168,-0.350311824250573,0.8798109232801286,-0.31773849560476625,12.428688302103106,22.285175719179396,39.57988137755427
1760682475.1821132,-25.974109801600147,-0.3656578026647591,0.8663773798404021,-0.3256734696584202,12.308703515802039,22.345883113051304,40.83293132818019
1760682475.1923454,-25.54792675010979,-0.3785544527182926,0.8599988080034813,-0.32988648033826995,12.312893956153186,22.259449488780927,41.744561195621266
1760682475.202224,-25.121429530200114,-0.38668508609631186,0.8604908435355619,-0.3305265274752786,12.44102271616679,21.899243181502133,42.26146665619402
1760682475.2123716,-24.692441976170645,-0.3885188206523778,0.8670971763199068,-0.32775319850524437,12.672804691975708,21.16630342662115,42.377066195355134
1760682475.221904,-24.25795631530561,-0.38331599436760233,0.8785143082022617,-0.32180948525065656,12.966259465583521,20.003560284105316,42.12865130298972
1760682475.2321901,-23.81440454151569,-0.3710545670931681,0.8930237265345778,-0.3131022146746593,13.260626629827007,18.40529255047724,41.587615439950255
1760682475.2419555,-23.35807371839742,-0.35233032734219455,0.9086977107861282,-0.30225488541367684,13.48368116132738,16.421081040241404,40.84538228191557
1760682475.2521443,-22.88565347759191,-0.328261735395432,0.9236271878856893,-0.2901082988358129,13.562073759910051,14.153678800213461,39.998052611169534
1760682475.262014,-22.394868348541564,-0.30040414591755454,0.936126358374605,-0.27766188093563915,13.432533551435814,11.750512545907247,39.13255400784153
1760682475.272183,-21.885111798571902,-0.2706607998398518,0.9448883031680806,-0.2659666249271453,13.05161640618312,9.389085971021482,38.31635790620695
1760682475.2820103,-21.357975588350488,-0.24117328557792939,0.9490844480668199,-0.2559934889095776,12.4021328890683,7.2573808491087926,37.59183915502534
1760682475.2919548,-20.817565863690533,-0.2141792623832454,0.9484105553318656,-0.24850557419402092,11.495236275106652,5.531301970182734,36.97533226204795
1760682475.3024104,-20.27051875569813,-0.1918353208111932,0.943083219274667,-0.24395860067270536,10.368112005112769,4.352029651066399,36.460100370449084
1760682475.3121517,-19.725669440088286,-0.1760140251046624,0.9337886370297985,-0.24244548037901836,9.078037614090947,3.806556829393052,36.02191236473176
1760682475.3219244,-19.193380106214978,-0.16809316308283626,0.9215847200716737,-0.24369192939417575,7.694129836977609,3.9145360124685458,35.62574966637706
1760682475.332115,-18.684583031718148,-0.168761144130044,0.907761618737668,-0.24710344611023918,6.2883182043784895,4.623834661955365,35.232298932817436
1760682475.3421862,-18.20963986346247,-0.17786862139537182,0.8936747683158408,-0.2518580079179342,4.927003657981301,5.815983814824028,34.803266328301234
1760682475.3521738,-17.77715720666723,-0.19436349492298047,0.8805749229538128,-0.25703164841959686,3.664542298966654,7.321168483717356,34.305075748682995
1760682475.362229,-17.392925582542276,-0.21634547699141615,0.8694651355836412,-0.26173762138834883,2.5392286104040473,8.940809945232793,33.7110419710573
1760682475.3719897,-17.059149025370846,-0.24125708985931613,0.8610108520824666,-0.265257694167583,1.5719353066264736,10.474446608857086,33.00248390835518
1760682475.3821552,-16.774096720063007,-0.26619403330317426,0.8555165567563257,-0.2671465774050523,0.7670973257453463,11.746810405306327,32.1693621755934
1760682475.391928,-16.532243421523187,-0.28828587627821717,0.852965278072737,-0.26729459603861905,0.11539670795766921,12.63088248564967,31.21088604084997
1760682475.402118,-16.324889782908336,-0.3050813643058514,0.8531017309683816,-0.2659374750379341,-0.402636508313723,13.063316517823413,30.136225937770313
1760682475.4118876,-16.14118297142622,-0.31487292505018183,0.8555308942167621,-0.26360720906719404,-0.8128549065875506,13.049841299461871,28.96512092269105
1760682475.4221504,-15.969401317309982,-0.3169075259312099,0.8598041007127456,-0.26102702576496034,-1.1441390613210782,12.659914758764979,27.727907919253084
1760682475.4321601,-15.798329563619196,-0.3114514214280844,0.8654737533128227,-0.25896579123744645,-1.4258101042557172,12.01173720167959,26.464407445428225
1760682475.441918,-15.618537908039881,-0.2997011193774891,0.8721115571791109,-0.25807858611399187,-1.6859168877377064,11.250409196904485,25.221219730225755
1760682475.4524715,-15.42339158697812,-0.2835585089374159,0.8792982247268051,-0.25876590194570276,-1.9502889337733031,10.523208863046811,24.047304418128668
1760682475.4621758,-15.209657471478767,-0.26531028028767706,0.8866010290965387,-0.2610816262703688,-2.2420940787298407,9.956429119606664,22.988171964202515
1760682475.4721513,-14.977634124139216,-0.24726662808577768,0.8935578548655464,-0.2647104186571775,-2.581577906883329,9.63784889673445,22.079492848861758
1760682475.4819257,-14.73080320408835,-0.23141977010319004,0.8996826694539403,-0.2690210417933774,-2.985701424869485,9.607752736317163,21.341292499074473
1760682475.4921129,-14.475073299574754,-0.2191787741115966,0.9044990170717931,-0.27318710885853875,-3.4675167971550565,9.859680560798662,20.774025250175235
1760682475.5026133,-14.217751020357962,-0.21122391746884964,0.9075980758443478,-0.2763535817228535,-4.03528512322249,10.350143954019268,20.357651050756996
1760682475.5122008,-13.966415824197957,-0.2075025146731846,0.9087096728206013,-0.27781831131140855,-4.691493997031618,11.01477802418294,20.054387886336066
1760682475.5223541,-13.727883175340985,-0.20736143368747167,0.9077708230745298,-0.277193923695226,-5.43203291319958,11.787148129063846,19.815160093478642
1760682475.5320134,-13.507408795969631,-0.20978284251177914,0.904976624694818,-0.2745171731129694,-6.245805825320016,12.615943040941984,19.589032728461767
1760682475.5420792,-13.308218044634792,-0.213664382430659,0.9008011155793088,-0.27028164554889456,-7.1150010168559294,13.476676008611355,19.33425215126739
1760682475.5525432,-13.13135715885798,-0.218072495670402,0.8959803519487076,-0.26538482851298745,-8.016120137650102,14.37525275958629,19.02902098640644
1760682475.5619018,-12.975790253397001,-0.22240853273922087,0.8914570353228862,-0.26099763735104364,-8.921721260809983,15.342649866679636,18.679911654638435
1760682475.5721102,-12.838638725715102,-0.2264613501917793,0.8882948125661361,-0.2583777853570025,-9.802687310018973,16.422070544816474,18.32593717151147
1760682475.5821314,-12.71548332928398,-0.23036003821014847,0.8875773202833337,-0.25865546684131996,-10.63073116259188,17.651759440267327,18.036800409174933
1760682475.5921798,-12.6006974348611,-0.23446398930230503,0.8903079550043536,-0.26262186224833184,-11.380835971676754,19.04767680416475,17.904727851533405
1760682475.6022236,-12.487818131010485,-0.23922784522145507,0.8973209011119186,-0.2705495560937625,-12.033421455842952,20.590224834398246,18.030447248445455
1760682475.612257,-12.36997384966197,-0.24506784633238513,0.9092067353478532,-0.2820696014087161,-12.576184562389422,22.21825973840489,18.50505792574339
1760682475.622146,-12.240379601257176,-0.2522479041327384,0.9262523006209209,-0.2961234805993748,-13.00569818409983,23.832008170588107,19.390483749830853
1760682475.6324925,-12.092895179069881,-0.2608003359053259,0.9483958256883178,-0.311001334257424,-13.328883876457345,25.304621099941492,20.70165872980479
1760682475.6419766,-11.92262193071699,-0.27049136753972836,0.9752015018412288,-0.3244711438212303,-13.564382806709883,26.500311284706637,22.3934700579284
1760682475.6522305,-11.726491059201605,-0.2808327246207257,1.0058594106029841,-0.3339951426768176,-13.743671902326449,27.295644049939952,24.354825851778003
1760682475.6620393,-11.503777043204497,-0.29113172125942627,1.0392155773555636,-0.337017947206512,-13.911572504289522,27.599832406250396,26.41119803425976
1760682475.672255,-11.256462354169074,-0.300566511376932,1.0738336018181118,-0.3312978669416785,-14.125641642424041,27.369972192519544,28.335823870516723
1760682475.6824563,-10.989387975165021,-0.3082699504590921,1.1080851359279555,-0.3152430285620091,-14.453883176270603,26.61802635494771,29.868607372696268
1760682475.6923428,-10.710145451433627,-0.31340408261435365,1.1402631575607127,-0.28820952626648655,-14.970320549722336,25.40786306762638,30.740770234099816
1760682475.702502,-10.428694835354428,-0.31520982302089945,1.1687104064174207,-0.2507185668628458,-15.748261315548085,23.84251644261132,30.702559447340306
1760682475.7120523,-10.15672437401702,-0.3130255571660596,1.191954235395742,-0.20455217832487446,-16.851530674164263,22.043775641795865,29.550904593043978
1760682475.7223294,-9.906799302945728,-0.30628300233589645,1.2088364392216389,-0.1526937192402007,-18.324469228099932,20.127905826196734,27.153869692748273
1760682475.7320104,-9.691376654251465,-0.2945033524833112,1.2186224812084074,-0.09909306582340063,-20.181949235366304,18.182450718860046,23.46903065016535
1760682475.7423778,-9.521788108670078,-0.2773245170941841,1.221071544991998,-0.0482594209172656,-22.40092944472265,16.249363953467746,18.55344744265161
1760682475.7525425,-9.407309791300628,-0.25458580793348723,1.2164496472009525,-0.004717349433477984,-24.915042902891045,14.318937573103007,12.563627364120155
1760682475.7624025,-9.35444112444739,-0.22647769453493566,1.2054740050838046,0.02760171417569721,-27.613392790381322,12.33706290389719,5.744790152309575
1760682475.7722976,-9.366498598113662,-0.19373402434984643,1.18918825516353,0.04593301126118984,-30.344251073461198,10.225397051105483,-1.5901326788015508
1760682475.7820823,-9.443591700986106,-0.15781264577832746,1.1687840583998408,0.04911368737726171,-32.92389447788378,7.910469586333336,-9.09004714546119
1760682475.7922559,-9.582991294938553,-0.12099376163631656,1.145402000189947,0.03779825550028708,-35.15041954637348,5.354577364519181,-16.40079603537596
1760682475.8021307,-9.779837156944865,-0.08633453113828501,1.1199573241315548,0.0144104392126208,-36.82190258371888,2.579707935738086,-23.201798491224878
1760682475.8123972,-10.028076599984837,-0.057450211474583526,1.0930362879222653,-0.017170699498614383,-37.757531549251105,-0.32338297669518445,-29.239736168819114
1760682475.8222039,-10.321492426042207,-0.0381332386124731,1.0648931919136106,-0.05215131058478246,-37.81938121732921,-3.2054108060551583,-34.35496392147946
1760682475.8320408,-10.654670190729577,-0.031858367960577255,1.0355511121938257,-0.08551246000886258,-36.9316764685662,-5.887586427538844,-38.497104281168205
1760682475.8424115,-11.023767577775592,-0.041245774594387254,1.0049809194088837,-0.11274154992971444,-35.09413824196236,-8.203733620693027,-41.727490709467446
1760682475.851979,-11.426975331189084,-0.06756359467846484,0.9733115103902114,-0.13048491950853083,-32.386594201472676,-10.045890854628885,-44.20756506573935
1760682475.8633091,-11.864595808850279,-0.11035076736127808,0.9410138617934376,-0.13700923562996145,-28.963404331289006,-11.402071128450197,-46.173925196405506
1760682475.8733642,-12.338712201886377,-0.16723340378300283,0.9090048914782809,-0.1323883122276565,-25.038067192931422,-12.375771456644062,-47.902419983114214
1760682475.88259,-12.852479051582517,-0.23399145000888438,0.8786339120658105,-0.11837943908097562,-20.860163243618626,-13.180388439700483,-49.665391266006075
1760682475.8920293,-13.409127870120997,-0.30490237752694693,0.8515412941901934,-0.09801342897031388,-16.688127077759937,-14.10737350113635,-51.68764718375494
1760682475.9027429,-14.010838153196522,-0.37334430320228545,0.8294109713303144,-0.07498296428624773,-12.761962975399197,-15.473404954623383,-54.1077009190801
1760682475.9124446,-14.657658446570778,-0.43259082152317146,0.8136688010595884,-0.052956747358729656,-9.279844722180181,-17.557170900953324,-56.95084066553096
1760682475.9224167,-15.346664914208718,-0.4766885877400358,0.8051974515811996,-0.03495758014480431,-6.381617869853825,-20.538998047119254,-60.11940003775025
1760682475.9320364,-16.07151709737695,-0.5012874540520821,0.8041368673323572,-0.022917885341993786,-4.140745239652209,-24.455995389886645,-63.403139394646544
1760682475.9424293,-16.822518096586414,-0.5042930968470867,0.809817657427308,-0.01747694477437825,-2.5645868467492656,-29.18202882759092,-66.50929135521511
1760682475.952119,-17.587213415355386,-0.4862296581240087,0.8208416853011078,-0.01802690515482223,-1.6015762509495306,-34.436679004372095,-69.10823117833068
1760682475.962055,-18.35147464083769,-0.45023424977961707,0.8352908042497189,-0.022964436804853775,-1.1532117861313758,-39.82157288938703,-70.88763667165692
1760682475.9725046,-19.100924212770646,-0.40165807642744494,0.851019070000363,-0.030073086745395713,-1.088831596696957,-44.87728045135902,-71.60603068480893
1760682475.982285,-19.822485785543822,-0.34731616631864043,0.865969373495,-0.03695300216394275,-1.2615523653222234,-49.15023370299617,-71.13620699950336
1760682475.9920697,-20.5058101938814,-0.29449562798563,0.8784538871958939,-0.041425338758183654,-1.524109393336448,-52.25751296042059,-69.49046476324769
1760682476.0019171,-21.144340560506,-0.24988392439858279,0.8873497769534064,-0.04185734853911598,-1.7434316906615683,-53.93822170681462,-66.82272354445259
1760682476.0121472,-21.73584088011195,-0.21860114021673802,0.8921837289197556,-0.037373018250736224,-1.812719598983397,-54.08332805511794,-63.406908660247204
1760682476.0224264,-22.282308481398037,-0.20350774911395048,0.8931029111305879,-0.0279325485205062,-1.6598347811333483,-52.74040892926613,-59.59554400526419
1760682476.0323737,-22.789301351789458,-0.20491062526050463,0.8907497012088613,-0.014283018425443064,-1.2511474126343427,-50.09452346743054,-55.76621663171378
1760682476.0425158,-23.264811699279896,-0.22070998721185375,0.8860716190859917,0.0021996178097285256,-0.5905696414197211,-46.430462375520996,-52.265616180902995
1760682476.0519402,-23.717886010723646,-0.24693709702134095,0.8801070631881093,0.019743682330337426,0.2858485007561775,-42.08422952895422,-49.36078058858998
1760682476.062215,-24.15721800681264,-0.27855534297993073,0.873790438647835,0.03644962723752086,1.3188340802044474,-37.3925400846394,-47.20519642794668
1760682476.0721657,-24.58992491472103,-0.3103578071703213,0.8678137222392509,0.050552637874829144,2.436999007120489,-32.64842417692154,-45.82420268157169
1760682476.0821667,-25.020669147783778,-0.3377976006774439,0.8625637576024013,0.06064752649099625,3.5685958248040945,-28.06907119111298,-45.120563834090234
1760682476.0922697,-25.45122120496285,-0.35762362551571136,0.8581306147965955,0.0658546763193564,4.652320835807702,-23.779445941813723,-44.89782473354087
1760682476.1020856,-25.880489308327604,-0.36824715592318297,0.8543631092412054,0.06591540500246948,5.645697567628692,-19.81257975598719,-44.89662984401517
1760682476.1123962,-26.304976348276718,-0.36981710556039005,0.8509417139973036,0.061209918889133554,6.529906263985303,-16.12513954519167,-44.83781011963986
1760682476.1221533,-26.71956949499893,-0.3640232057836005,0.8474458322585098,0.05269349065826043,7.3104331816300006,-12.62494635430854,-44.465693560646145
1760682476.1322086,-27.11852499335361,-0.3536739505803473,0.843403785747788,0.04175251215147989,8.013540564976886,-9.205508490694244,-43.58560660961039
1760682476.1423385,-27.496484490140787,-0.3421158258437147,0.8383235031596293,0.02999471236400967,8.679223111545648,-5.7814576821213475,-42.09066119799588
1760682476.1520798,-27.84935620634463,-0.3325811532920139,0.8317093332708466,0.01900420077586744,9.3519108565433,-2.318341200771158,-39.97446423581347
1760682476.1619582,-28.174919746978226,-0.32757511716614657,0.8230774873123268,0.01010538297721149,10.070570440640557,1.1490821643739892,-37.32826466060213
1760682476.1722114,-28.473066324112025,-0.32842404302893524,0.8119878230708396,0.004182946554381105,10.859939101996606,4.513906913902296,-34.32321863834896
1760682476.1822188,-28.745656455190037,-0.3350862692106617,0.7981077425250962,0.0015936833834095292,11.724378482977396,7.61042260424523,-31.180677326740174
1760682476.192187,-28.996049133828098,-0.34626859468411814,0.7813110266080396,0.002182549082607923,12.645337534992018,10.241450079872662,-28.135255513102553
1760682476.2020714,-29.228415435883058,-0.35981466695003417,0.7617933269658067,0.005389798540399261,13.582791876866764,12.21463034631022,-25.39651771704978
1760682476.2132618,-29.446984205250402,-0.3732665690752083,0.7401667140737395,0.01041823622026772,14.480396392052791,13.380762422106889,-23.115230955636385
1760682476.2221386,-29.655369744028174,-0.3844671091893518,0.7174905886491004,0.01642275567179768,15.27352426579439,13.66663728630708,-21.35931639654034
1760682476.2320702,-29.85609978849855,-0.39207148547974163,0.6952125393485035,0.02268541709816946,15.898907025308572,13.095610901703806,-20.103066711134247
1760682476.2420673,-30.05040466080211,-0.39586549698514406,0.6750250497938615,0.028744466332421174,16.304267568415607,11.791412311638759,-19.231136488118555
1760682476.2521794,-30.23825982770351,-0.3968310830552717,0.6586755618872108,0.03445295018642038,16.456226212028668,9.96402140096176,-18.55654826038039
1760682476.2622163,-30.4186103381371,-0.396948410809338,0.6477810680376132,0.03995229179944266,16.34499481554465,7.880154409751198,-17.849799123047134
1760682476.2719803,-30.589664447853487,-0.3987726183679019,0.6436883330151171,0.04556127654371619,15.98505489930507,5.824114825443286,-16.87443748416716
1760682476.281993,-30.74914169046852,-0.4048698938053001,0.6473952471867407,0.05160280429850948,15.41202413142028,4.056736615507593,-15.423526432561362
1760682476.2920122,-30.89440245386211,-0.41723287703205314,0.6595223783232206,0.05821310929093643,14.676877328070244,2.7803328883719156,-13.351419636051842
1760682476.3021755,-31.022455855500354,-0.4368049100764089,0.6803083400474617,0.06518874902880573,13.839189283876253,2.115868932569371,-10.596212588886157
1760682476.3120682,-31.12990834294256,-0.4632166853610179,0.7096025102950559,0.0719177812417159,12.960928887885574,2.0954968789447923,-7.189826559088244
1760682476.3220448,-31.212946097551182,-0.49478292951989467,0.7468406943460866,0.07741638346670211,12.101701481896043,2.670049254561712,-3.2545704237157675
1760682476.332123,-31.267428168483416,-0.5287420079493909,0.7910057604883244,0.08046206950765333,11.315559297534852,3.7280637990011387,1.0131039203679886
1760682476.34201,-31.289116494586164,-0.5616710872273762,0.840588999901109,0.07979136476029665,10.648935364015587,5.121098311843406,5.369293769268563
1760682476.352119,-31.274010073844728,-0.589985183935967,0.8935761432656341,0.07431925519826633,10.139092740483527,6.689757898719663,9.55613188834832
1760682476.3622713,-31.21870934638011,-0.6104286544248912,0.9474852522849931,0.0633389311045577,9.812671203317159,8.285814148855058,13.337526167257009
1760682476.3723173,-31.12072654131261,-0.6204855077415293,0.9994826924369387,0.046667874038878815,9.684265426977518,9.787571584208074,16.532194679055678
1760682476.3820872,-30.97867565085745,-0.6186619814197254,1.04659522352429,0.02471466120332753,9.75529935096404,11.107707681412885,19.039190206139228
1760682476.3922355,-30.792311328871413,-0.6046234860788572,1.086014726217505,-0.0015497926764131249,10.013656358341384,12.19469232343669,20.851912009413347
1760682476.4020875,-30.562430080724077,-0.5791941112220661,1.1154545648764762,-0.030716132667543916,10.43449780750454,13.030067656952427,22.058066664582487
