timestamp,angle,linear_acceleration_x,linear_acceleration_y,linear_acceleration_z,angular_velocity_x,angular_velocity_y,angular_velocity_z
1760682440.620505,-5.197069564924675,-0.09654213988573129,0.9582625408525624,-0.2711962414065943,0.32844802784030946,-13.951927099256784,6.413084321172566
1760682440.6301594,-5.160899530440589,-0.09852228395482895,0.9619748982570725,-0.28090504854130555,-0.003963023746539499,-13.651616293993992,6.2729150488470635
1760682440.6403394,-5.133127574540744,-0.10090420116420232,0.9654599878923497,-0.2908833343267077,-0.3435810457001313,-13.058613946913443,6.09941633706063
1760682440.6503303,-5.114606477501216,-0.10360216515431235,0.9683553591561757,-0.300579237833734,-0.6820775918721735,-12.219387439127717,5.905214139410972
1760682440.6600728,-5.105648908029218,-0.10647187972657413,0.9703343459066051,-0.30939860668814234,-1.0124596825994392,-11.202826138109609,5.709541103014619
1760682440.6703417,-5.105783005923586,-0.10928814089462306,0.9711523669715318,-0.31674720324850647,-1.3296544231863294,-10.095462094328584,5.537185631325729
1760682440.6803918,-5.113518159207696,-0.11173539487437234,0.9706799492284741,-0.3220771354652125,-1.6307825121756954,-8.993708396846246,5.416133400483522
1760682440.6903179,-5.126183952291708,-0.11341853352478137,0.9689186280952801,-0.3249349913526866,-1.9151323989351043,-7.993682144853555,5.374115456151218
1760682440.7003734,-5.139906367305071,-0.11389792634347363,0.965999543027441,-0.32500888713162485,-2.183898275698933,-7.1797031216969645,5.4345397541036675
1760682440.7101982,-5.149771309225753,-0.11274759964195183,0.9621670147394734,-0.32217005262774445,-2.4397826488381313,-6.612952157501089,5.612472133909516
1760682440.720115,-5.150195936166492,-0.10962919599344627,0.9577505723436831,-0.31650224460803256,-2.6865804797283044,-6.321930240244068,5.911393306906966
1760682440.7301884,-5.135487211501669,-0.10436860535988135,0.9531292091562561,-0.3083111849300353,-2.9288462981045034,-6.296237995261425,6.321364013659028
1760682440.7402487,-5.100524344788774,-0.09701944244496782,0.9486916968134835,-0.29810832979875207,-3.171695521935072,-6.484812916226284,6.81899339619398
1760682440.750235,-5.041470143578687,-0.08789948218250036,0.9447968788879865,-0.28656857497827487,-3.420721098297651,-6.799185265501227,7.369279115834618
1760682440.7603474,-4.956405890892233,-0.07759222023284808,0.9417378021650007,-0.27446751483476284,-3.68194410654538,-7.121644159704912,7.929051074140844
1760682440.7704298,-4.845796905841871,-0.06691313400630113,0.9397131329039526,-0.26260770749645057,-3.9616890270769476,-7.317552285091089,8.451483419346546
1760682440.7803469,-4.712723805547632,-0.05684576631230613,0.9388086696849253,-0.25174413376816135,-4.266294020269587,-7.25049858838814,8.891001839596193
1760682440.7901378,-4.562846864490632,-0.04845527712479754,0.9389909556715054,-0.24251774676658175,-4.601625369792161,-6.798585297039276,9.207926670602669
1760682440.800202,-4.404100883020229,-0.0427877938808435,0.9401137864361395,-0.2354039951167141,-4.972437289211764,-5.8699344740113055,9.372328909752854
1760682440.810132,-4.246143944188287,-0.04076427254796263,0.9419367462495487,-0.23068085105544778,-5.381676056796485,-4.415490782849668,9.366774572588431
1760682440.820201,-4.099605753163872,-0.0430781195568811,0.9441531949631969,-0.22841804945067923,-5.829855672986706,-2.437414431037788,9.18783128935729
1760682440.8302207,-3.975199800992261,-0.05010615632284902,0.9464239258674227,-0.22848628932901738,-6.314628479352821,0.008190318215986503,8.846365979195964
1760682440.840133,-3.882777601079636,-0.06184232201810625,0.948412331666015,-0.23058302480348483,-6.830642413503726,2.8148071969638764,8.366752958210734
1760682440.8507016,-3.8304121675602976,-0.07786285120292992,0.9498174088056935,-0.23427068498787176,-7.369725535007113,5.8351034496434755,7.785141600808973
1760682440.8605914,-3.8236012529268177,-0.0973304251353688,0.9504022111860456,-0.23902308942948627,-7.921384730115804,8.895578643405683,7.1469257187832165
1760682440.8701532,-3.864676955872464,-0.11904224958398817,0.9500171010292795,-0.24427568957975648,-8.473569114105244,11.81455109045943,6.50354628648862
1760682440.8802683,-3.9524938155967546,-0.14152214917129644,0.9486186748799824,-0.2494753757986231,-9.013639304617522,14.42127357177883,5.908772988759593
1760682440.8904018,-4.082439529091981,-0.16314949372941684,0.9462857608444109,-0.2541266724861798,-9.529494567993495,16.5737760297808,5.4146595473801815
1760682440.900277,-4.246772540385128,-0.18231002423521067,0.9432327977393263,-0.2578325743634009,-10.010824183166253,18.173199069747383,5.067446134387023
1760682440.9104025,-4.435246790431214,-0.19754859056082139,0.9398182173118677,-0.2603282510442495,-10.450448362717673,19.17289806520419,4.9037660891605555
1760682440.920157,-4.635946496013138,-0.20770336146666998,0.9365421706647397,-0.2615038396480886,-10.845680819696847,19.581366113998744,4.947558217723531
1760682440.9304044,-4.836231343587779,-0.2120050984964207,0.9340262167476574,-0.26141047618206953,-11.19957084120532,19.458907201955363,5.208031445002192
1760682440.9404206,-5.023689250644983,-0.21013282178163803,0.9329696522159422,-0.26024404525523215,-11.521778406093283,18.90884326914814,5.67884342609966
1760682440.9505315,-5.187009679374975,-0.2022270182278028,0.9340831748699646,-0.25830450297262536,-11.82874327553024,18.0647110894861,6.338375419560707
1760682440.96047,-5.316719703898952,-0.1888696948388698,0.9380077247772093,-0.2559335649323367,-12.14279647878834,17.07526696372433,7.150721461640931
1760682440.9701197,-5.4057575627973256,-0.17104310449905163,0.9452310848064396,-0.2534378300437897,-12.489995889199038,16.089112027522187,8.066893499051213
1760682440.9802651,-5.449883941045658,-0.15007525572418534,0.9560158268268539,-0.25100689279114047,-12.8967699497461,15.240446514060839,9.02585407458406
1760682440.9901474,-5.44794252384604,-0.12757303487148966,0.97035023972033,-0.24863755851163827,-13.385889695358212,14.637056395909402,9.955310730561997
1760682441.000405,-5.401975830212244,-0.10533645526770001,0.9879297950016716,-0.24607776849564533,-13.972766870954075,14.351360494403744,10.7726549148952
1760682441.0101304,-5.3171842110315595,-0.08524372470058265,1.0081711923215444,-0.24280679547027217,-14.663387651693187,14.415228886438125,11.386816107254202
1760682441.020441,-5.201698130646134,-0.06909948357978879,1.0302556886176906,-0.23806659577872247,-15.454982569612813,14.819012051080733,11.701813290513005
1760682441.030368,-5.066132728152414,-0.0584482680619116,1.0531950160007377,-0.23094822416378488,-16.339611359360223,15.514506181771667,11.622225464087604
1760682441.0402122,-4.922916727746067,-0.054369198930194665,1.0759119778742,-0.2205212662790224,-17.309610512144523,16.420725734711862,11.059962079572987
1760682441.050433,-4.785427894488146,-0.05728168030452687,1.097327595723064,-0.2059839713388002,-18.363073726423398,17.431048719097028,9.94119540808855
1760682441.0601327,-4.667009572451093,-0.06680150745985435,1.1164463180322282,-0.18681155834763938,-19.50756122319111,18.420780603422994,8.212410442875315
1760682441.0702798,-4.579974550078928,-0.08168877336280138,1.1324301653511135,-0.16288489299239287,-20.76079765388921,19.255006850477024,5.845013247375399
1760682441.0802667,-4.534715337140193,-0.09992010389760722,1.1446527043571126,-0.13458525982470174,-22.14783493501443,19.797202960400448,2.8384439351456208
1760682441.0903037,-4.539029405542267,-0.1188967586922195,1.1527257063569227,-0.10284172371020443,-23.69485449194521,19.919166934582133,-0.7779553096338924
1760682441.1002922,-4.59773489318204,-0.13577098817862301,1.1564957040907005,-0.06911730456888625,-25.420419161127544,19.512440395215346,-4.944025108851731
1760682441.1103628,-4.712605148631333,-0.14784521943804088,1.1560133883035717,-0.03532183966238496,-27.325512806784303,18.500669924704503,-9.56874065250549
1760682441.1202974,-4.8826029769224375,-0.15298161362034784,1.1514838495939477,-0.00364602997672803,-29.384064839338997,16.851579941006836,-14.531329470982495
1760682441.130193,-5.104359675338123,-0.14995715003421436,1.1432083211756705,0.023675693956153227,-31.53578971261683,14.586617543691373,-19.684262883670744
1760682441.140143,-5.37282511865796,-0.13870965109145234,1.1315281300244848,0.04464800327420393,-33.6830381319922,11.786065493701154,-24.859035346418494
1760682441.1504638,-5.6820109468658595,-0.12043768997612293,1.1167800835122847,0.05780102508954134,-35.69295070393517,8.587611804562252,-29.875466551855574
1760682441.1603808,-6.02575262742301,-0.09753610329925767,1.099270183414692,0.0624300826903687,-37.405554543580294,5.177050379366929,-34.554656297000065
1760682441.170621,-6.398421113970082,-0.07336580075288897,1.0792693603627521,0.05874357438677391,-38.64759809529616,1.7709337084177594,-38.73480561409028
1760682441.1802404,-6.7955180164702185,-0.051873238359904685,1.057031185517297,0.04788891009672956,-39.25095627159309,-1.4075122434482967,-42.288118975190066
1760682441.190158,-7.214091693566982,-0.03709408283069383,1.0328280887217207,0.031845430623332845,-39.07349780600086,-4.156325354386539,-45.136232181418535
1760682441.2022483,-7.6529205199942805,-0.03259630826490717,1.0069999835365389,0.013191973334178476,-38.01959129371589,-6.322442556333553,-47.261360355818105
1760682441.210381,-8.112428275035832,-0.040934961628251935,0.980006439988623,-0.005224490151535382,-36.05712137802671,-7.824323935398988,-48.71074689276087
1760682441.2203467,-8.594327408026732,-0.06319898207170553,0.9524693385672044,-0.02067378976052761,-33.22808249578389,-8.665280695205997,-49.59292074754436
1760682441.230387,-9.101027867561903,-0.09872824226036774,0.9251892234531844,-0.03092118451337581,-29.6505013451777,-8.934627016807651,-50.065528319694565
1760682441.2403631,-9.634895634775415,-0.1450662301713028,0.8991204325914931,-0.03453650365198102,-25.510540145741764,-8.795842781046217,-50.31586853170455
1760682441.2506027,-10.197484093976966,-0.19818775347051457,0.8752994742969779,-0.031081055354039887,-21.045063805090276,-8.463140655989056,-50.53651490612678
1760682441.2603965,-10.788880067906737,-0.2529980153944401,0.854734022321019,-0.021140187942203136,-16.516577476248923,-8.169741591226774,-50.89937507288555
1760682441.2704775,-11.407294603267635,-0.3040419661908406,0.8382711512016711,-0.006195154445154932,-12.183973340173306,-8.13258502497055,-51.532029057925975
1760682441.2818804,-12.048981379111588,-0.3463054781665916,0.8264702599592424,0.011644713299127961,-8.273545209577769,-8.519037063209806,-52.50001104221802
1760682441.2905333,-12.708489815454202,-0.3759558758344153,0.8195068416299728,0.030002967528202407,-4.954859739464534,-9.421213539249981,-53.797791457455205
1760682441.3019297,-13.379180062458358,-0.3908776518169554,0.817127444143894,0.04662448532488727,-2.3251801989286083,-10.842548753703344,-55.34977792636536
1760682441.3104124,-14.05387536846103,-0.39091022426770017,0.8186663724183878,0.05971848900447609,-0.40441350281529126,-12.699141231439086,-57.02107773008617
1760682441.3220356,-14.725521614059659,-0.37776780823998773,0.823124356405865,0.06819273675024302,0.8595365150709887,-14.835517281053885,-58.63640041255325
1760682441.330519,-15.38775547536876,-0.35468844905826835,0.829299873620258,0.07174250038435223,1.5769975485451684,-17.051488846318552,-60.004475465662715
1760682441.3409348,-16.035327872113832,-0.3259006567025229,0.8359548249985707,0.07079519941352198,1.8975134946516627,-19.13461110370467,-60.94470696937984
1760682441.3503354,-16.664367596761885,-0.296008442206873,0.8419881841409178,0.06634507297563172,1.9890497187172416,-20.89201626222405,-61.31246045407165
1760682441.3601873,-17.272492341097397,-0.26938632186469874,0.8465860841734809,0.05972956629433852,2.0183659165263683,-22.17623269384791,-61.019433001831196
1760682441.370312,-17.858781224580216,-0.24965555711346252,0.8493180560823301,0.05239689027630379,2.1345276921539362,-22.90152754494504,-60.04610795330676
1760682441.3810806,-18.42362068329108,-0.23929060073914463,0.8501595788721297,0.04569918518802501,2.4565345975544965,-23.049575522317657,-58.44440031065838
1760682441.3904364,-18.968433350927185,-0.23938595545226157,0.8494395325872452,0.040729022515125717,3.0653347012942223,-22.66521661361337,-56.33014875753123
1760682441.4003716,-19.495305511256397,-0.24959941081544662,0.847731338541655,0.03820682378625304,4.000114988608272,-21.844410188035837,-53.86678931437284
1760682441.4102437,-20.00654534232175,-0.2682745681952881,0.8457199921276353,0.038423833605292924,5.2585588736897995,-20.717178447836147,-51.24293804096457
1760682441.4202912,-20.504226018986696,-0.29272904590437165,0.8440778733540166,0.04124389374994742,6.800600557795976,-19.42843851722454,-48.64740538571234
1760682441.4305437,-20.989784559853213,-0.31967389725159956,0.843370972373653,0.04616175155137551,8.555043481950797,-18.119281124433833,-46.24529719713516
1760682441.4402378,-21.463750541962277,-0.3457091417509308,0.84400137825856,0.05240608893499184,10.428286458846024,-16.910645686237455,-44.15846133543135
1760682441.4503722,-21.92566496229002,-0.3678262061882699,0.8461801197358241,0.05906724864153232,12.31434444638872,-15.890683657692433,-42.45278905940252
1760682441.460222,-22.37421961188626,-0.3838446240200865,0.8499207966535237,0.06522767087436662,14.105341013526699,-15.106579788669473,-41.133885225841276
1760682441.4705434,-22.8076058743917,-0.3927185361182448,0.8550474217534648,0.07007742842088428,15.70164619346307,-14.56128762317456,-40.15144473273736
1760682441.4802415,-23.224015975141498,-0.394666144807441,0.8612151465950459,0.07300435437215615,17.020822122911976,-14.215465485189847,-39.41141615664735
1760682441.490631,-23.62219761104981,-0.3910980755287235,0.8679457372455199,0.07365460347995488,18.004554317179224,-13.994709669983466,-38.79386290836676
1760682441.5004578,-24.00193383984515,-0.3843462346239968,0.8746784956262749,0.071963498740483,18.622852081411718,-13.801793284122857,-38.17353751730318
1760682441.5101776,-24.364314934928096,-0.37722430139180035,0.8808326679531261,0.06815792626906625,18.875040940520286,-13.532925235945559,-37.43974885493626
1760682441.5205727,-24.71169682167653,-0.3724845385903059,0.8858724988131143,0.06273095538652813,18.78744433252941,-13.09608727941839,-36.51226990954594
1760682441.5305872,-25.047302842272284,-0.37226686675059795,0.8893640167365544,0.05638839240316408,18.408126206519665,-12.428527769343388,-35.35082705676583
1760682441.540417,-25.37451132450145,-0.3776526526979957,0.891014139167915,0.049967605525776275,17.79955968543504,-11.50990139296716,-33.95696496994977
1760682441.5501995,-25.69596044325337,-0.38842545244709753,0.8906864483956418,0.044332348647386347,17.030466305448513,-10.367780168196308,-32.3685023401196
1760682441.5604043,-26.012669752857658,-0.40310094328173157,0.8883922594104909,0.04025338720832842,16.1681952870167,-9.073537900173077,-30.64809171630827
1760682441.5703144,-26.323402172151678,-0.4192273501354717,0.8842594813960998,0.03829202539019857,15.272811914335373,-7.728741176557542,-28.86834821699668
1760682441.582261,-26.624457159050067,-0.433893082195794,0.878485459270322,0.038708898570289536,14.393583874902097,-6.444593311239904,-27.09646649712808
1760682441.5906096,-26.909996227499665,-0.44432889632151895,0.8712837843866241,0.04141977293030142,13.567941108614853,-5.318915001458049,-25.381136676030913
1760682441.600428,-27.172875323382108,-0.4484714687892823,0.8628380653977238,0.04601227619573256,12.822422552219486,-4.415933215405408,-23.74392782360831
1760682441.6103878,-27.40582922765205,-0.4453686076873791,0.8532760778896672,0.051824963273216354,12.17476545785741,-3.7534747878367196,-22.17627642999443
1760682441.6203809,-27.602758144760834,-0.43534831411047453,0.8426748614236839,0.05807673838552198,11.636212983716277,-3.3002380883812656,-20.642062414667336
1760682441.6304955,-27.759832729298626,-0.41993153272591816,0.8311019904673527,0.06402312745311307,11.213283268797355,-2.9832904404328535,-19.084781808717246
1760682441.640327,-27.876171234443785,-0.40152642065621336,0.8186913305647364,0.0691077163182975,10.90855447561091,-2.7035706723067525,-17.437734641349582
1760682441.650461,-27.953942914014736,-0.3829867064737224,0.8057435738597369,0.07307336099060187,10.7203714117513,-2.355553122497539,-15.635464719894888
1760682441.6604452,-27.99788878158018,-0.3671378448805218,0.7928333026541876,0.07600037679192019,10.641708855152233,-1.8466496364931348,-13.624805003736485
1760682441.6703243,-28.014387278334215,-0.35636839087653666,0.780896601198707,0.07825082790911807,10.658698011856561,-1.1123986069130198,-11.374141040059197
1760682441.6805437,-28.01029285015812,-0.3523550329653107,0.7712688816110578,0.08032076909109935,10.749494838778409,-0.12479047947727688,-8.879789810212236
1760682441.6902678,-27.99181388783621,-0.35594744906816733,0.7656446405840072,0.08263145458334258,10.88419478108643,1.1071625830961611,-6.168676361356762
1760682441.700267,-27.963661643150953,-0.3671944022072321,0.7659409423270543,0.08531523935632916,11.026342732377161,2.5437209637199256,-3.2968092662690935
1760682441.7102365,-27.92860358624171,-0.38545817095933527,0.7740637536098415,0.08806022291553273,11.136253702082012,4.1253022370680945,-0.34343006941882526
1760682441.7203176,-27.887425812716984,-0.40955262884924026,0.7915980335459564,0.09006446246262276,11.175912147274957,5.785030416596397,2.5988629907546246
1760682441.7301688,-27.839195047988504,-0.43785546375123263,0.8194646838111495,0.09012108245666192,11.114772260469254,7.460196323317749,5.437225294280269
1760682441.740462,-27.78165241958019,-0.4683805502734546,0.8576057971089022,0.08682140376926191,10.93546302017015,9.100689607646403,8.09352713128875
1760682441.7505963,-27.711585107784547,-0.4988357736495332,0.9047693294938426,0.07883431672156918,10.638289544281069,10.673554918901166,10.519125318055107
1760682441.7604182,-27.625090149293296,-0.5267131994727521,0.9584592866345732,0.06520153740966952,10.243522646963257,12.163811404092469,12.706855532662036
1760682441.7703483,-27.517725510396644,-0.5494481259332417,1.015093032190333,0.045582834738662655,9.790737260712115,13.572292166019846,14.69749608376963
1760682441.78084,-27.384599672599286,-0.564647063862188,1.0703654398286904,0.020395561189493403,9.334852520272202,14.911441423244066,16.578441525862747
1760682441.7905076,-27.220470455776507,-0.5703478263430857,1.1197701031592011,-0.009181610293798284,8.939023114290661,16.199869995173025,18.473545153154777
1760682441.8005483,-27.019918117648285,-0.5652642449377834,1.159184203239394,-0.041339091174360666,8.665114136790491,17.456238683514787,20.524828589993206
1760682441.8109462,-26.777642070947763,-0.5489859648202844,1.1854008604050366,-0.07387638604320053,8.563099635699325,18.692959642601064,22.868511281000426
1760682441.8202374,-26.48890861551342,-0.5221247312724431,1.1965044225058017,-0.10451945729316374,8.661250770909065,19.91042527216473,25.60906546241095
1760682441.8303564,-26.15014345697007,-0.48639535740853335,1.1920313443572292,-0.13127894144788374,8.959268718995856,21.092860781044283,28.795557288050134
1760682441.8405285,-25.759614191367934,-0.4445915322536989,1.172921166332822,-0.1527970542821835,9.426350816201058,22.207018756940702,32.404505967070236
1760682441.8502665,-25.31809271116129,-0.4003929317457664,1.1413063690743963,-0.168608986055945,10.005348298191013,23.204416554216003,36.332945789081776
1760682441.8604598,-24.82934837282866,-0.35796073986676274,1.100200551305435,-0.17923968600924886,10.622721215943026,24.02678159014838,40.4041120147222
1760682441.8701575,-24.300326456089802,-0.3213583825930999,1.0531352140023391,-0.18608763991139407,11.20236256484247,24.613412838522716,44.38599208385988
1760682441.8801358,-23.740921364437774,-0.29392952673230843,1.0037897327734704,-0.19110881447101424,11.680189800136276,24.90883042823888,48.02018131791541
1760682441.890298,-23.163339038256154,-0.2778011308858899,0.9556599266878658,-0.19637873529901667,12.016126679427432,24.869378148780072,51.05597396843047
1760682441.900386,-22.58112394429964,-0.2736276520357922,0.9118023851364578,-0.2036463986745778,12.200757991485538,24.46794649132654,53.28344677142773
1760682441.9104762,-22.007980451014177,-0.2805997320040283,0.8746677048724012,-0.213987284792101,12.255270760866114,23.69637438874637,54.55988931157337
1760682441.9204986,-21.456542200142014,-0.2966683050142573,0.8460092295691769,-0.2276252410520987,12.224914546037642,22.56540071663713,54.82587599586255
1760682441.9303007,-20.937240634430136,-0.31890492799435,0.8268416627193231,-0.24394392141423812,12.167706415958362,21.102400546811705,54.10967342177142
1760682441.9404845,-20.45740103392971,-0.34391960539048816,0.8174305059812166,-0.26166312267924335,12.141096445447948,19.347501070574555,52.52077485844513
1760682441.9503984,-20.020657557414097,-0.36827145329095684,0.8173104173061179,-0.279123804619558,12.189572461606767,17.348881566411013,50.23478209173054
1760682441.96046,-19.626733934416666,-0.38882451269727814,0.8253454149125833,-0.29461243772642637,12.335718535198454,15.158082343434158,47.47257739362965
1760682441.9706028,-19.271589577964363,-0.4030172203238735,0.8398464294487503,-0.306658808797403,12.5762419848902,12.826042877775043,44.47687393007966
1760682441.9801807,-18.9478901537579,-0.40903139645333,0.8587498619202538,-0.31425618415590706,12.883249492463337,10.40041005574771,41.48895950031963
1760682441.9906185,-18.645735843401035,-0.4058655652369156,0.87984104068344,-0.316974266421179,13.20991073153502,7.9244225459164035,38.727897643093954
1760682442.0002878,-18.353571421730578,-0.39333122089603845,0.9009895998810006,-0.3149604015721882,13.498861483662202,5.437421841049936,36.37377101735551
1760682442.0102227,-18.05920150875693,-0.3719925880769468,0.9203582987517642,-0.30884797614480664,13.691401108371027,2.976800807442271,34.555893334868344
1760682442.020232,-17.750832379354836,-0.34306402690860954,0.9365544770460577,-0.29960633179292406,13.735717678182468,0.5809755484370381,33.34637246321726
1760682442.0303948,-17.418057767917546,-0.30827415587625845,0.9487090692363774,-0.2883703117743785,13.592896427890883,-1.7072514769317204,32.75899569653099
1760682442.040421,-17.052707207752896,-0.26970629852798406,0.9564837360795454,-0.2762816354766019,13.240144586303689,-3.837744248199338,32.75308767879426
1760682442.050517,-16.64948705035975,-0.2296274788911282,0.9600169959845698,-0.26436343149686237,12.671315833940097,-5.751374186625846,33.24169880570439
1760682442.060371,-16.206364948697743,-0.19031834484611942,0.9598254617024501,-0.25343775871434093,11.895299443029938,-7.380423110823979,34.10317732477485
1760682442.0702946,-15.72467424573637,-0.15391465392599535,0.9566789602701078,-0.24408628252975434,10.933071646836018,-8.651543487813726,35.19487635419224
1760682442.080458,-15.208944025126613,-0.1222707893486388,0.9514692562035076,-0.2366474047243912,9.814192989505846,-9.491336285257972,36.36751752107043
1760682442.0904233,-14.666490912514108,-0.09685588650354209,0.9450900310002248,-0.23123961883731697,8.57336001732605,-9.83408168817357,37.47867770897584
1760682442.1004539,-14.106831315020225,-0.07868813482838842,0.9383400817037073,-0.22780093595864817,7.2473964918875735,-9.630650388076248,38.404059299214865
1760682442.110215,-13.540979465338989,-0.06830340049288576,0.9318546267981181,-0.22613669976071665,5.872875499110149,-8.857252333071706,39.04562817639951
1760682442.1201472,-12.980689560945152,-0.06574908538949654,0.9260649003440883,-0.22597044437291536,4.484414524087801,-7.522541091579854,39.336244147532476
1760682442.1301966,-12.437689751800423,-0.07059819031456117,0.92118539780547,-0.2269930441446667,3.1135654572098734,-5.671733715566433,39.2409252148316
1760682442.1402433,-11.922949278110025,-0.08198650304251533,0.9172289264977419,-0.22890509827107478,1.788133169939824,-3.3868142753316324,38.75527617755521
1760682442.1503816,-11.446017059047776,-0.0986785071399576,0.9140483830179866,-0.23144805792465492,0.5317260988219609,-0.7824899623612226,37.90182674917138
1760682442.1603458,-11.01446591714252,-0.11916208838098062,0.9113994776727377,-0.23442133352686378,-0.6366170967496608,2.0017550417986385,36.72507003675486
1760682442.1701877,-10.63346919092766,-0.1417633797596565,0.9090124299701947,-0.2376843393431842,-1.7027954141256187,4.812555515720091,35.28590757822542
1760682442.180246,-10.305527382450563,-0.16476775246076558,0.9066568002843515,-0.24114357571051329,-2.657992479429594,7.495159669107711,33.65604579412638
1760682442.190514,-10.030354767824416,-0.18653369884283985,0.9041850713964146,-0.24472646796118414,-3.4989260642924256,9.906058610468412,31.912703850548723
1760682442.2004104,-9.804931148974015,-0.20559134226855288,0.9015476468167528,-0.248347039936415,-4.227892983725381,11.924451815674393,30.133826124882827
1760682442.210249,-9.62372055343834,-0.22072270430740293,0.898782006626615,-0.2518730679625118,-4.85250681916919,13.461602020025111,28.393876020807138
1760682442.2203228,-9.47905295907784,-0.2310237472514041,0.8959875565467329,-0.2551076327367996,-5.3850670766513575,14.467532303351748,26.760244157472158
1760682442.230331,-9.361654484606547,-0.23594826521408707,0.8933013643126275,-0.2577972285961009,-5.841562945116413,14.934832956223207,25.29032363838231
1760682442.2404687,-9.261296605817515,-0.23533243445593147,0.890887246528827,-0.25967256893246826,-6.240383032802345,14.899518068070906,24.029343952515077
1760682442.25036,-9.167518495306979,-0.22939770125973555,0.8889434537323774,-0.26051791097314403,-6.60085928948794,14.438919086589319,23.009071570617845
1760682442.2602575,-9.07036140108621,-0.2187292493633078,0.8877259321586031,-0.2602532450390978,-6.941810362505827,13.666584815406269,22.247463840302746
1760682442.2703037,-8.961043756605306,-0.20422807489658226,0.8875776712152103,-0.2590053523357476,-7.280264741349887,12.72416294816601,21.749294659346543
1760682442.2802706,-8.832506544867364,-0.18703792891148918,0.8889515910997989,-0.25714206873552825,-7.6305365987380736,11.770370068350926,21.50763975123099
1760682442.2901926,-8.679776241906826,-0.16845429626568126,0.892415448092546,-0.2552502190104917,-8.00379132982205,10.96748511738971,21.505916268963134
1760682442.3002663,-8.500125451449387,-0.14982766728114563,0.8986317791456859,-0.2540498013497058,-8.408169490886817,10.466298052630604,21.719966436271644
1760682442.310556,-8.29304518879454,-0.1324718935003332,0.9083117944494183,-0.25425136829007855,-8.8494519649914,10.39096339023995,22.119554728593137
1760682442.320159,-8.060061693974003,-0.11757973609797837,0.9221467139954698,-0.25637673568769315,-9.332174701716168,10.825551920795244,22.668697858937847
1760682442.3301945,-7.804433713277727,-0.10614042241025963,0.9407223767450177,-0.2605733245709869,-9.86105400617163,11.804129201456941,23.32448456834381
1760682442.3403063,-7.530768525275845,-0.09885717135161981,0.9644241142755363,-0.2664585573655898,-10.44255443698949,13.305881645131649,24.03442415382433
1760682442.3506,-7.244606962699994,-0.09607322584933452,0.9933403137883482,-0.2730317737285194,-11.08640401270068,15.25619412453728,24.73282049632296
1760682442.3601544,-6.952039968676815,-0.09772112928066475,1.0271753809589899,-0.2786862576328491,-11.806825944528393,17.53374569062353,25.337118221148963
1760682442.3704407,-6.659414177764344,-0.10330608198878043,1.0651854459738725,-0.28134230294957974,-12.623215097453249,19.982775349497388,25.745503304065558
1760682442.380392,-6.373156156200592,-0.11192579678352886,1.1061514959343308,-0.27870324625613135,-13.55995865637405,22.428852254272595,25.837149146572756
1760682442.390574,-6.09970604920864,-0.12232472442493587,1.1484027782197828,-0.2686117221519925,-14.645113246150489,24.695941349063514,25.476294569119744
1760682442.4004917,-5.845519042249308,-0.13298185816737307,1.1898979999987847,-0.24945794308790378,-15.907729958126428,26.622423942210798,24.520801478401573
1760682442.4106884,-5.61707770430267,-0.14223341137868975,1.2283647548250407,-0.22057189467586494,-17.373770854183494,28.074049789175966,22.835043617950962
1760682442.4202394,-5.420860332858697,-0.14842881787078335,1.261489991555484,-0.18252200095831211,-19.06077280519696,28.95249252205853,20.306080030668735
1760682442.430512,-5.26322552710594,-0.15011100451933815,1.2871448579496652,-0.1372470998955416,-20.97166219874186,29.199125848741577,16.86123432099575
1760682442.4403028,-5.150197263178938,-0.1462051293135701,1.3036147700855376,-0.08796836080603163,-23.08838138516852,28.794659770215016,12.48456060306891
1760682442.4507368,-5.0871641477822,-0.13619788005710642,1.309794216920383,-0.038863293851515594,-25.366233665683165,27.756128136359997,7.229330043946587
1760682442.460496,-5.078536272949716,-0.1202905008416788,1.3053041922071544,0.005468686362474989,-27.730050620515307,26.133106661469267,1.2237264255483864
1760682442.4702866,-5.127426048514744,-0.09950844270010668,1.2905038277160288,0.040670593796514096,-30.073357511878587,24.004710665896617,-5.332495515686658
1760682442.480231,-5.235427849142054,-0.07574590559668187,1.2663937428207446,0.06330705311951053,-32.261574334892266,21.477805975194695,-12.181505628937595
1760682442.490512,-5.40256007076302,-0.05171649291101526,1.234437095549111,0.07143184552583932,-34.13989764641369,18.68525349516874,-19.030558259021106
1760682442.5004492,-5.627402660805159,-0.030779427375186248,1.196344786486943,0.06493443015143323,-35.54586173764451,15.781582639291603,-25.582521281042236
1760682442.510234,-5.907420293189231,-0.016622977760687378,1.153876677667925,0.045595156418701085,-36.325711971082896,12.933058390277079,-31.56985930846403
1760682442.5206134,-6.239417095961833,-0.012815103563349235,1.108699460970994,0.016830178682091513,-36.35275704606443,10.300150473922972,-36.78706828071234
1760682442.5302696,-6.620034600903668,-0.022268857028968688,1.0623186974690353,-0.016836858132381966,-35.545054336747214,8.012828915757984,-41.1162565795748
1760682442.5404148,-7.046189317016818,-0.046704197856438555,1.0160773427348142,-0.05048585322694365,-33.87942382899617,6.142280346128564,-44.54120195754707
1760682442.5502,-7.515354255540872,-0.08620595700449121,0.9711958106899041,-0.07956389993362112,-31.399044524686218,4.675557450962232,-47.1467548174983
1760682442.560425,-8.025617987601962,-0.1389723516944354,0.9288233696679954,-0.10055755852911737,-28.212737587843677,3.5010776562688624,-49.102688234588385
1760682442.5704048,-8.575498442184855,-0.20132070730203577,0.8900737977598752,-0.11144745079469924,-24.48537379469995,2.411746760151957,-50.633691686541184
1760682442.5804257,-9.163537707838975,-0.2679752578359402,0.8560244151284705,-0.11186627247657643,-20.420483973587388,1.128759808127009,-51.979771779834806
1760682442.5904274,-9.787750268254735,-0.33261713864632725,0.8276661972091774,-0.1029496038380263,-16.237762861827303,-0.656010095718102,-53.35339253674853
1760682442.6008234,-10.445032611202754,-0.3886367987430841,0.8058058626981218,-0.08694032244032361,-12.1492552822917,-3.22597898332035,-54.90080016234201
1760682442.6104739,-11.130659561766869,-0.4299966118849436,0.7909377368550025,-0.06665821068564388,-8.338174569590619,-6.784285262794368,-56.67476891979629
1760682442.6203187,-11.837988370953317,-0.45208805947543307,0.7831187383164198,-0.04496034345822804,-4.943429461298118,-11.407578019113766,-58.62432145088533
1760682442.6305003,-12.558467673972858,-0.45245651895953026,0.7818879544065471,-0.02429654615526801,-2.0513862146154462,-17.018448182955932,-60.604029123786894
1760682442.6402783,-13.282007220262729,-0.43126857138805513,0.7862682006722336,-0.006421658895164438,0.3051924344031509,-23.38233580428565,-62.40186629447762
1760682442.6504505,-13.997704838258933,-0.39141407549899626,0.7948689059953719,0.007720792344807565,2.1421738368094894,-30.130244167741022,-63.78100555760601
1760682442.6603422,-14.69485349317642,-0.338178424362388,0.8060813797162921,0.01796603140044743,3.5146119510433382,-36.80393676824969,-64.52807404174906
1760682442.6704803,-15.364080277978976,-0.27849764454241627,0.8183286420890306,0.0247874123308921,4.504368289397106,-42.91631539143375,-64.49880850441816
1760682442.6802914,-15.998423845699792,-0.21990593277531542,0.8303134631425055,0.029089370280798027,5.206221946410479,-48.01700171307562,-63.65214992565624
1760682442.6902907,-16.594153692017393,-0.1693680107912892,0.8412067817506785,0.03196847157714435,5.7139639468357215,-51.75217429778423,-62.06574388667334
1760682442.7003262,-17.15117714433946,-0.13222804012376588,0.8507342959206902,0.03447206770883475,6.108177954166007,-53.908669450198666,-59.929345721833606
1760682442.710424,-17.672957715414984,-0.11148904808172748,0.8591449485250854,0.03738468753645552,6.4474427174775775,-54.435213928299525,-57.517103478469124
1760682442.7205112,-18.16596041594424,-0.1075609764347728,0.867071296992144,0.041075318913630296,6.764257325407934,-53.438026738199845,-55.14401763989068
1760682442.7303522,-18.638720513689886,-0.11849829348388023,0.8753122083023206,0.04543683003789839,7.066091944326806,-51.15306398550035,-53.11490940092387
1760682442.7406194,-19.100683775369887,-0.14062763478669055,0.8845828364412299,0.04993499010470839,7.340910896590232,-47.901646701985136,-51.67529088252868
1760682442.7501955,-19.56098364898489,-0.1693852452397968,0.8952854004460249,0.053758745566310794,7.565670617855954,-44.038852709428525,-50.97261445128932
1760682442.760289,-20.027310524808094,-0.2001658971552505,0.9073526867624516,0.056035355678855155,7.715880223015909,-39.904237588528595,-51.03395895885812
1760682442.7705412,-20.505000644484547,-0.22902249154575002,0.9202003014919279,0.05605698589866419,7.774357952589409,-35.78250739289694,-51.76297569999501
1760682442.7801902,-20.99643658526278,-0.253123608193189,0.9327963383168204,0.05346615738874051,7.737730429216015,-31.878679713663725,-52.95557656940263
1760682442.7904499,-21.500813446725548,-0.27094813308751037,0.9438283503461341,0.04836271938883395,7.619841453107197,-28.3090599126056,-54.33099110161014
1760682442.8004172,-22.014287579046336,-0.28225185174934725,0.9519271277955561,0.04131595306007811,7.451868520762225,-25.106697613855104,-55.57283604056025
1760682442.8103304,-22.53048801326583,-0.2878702364032607,0.9558983629486529,0.0332846710759177,7.279431642640126,-22.238155883356598,-56.373893316509694
1760682442.820419,-23.04133348027579,-0.2894245834813799,0.95491586952581,0.025463202030466366,7.157278769156145,-19.62742998124615,-56.4783220241501
1760682442.830413,-23.538059925304843,-0.28898349717841426,0.9486420820794916,0.019082544414225563,7.142314097431811,-17.1825639260625,-55.71582336366234
1760682442.8402157,-24.012329015664,-0.2887123960404192,0.9372606404805308,0.015203666835441606,7.285882467215981,-14.820767499809014,-54.023579660147874
1760682442.8504937,-24.45726706404389,-0.29053500289851886,0.9214265775322263,0.014541467424705823,7.62633739871727,-12.488497329794365,-51.4534109794897
1760682442.8602073,-24.868286862757433,-0.29583748580207225,0.902155137213743,0.017350748423347027,8.182922712927704,-10.173926815931184,-48.16345010607082
1760682442.870227,-25.243576796297422,-0.30525657499555403,0.8806762962478244,0.02339086678475459,8.951821327722582,-7.91038476905773,-44.39564915274489
1760682442.880381,-25.58419743221059,-0.3185915286968042,0.8582795618217444,0.031968872016427737,9.904904607368854,-5.770597246592303,-40.442376587458774
1760682442.8902924,-25.893793333912683,-0.3348625080605943,0.8361679934291405,0.04204790684169644,10.991358826761578,-3.8528796441937976,-36.60689596393879
1760682442.9004378,-26.177991465840734,-0.35251235111232604,0.8153370064442836,0.05240104853416376,12.142043954588267,-2.261754390417918,-33.16334628085402
1760682442.9103785,-26.443603028369104,-0.36972199575166953,0.7964922627822383,0.061788981896586014,13.276155040763657,-1.086613304184012,-30.321828385479293
1760682442.9202824,-26.69776475749915,-0.3847856305328437,0.7800170689041999,0.06913933209736368,14.309496911742086,-0.38261368035767096,-28.203329168794625
1760682442.9304492,-26.947147740378565,-0.3964735290858962,0.7659903767252595,0.07370416828963695,15.1634674464532,-0.1576564038543431,-26.82761251224433
1760682442.940692,-27.19733054405326,-0.40430315387974797,0.7542450005377169,0.07517166554717453,15.773706072420936,-0.36803620443846685,-26.11516041971077
1760682442.9505699,-27.45238655971182,-0.40865020505547567,0.7444496362022864,0.07371152815790344,16.097330316576787,-0.9235170264646063,-25.90213371799757
1760682442.9602532,-27.714684043698405,-0.41066593564492493,0.7362029884531885,0.06994283233886704,16.117787698179317,-1.7006426546036464,-25.965490544431226
1760682442.9704363,-27.984853729371597,-0.41201581307103374,0.7291390370382049,0.06482553465658855,15.846633368766268,-2.5614616038278553,-26.05411649241647
1760682442.9803677,-28.261854049959112,-0.4144977974233621,0.7230468838831695,0.05949070237231175,15.322005111009936,-3.373828656170479,-25.921244211297797
1760682442.9903536,-28.5430654269882,-0.41962414888452754,0.71800001582561,0.05503807997113214,14.604115652996315,-4.029227430101006,-25.353635762572488
1760682443.0007143,-28.82437295810589,-0.4282574654539649,0.7144733791866944,0.05233957503871148,13.768565345922768,-4.45467205570155,-24.193909971992728
1760682443.0103996,-29.10024055489351,-0.4403790831197662,0.713412853893741,0.051887948526190934,12.898557086050342,-4.616547637306652,-22.35379887750214
1760682443.0202549,-29.363819456550747,-0.4550363863346826,0.7162187539755566,0.05371838149235762,12.077092160108204,-4.515962213877079,-19.817664481605295
1760682443.0303304,-29.60715009692571,-0.4704728636300595,0.7246160281894977,0.05741054496309013,11.379958922352818,-4.176977910455118,-16.63696941773558
1760682443.0402796,-29.82150018911682,-0.48440525517811817,0.7404065994984513,0.06215919642171097,10.869934504037674,-3.6306206376439705,-12.91739662869111
1760682443.0503147,-29.997843380887506,-0.4943889442849293,0.7651278276784556,0.06688987283523948,10.59230340552434,-2.8984937526045407,-8.800942688915196
1760682443.0604424,-30.127442429341162,-0.49820961031191674,0.7996685541769114,0.07039469117766288,10.571682364778145,-1.9799000938581748,-4.445639654765761
1760682443.0703483,-30.202474366178397,-0.49424845035139686,0.8439142212794125,0.07146777330330292,10.810198211303872,-0.8456059001476004,-0.005647754208452375
1760682443.0804172,-30.216626780031852,-0.4817788774878561,0.8964998335849723,0.06902549915188946,11.28716544490616,0.5600050265690986,4.385719416107554
1760682443.0903132,-30.165600944089046,-0.4611590635955693,0.9547407590882708,0.06220136968502416,11.960451169661681,2.308328344696124,8.627987955360023
1760682443.1003325,-30.047472483467466,-0.43388796321894363,1.0147867655067357,0.05040897309097955,12.769673271483654,4.469171172808205,12.659315060419681
1760682443.110297,-29.862875264403954,-0.40249729131033074,1.0720082697685163,0.03337071122030029,13.641254544955768,7.0898667936441315,16.455873414807893
1760682443.1203928,-29.614984582713582,-0.3702662390976145,1.121579776646532,0.011116470970899439,14.495122687625571,10.175178021323154,20.025633336092437
1760682443.1303468,-29.30928621689961,-0.34077698974329873,1.1591753809227148,-0.01603415599126263,15.252477187510317,13.67242725462587,23.398153123204295
1760682443.1402407,-28.95313759316715,-0.31737454545419364,1.1816416374882732,-0.047485986498261884,15.843623675308374,17.46526142901559,26.612407018093574
1760682443.150546,-28.55515732726724,-0.30263399858472584,1.187488153689314,-0.08236566295889296,16.21467154905305,21.377599204039168,29.704631025485842
1760682443.1602604,-28.124509674136366,-0.2979466533061262,1.177067822163526,-0.1195114424193342,16.332178881999976,25.18742066579399,32.697779615001636
1760682443.170302,-27.67016940693461,-0.3033063811211705,1.1524110586076226,-0.15748497042211407,16.185524878856633,28.64869575526428,35.59375777158401
1760682443.1803074,-27.200255066528815,-0.3173267298288593,1.1167896591015452,-0.19463491316216608,15.787373886852766,31.51874889235314,38.36932356673052
1760682443.1903148,-26.721503983195174,-0.3374701515579962,1.074156819270625,-0.22922230045782954,15.172602173408595,33.587399679608225,40.97635705504269
1760682443.2003174,-26.238934316580448,-0.3604351347066509,1.028611066895092,-0.2595923665513079,14.395589628221353,34.703516051773214,43.34681974199739
1760682443.2110581,-25.755706192862835,-0.3826281212484316,0.983978413109822,-0.28435985241025363,13.52538599789957,34.79473403993868,45.40207419083718
1760682443.2206676,-25.27316676331214,-0.400644380651173,0.9435374301362531,-0.3025679956266626,12.638398756379672,33.877263397779025,47.06540790769217
1760682443.2303007,-24.79104869611369,-0.4116914556838849,0.9098606771825366,-0.313787458578194,11.80891892124999,32.05454811838643,48.27583746919146
1760682443.2403238,-24.30778624941551,-0.4139041423746102,0.8847286213083578,-0.31813991010295606,11.0986528575999,29.505477330377243,49.00079900687774
1760682443.2503579,-23.82091183922305,-0.4065176122136394,0.8690845032950626,-0.316253833113247,10.547065742299003,26.46438767305739,49.24534939036271
1760682443.2602515,-23.327495355200533,-0.3898860355192546,0.8630230288478177,-0.30917439833915933,10.164517748430095,23.19604271774665,49.0560514704813
1760682443.270316,-22.824588891711134,-0.36535832646568794,0.8658238127812565,-0.2982488969106592,9.929816075364345,19.969043351748933,48.51864476866896
1760682443.2804277,-22.309642917110335,-0.3350454670337127,0.876043283341775,-0.28500050221724976,9.79299411671722,17.03077454502752,47.7496554079626
1760682443.2903845,-21.780866468172405,-0.3015274546978682,0.8916690272117905,-0.27099636046364767,9.683069044846135,14.586263347298503,46.88305856437636
1760682443.300537,-21.237511915508215,-0.2675483291465503,0.9103266187617608,-0.25771548417328205,9.519496459583289,12.78252512481328,46.053852795540536
1760682443.310508,-20.680071527462793,-0.23573733682146927,0.9295179472618393,-0.24642523114131878,9.225291115924467,11.699302224178771,45.380885757694244
1760682443.3204653,-20.110376534036828,-0.20837892340281294,0.9468650673447502,-0.23807859231905404,8.739478344926734,11.34653706999954,44.95144871734447
1760682443.330542,-19.53159031950408,-0.18724040444021509,0.9603342754346578,-0.2332456171067863,8.026719955482935,11.668370344404257,44.80999189466889
1760682443.340237,-18.948089613153652,-0.1734587735002546,0.9684193314927012,-0.2320891202601164,7.08254734177714,12.552890867346989,44.9527783614311
1760682443.3505254,-18.365235124422398,-0.16748724334015855,0.9702681646572417,-0.23438702989314816,5.933490524013349,13.846362625343316,45.32941381487354
1760682443.3603094,-17.789045632403774,-0.1691025996949858,0.9657424462994936,-0.2395944888534973,4.632344797297892,15.370303863437808,45.851061952765875
1760682443.3704672,-17.225802169717728,-0.17747117097498985,0.955403881366818,-0.24693258348826558,3.249679763942604,16.939635006000525,46.40397511043831
1760682443.3804348,-16.681617167245673,-0.19126459278589017,0.9404261392725356,-0.25548915078099255,1.8632775552176661,18.38014754647567,46.86600877241822
1760682443.3903434,-16.162007137792674,-0.20881108035703705,0.9224385298603902,-0.26431914476327667,0.5473607514945158,19.543748425114174,47.123304151319566
1760682443.4006112,-15.671508761518309,-0.22826604947236911,0.9033169295535918,-0.2725354273175965,-0.6367472249573998,20.320250328275304,47.0844442061641
1760682443.4104874,-15.21337689155458,-0.24778585431847946,0.8849469430944902,-0.27938402852244015,-1.6473526392223994,20.644844294576984,46.69006682681497
1760682443.4202685,-14.789396288683596,-0.26568808569915503,0.8689905915662847,-0.2842999259294961,-2.465889115400308,20.500772043000016,45.91696251625644
1760682443.430449,-14.399825134726706,-0.28058200536311584,0.8566886239709909,-0.2869404785530995,-3.09709154316824,19.917129529143445,44.77682511517851
1760682443.4404929,-14.043469357497841,-0.29145531225670446,0.8487257202855953,-0.2871952683475985,-3.5662089077055055,18.96222003754105,43.31079396535225
1760682443.450272,-13.717867164042731,-0.2977094915164143,0.845176906073513,-0.28517411544748433,-3.9139524974253774,17.73341400722083,41.58152103166381
1760682443.460499,-13.419548252001576,-0.2991445961248222,0.8455420551811897,-0.2811783348850918,-4.190067116686131,16.344938600815915,39.6646205288632
1760682443.4705224,-13.14432576270206,-0.2959031988471961,0.8488627320546227,-0.2756616601017461,-4.446466415029938,14.915254648623492,37.64104628984495
1760682443.4805458,-12.887581753588966,-0.28838964200854983,0.8539036731184334,-0.2691857387456479,-4.730815796600902,13.555607417030263,35.59135236831543
1760682443.4903238,-12.644516358355729,-0.27718272261428223,0.8593722438949242,-0.26237240163844516,-5.081307347486986,12.361001390431548,33.59213167367028
1760682443.5002143,-12.410343817805261,-0.26295797992801423,0.8641447435657814,-0.2558536804512518,-5.523170525371252,11.404352579940499,31.714355781050905
1760682443.510286,-12.180433075138355,-0.24643147228373602,0.8674684642943588,-0.2502217731834593,-6.067213807963227,10.734030519229522,30.02294674096251
1760682443.5204132,-11.950404232146973,-0.2283310919022808,0.8691119734722069,-0.2459834006584181,-6.71041902018656,10.374512453873674,28.576740018246678
1760682443.530461,-11.71620109606216,-0.20939403538479423,0.8694423408069764,-0.24352373231063573,-7.438348171801786,10.329495168048545,27.42803796222502
1760682443.540359,-11.474160905606205,-0.19038107117181893,0.8694168875679448,-0.24308260614625954,-8.228911383281698,10.586572883246935,26.621144872362024
1760682443.5502717,-11.221095781805754,-0.17209281161777762,0.8704882914464319,-0.2447406465354118,-9.056911082433485,11.122499955257585,26.189541489455397
1760682443.5603046,-10.954392634694434,-0.1553736602805352,0.8744338699908893,-0.24840762437508354,-9.898729221448765,11.90811407148077,26.151651960145728
1760682443.570574,-10.672135258754933,-0.14109484715660084,0.8831297815369844,-0.2538034463580189,-10.736552114468877,12.912192647773375,26.5054667654024
1760682443.5803862,-10.373252447969016,-0.13011348670147266,0.8982967929088428,-0.2604263905063015,-11.561619452316851,14.10382307149683,27.222601367422392
1760682443.5903049,-10.05769106305555,-0.12320581667486918,0.9212462778215341,-0.2675134862044226,-12.376130501219228,15.453217367304791,28.242668552002215
1760682443.6004121,-9.726598848844082,-0.12097235343565792,0.9526545772057375,-0.2740096721845744,-13.193630460004224,16.93119602118949,29.469086467802075
1760682443.6102896,-9.382483887058145,-0.12371658785661169,0.9923920919100199,-0.27856947369345547,-14.037910395473999,18.507723271302872,30.767587087690668
1760682443.6203182,-9.029306934424708,-0.13130984098805193,1.0394310582698858,-0.2796145484313213,-14.940642408409452,20.149886853231457,31.96866675156726
1760682443.6304154,-8.672467567549237,-0.1430697654333389,1.0918521894877642,-0.2754634728526022,-15.938086703427675,21.819651679952994,32.87495486962838
1760682443.6404643,-8.318663429721278,-0.15769046026924427,1.1469631960762445,-0.2645381054799337,-17.067215259640886,23.471688357540383,33.27392021475755
1760682443.6503558,-7.975624056668651,-0.17326064311558362,1.2015291504862053,-0.24563404984794085,-18.361500001463025,25.051662645949502,32.95552149481638
1760682443.6604712,-7.65173774054049,-0.1873927206267627,1.2520950279269738,-0.2182216827661779,-19.846457760608754,26.495559804373116,31.73347064633321
1760682443.6704915,-7.355600510336822,-0.19746667832805181,1.2953581685076265,-0.1827222436913024,-21.534921455842092,27.73077110693718,29.46789660887295
1760682443.6805425,-7.09552460935917,-0.2009736166504699,1.3285310939230788,-0.14068740352285516,-23.42202838472298,28.679579239660892,26.08655454326133
1760682443.6905944,-6.879051886908606,-0.19592351871363597,1.349631731006881,-0.09480932958091012,-25.480141152756,29.265223386147767,21.601449917877986
1760682443.700354,-6.712522770872828,-0.1812592275696309,1.3576517185770796,-0.04870922247497798,-27.65428477050155,29.42000886413403,16.117886015645524
1760682443.7104082,-6.600750201741236,-0.15719915225632536,1.3525794363997445,-0.006497448792705096,-29.85904263097785,29.09424224046088,9.833488595280867
1760682443.7205873,-6.5468385167089265,-0.1254250396331672,1.3352841621437297,0.027840767921781775,-31.978061381460567,28.26438346780655,3.0257099735946498
1760682443.730538,-6.552170629920638,-0.08904592218798875,1.3072944307936418,0.05112234794413962,-33.86730514194849,26.93875478923806,-3.9723229152065547
1760682443.7407699,-6.616565262507147,-0.05230674937478336,1.2705231527014214,0.06156173489248273,-35.3629579571078,25.15930384034981,-10.806019615138638
1760682443.7503133,-6.738582791595478,-0.020064684012171125,1.2270006172274779,0.05914730997882207,-36.29436087136669,22.998227569766126,-17.140087471534848
1760682443.7603858,-6.915937454891155,0.0028871191305170217,1.1786707601737147,0.045705704501552126,-36.50152335522592,20.548868704798142,-22.700622394287688
1760682443.7704592,-7.145958221610775,0.012529687839821009,1.1272860683784407,0.02462611222791052,-35.85559791270255,17.91135829223647,-27.312254215303174
1760682443.7802277,-7.426031789317178,0.006236988506549682,1.0744067835090911,0.00028555125947026113,-34.2795029404707,15.174864458465388,-30.924013481199246
1760682443.7903092,-7.753959874303424,-0.016799001566736728,1.0214781438990685,-0.022722439794446138,-31.765067018692744,12.399574752836237,-33.61867652096089
1760682443.800368,-8.128172507221024,-0.055400097098700765,0.9699353818642502,-0.0404079994216633,-28.383054554550846,9.602259506889373,-35.60256500630334
1760682443.8106344,-8.547762905546206,-0.10651258693963736,0.9212803176622268,-0.05008909965515226,-24.283339928262606,6.749268143786478,-37.17586084319184
1760682443.820419,-9.012344247619797,-0.16557971499188973,0.8770881376258025,-0.050833713764153785,-19.684136989512886,3.7600602659887867,-38.68690080273258
1760682443.830362,-9.521760575793468,-0.2271192926953045,0.8389295706200068,-0.04354735742755956,-14.851206748090638,0.5227586628996569,-40.47693764192747
1760682443.8404827,-10.075698004132613,-0.2854138856157238,0.8082202411022176,-0.030689898776653925,-10.069919623847017,-3.079320050684445,-42.82383883169313
1760682443.8503137,-10.67323788040357,-0.3352041149750651,0.786028846907618,-0.015688545749618567,-5.614463262824168,-7.134285833686327,-45.893724266802444
1760682443.8603692,-11.312388526107245,-0.37228882636969474,0.7728874204599552,-0.002182434638462119,-1.7189801247503174,-11.668299354114907,-49.7085808531295
1760682443.8706036,-11.98964502721095,-0.3939706276838131,0.7686502745874255,0.006731715924819825,1.4451397341168268,-16.620299839136276,-54.13569202351352
1760682443.8805587,-12.699654764488615,-0.3993193076069866,0.7724427055956276,0.009093627137128113,3.7829953589880128,-21.831996724071377,-58.90159438069247
1760682443.890375,-13.435087893984972,-0.389243670878856,0.7827243973121144,0.004403345805506534,5.279908382804216,-27.05727149929654,-63.62951002081473
1760682443.9005191,-14.18680455239822,-0.36636609776924034,0.7974665679052,-0.006363558615684911,5.995740931757667,-31.990911423070678,-67.89524913795353
1760682443.9102905,-14.944365806654261,-0.3346951884925515,0.8144136145691585,-0.021018414297238445,6.051518409230193,-36.31227904378251,-71.29312149098243
1760682443.920517,-15.696861092854343,-0.29910316456738517,0.8313796445585484,-0.03662011989691867,5.610696743657348,-39.73601977829628,-73.50116286044035
1760682443.9306626,-16.433941859947076,-0.2646456102300277,0.8465242396456526,-0.05003441928754022,4.857668525411659,-42.05987918791508,-74.33450489875389
1760682443.9404678,-17.146886195505573,-0.23580909258462,0.8585605683443749,-0.05849259829910126,3.9761295232301075,-43.19969991535505,-73.77724914119362
1760682443.9504962,-17.829495602008485,-0.21581820277461206,0.8668672956567095,-0.060060356202264756,3.129760137603464,-43.203994358748425,-71.98669101027778
1760682443.9606676,-18.47865326877843,-0.2061511594458799,0.8714946293322515,-0.053943686882888156,2.447294141550674,-42.244751251863924,-69.26872074189518
1760682443.9706128,-19.09444531599092,-0.2063844690400447,0.8730688144834522,-0.040585735070252,2.0134407215338235,-40.58617624139051,-66.02876989597846
1760682443.9807534,-19.679839011122247,-0.2144141770318419,0.8726111290938334,-0.021547729765422977,1.8663182095470539,-38.53751445355461,-62.70746420879577
1760682443.99044,-20.239997237079915,-0.22700680702532774,0.8713011350257879,0.0007918033660000275,2.001135942871526,-36.39901164671079,-59.712925606129666
1760682444.0005214,-20.781366980758126,-0.24055079798335843,0.8702272518278225,0.023655587942332218,2.378993827043575,-34.41109884589015,-57.361776487491014
1760682444.0103571,-21.310703606731995,-0.25183632126116773,0.870173762859422,0.044327247510261215,2.939025845931812,-32.71607923052573,-55.83851275869337
1760682444.0205755,-21.834183414932028,-0.25869614980300504,0.8714872106832798,0.0605768082412903,3.611767601837681,-31.339193000883864,-55.178832204242774
1760682444.0303924,-22.35672168151528,-0.2603837625741385,0.8740463894900794,0.07098706349254892,4.331589785436044,-30.19233202963609,-55.277780972569296
1760682444.0405877,-22.881563454007566,-0.2576309378159912,0.8773333066610648,0.07513241211740607,5.046330670495637,-29.099446652911652,-55.919201435156815
1760682444.050606,-23.410162111462363,-0.25239888368062297,0.8805767906545168,0.07358446230909112,5.722882838964656,-27.838586383253002,-56.81968770821316
1760682444.060424,-23.942315493790755,-0.2473984875152048,0.8829256130290064,0.06774642783878927,6.3483455561062785,-26.19237502501121,-57.67853714144818
1760682444.070534,-24.476496533336167,-0.24549443573881274,0.8836079446680933,0.05954767456883515,6.927254664828605,-23.99719861542967,-58.22513424195191
1760682444.0804958,-25.010296684617987,-0.2491191170957949,0.8820455117156084,0.05105575542038368,7.476142418645176,-21.18176721033153,-58.25657992186457
1760682444.0904388,-25.540895272603407,-0.25980565241384457,0.8779081649823677,0.0440809960588819,8.01710773650451,-17.78790413523816,-57.66072469009628
1760682444.1003094,-26.065474318186617,-0.2779121801437392,0.8711123770996747,0.03985306282529593,8.572111801029243,-13.969999722240328,-56.42255989332572
1760682444.1104367,-26.58151555230125,-0.3025655752523348,0.8617803901058195,0.03883541555857504,9.159334773533041,-9.973805673582419,-54.614689210071425
1760682444.1202655,-27.086943789572267,-0.3318152154828164,0.8501815059329944,0.04071255917219589,9.792182928840731,-6.099202612077822,-52.3749798483582
1760682444.130398,-27.580115655498567,-0.36295977366238724,0.8366733419372601,0.04454457561943906,10.48059032474979,-2.6543828689202345,-49.876241251092544
1760682444.1404698,-28.059687022480393,-0.39298808568372606,0.8216531276573769,0.04904523688862443,11.233439129444005,0.08998735542140178,-47.29370327046316
1760682444.1504304,-28.524415424943438,-0.4190570109968572,0.8055226279328769,0.05291396719339149,12.06058328154878,1.938737410901183,-44.77598191470311
1760682444.1608489,-28.972957759660368,-0.4389211221180959,0.7886673911293596,0.055143912241990466,12.973252399589848,2.7965563617193387,-42.42408529162252
1760682444.1703718,-29.403711121779676,-0.45124017503300434,0.7714506955195869,0.05523940624339135,13.98237351721789,2.6760292059140225,-40.28105569452195
1760682444.1804943,-29.814725242786764,-0.4557209250332201,0.7542228587801225,0.053301734064722016,15.095220210038363,1.6898085215350398,-38.33253793788884
1760682444.1905494,-30.203695899135365,-0.45308746165194,0.737346640632581,0.049974279524223994,16.31143230144942,0.030106341360471474,-36.51645947209549
1760682444.2002957,-30.568030997755084,-0.44490472322168517,0.7212392200888579,0.046269170677866726,17.61963686975486,-2.0595745954510924,-34.738555685791916
1760682444.2105322,-30.904965276974337,-0.43329908467303874,0.7064296032862305,0.04332106105293969,18.995641385510194,-4.315057237517695,-32.88990830973822
1760682444.2205107,-31.211689174897934,-0.42063056488978184,0.6936256409045285,0.04212473330054635,20.402654724367974,-6.479644414753894,-30.862978502118334
1760682444.2306297,-31.485456066697804,-0.40917397083341256,0.6837776075768967,0.04331057939627448,21.79347139404168,-8.326312764248566,-28.56361838996909
1760682444.2403367,-31.723640611308053,-0.40085894878859235,0.6781180176054218,0.04699933216356872,23.11416685931945,-9.672127265759029,-25.917945898207176
1760682444.2505064,-31.923737438003624,-0.39710011414644286,0.6781515274808133,0.05275886226045653,24.308604635548633,-10.384850075281475,-22.874432566154937
1760682444.2604878,-32.08330967122195,-0.39872120760267865,0.6855659672110223,0.05966340147953064,25.322937109148974,-10.383280320324308,-19.402738453238747
1760682444.2708304,-32.199915524491345,-0.4059512248644497,0.7020406117526099,0.06643264653089263,26.109319084038518,-9.633775113667255,-15.491439418987714
1760682444.28057,-32.271053680142444,-0.4184580868608722,0.7289463510177002,0.07161201164113802,26.62828164629281,-8.145440602538327,-11.146669637051865
1760682444.2907984,-32.294170742281736,-0.435391832257184,0.7669643415979521,0.07375222902486142,26.849640294967276,-5.965766568330071,-6.392895233210628
1760682444.3004017,-32.26676419063133,-0.4554282655226196,0.8156872084321836,0.07155703893965468,26.752364914331615,-3.1773595944545954,-1.275823690454545
1760682444.3103325,-32.18659264160287,-0.47682464676290437,0.873298088972646,0.0639864545609346,26.324332501375814,0.10468799254435475,4.1337473786787164
1760682444.32042,-32.05197734050297,-0.49751327997177797,0.9364365282843041,0.05032169150201645,25.56306702652291,3.736015073472774,9.737134848530212
1760682444.3304384,-31.86215267095003,-0.5152611780355607,1.0003480133780895,0.0302084878271093,24.478271000384474,7.548178152405416,15.40813872963403
1760682444.3408685,-31.617604986592088,-0.5279093197940432,1.0593706042788118,0.003694681913433783,23.096172464689893,11.35671077839724,20.99804720431895
1760682444.3504674,-31.320330447922448,-0.5336727467126999,1.1077367694940694,-0.028731789172440538,21.464638396478133,14.972017424994544,26.345558108572806
1760682444.3606396,-30.97394520047515,-0.531443550234906,1.140569035702226,-0.06611064438952316,19.656990280959615,18.21203255743339,31.290591952646494
1760682444.370317,-30.5835981833183,-0.5210133752584939,1.1548497689711612,-0.106999168662422,17.77196070089248,20.914908268628647,35.68998315733594
1760682444.3802667,-30.155669613544518,-0.5031376026716204,1.1500949173633268,-0.14950754109027992,15.927689193215858,22.95002830150347,39.43255327952898
1760682444.390677,-29.697281616917465,-0.4794017583233549,1.128507328126981,-0.19140436605482364,14.24922601563229,24.22638895158862,42.45109722295411
1760682444.4004216,-29.215690001457357,-0.45191040513730946,1.0945352530124726,-0.23030714572957517,12.851300913756027,24.69837808014059,44.72932388904331
1760682444.4103389,-28.717654995763564,-0.42287936541440074,1.0539577040788843,-0.263947680585163,11.820187850614149,24.369497877686488,46.30269373774321
1760682444.4205084,-28.208894658916513,-0.39424600117880393,1.0127666117311047,-0.29047228749140247,11.19932849243175,23.29422360159457,47.25316652592667
1760682444.4304624,-27.69370538343844,-0.36739965236169037,0.9761511567375223,-0.30871657547980763,10.982494543855799,21.57731649896389,47.69886550386262
1760682444.4405334,-27.17479617468127,-0.34308319124494,0.9478115754231361,-0.31839161758951295,11.116074752529075,19.369270636860247,47.78040512819227
1760682444.4504943,-26.653340070239,-0.32145727125995527,0.9296878073191152,-0.3201316218497327,11.509539216788719,16.856682930317998,47.646005814880155
1760682444.4603057,-26.1292092447842,-0.3022773215345059,0.9220489550998681,-0.31538082569867465,12.05119181634253,14.247211985747514,47.437472058657946
1760682444.4704015,-25.60133622947249,-0.28511649141171785,0.9238067413627674,-0.3061360355874451,12.625468649266534,11.750125499499115,47.27865794279863
1760682444.4804647,-25.06813310320318,-0.26956997539117233,0.9329095976996636,-0.29460045125998724,13.12829805348371,9.554791741504651,47.26729853532447
1760682444.4905267,-24.52790252968765,-0.2553922726459753,0.9467230016801356,-0.28282831751280013,13.478085298245347,7.810400666528062,47.47026087292913
1760682444.5004325,-23.979187867348752,-0.2425461355594676,0.9623639320683726,-0.27243799796054263,13.621262784060495,6.610360866838937,47.921643601661735
1760682444.5104618,-23.421031258952,-0.23117258264312465,0.9769978185511904,-0.264445719146555,13.532650596689379,5.9841133195927245,48.622938575819695
1760682444.520322,-22.853132826000092,-0.22151255368293726,0.9881132880781749,-0.25923566473605164,13.21183673873046,5.897749466235094,49.544659617598484
1760682444.5305612,-22.27592360575926,-0.21381473141731155,0.9937722529444802,-0.2566474819116975,12.677273465011615,6.2632277547322275,50.62924448925574
1760682444.540296,-21.690574020187793,-0.2082544473298485,0.9928090899147028,-0.25613888476236946,11.959775958255486,6.954530619438558,51.795391546671176
1760682444.5503986,-21.098957996020594,-0.20487572204088103,0.9849403924899294,-0.2569733963916826,11.096701875968535,7.828040625211613,52.94411613271225
1760682444.561024,-20.503586292579648,-0.20356065964000694,0.97075469897062,-0.2583903620349032,10.127479243910397,8.743868173881578,53.96663114879403
1760682444.5719848,-19.907519070923943,-0.20402936452825704,0.9515768853475203,-0.25973039191202296,9.090564772359741,9.584869227828316,54.75372647056782
1760682444.5822773,-19.31426969008651,-0.20587440275807162,0.9292335349041425,-0.26050721376141345,8.02153620063788,10.270610879571882,55.205822435388654
1760682444.5903573,-18.727713216528894,-0.20862956677538083,0.9057700552446303,-0.26043122574852773,6.95190974424011,10.764474458306717,55.24253752970336
1760682444.600389,-18.152006243753746,-0.21186150118439864,0.8831774654180108,-0.25939809200823477,5.908357432131794,11.073264894834809,54.81058889305626
1760682444.6103687,-17.59150909354417,-0.21526053704737053,0.8631750168359482,-0.25745711373652974,4.912155555517208,11.239911575856093,53.88910946050814
1760682444.6206021,-17.05068634209654,-0.2187017549325774,0.847071734843408,-0.25477071612678065,3.9788291179432127,11.330904778184468,52.49186638119602
1760682444.6305387,-16.533956742118967,-0.2222525417154337,0.8357064968887693,-0.2515713818098967,3.118025369497121,11.420871256556474,50.6662524150915
1760682444.6403525,-16.04547201744697,-0.22611764838569834,0.8294501700322248,-0.24811839943307226,2.333648968055278,11.577059494510562,48.489221639601205
1760682444.6504295,-15.588822458295297,-0.23053239341125917,0.8282474294906426,-0.24465522007911697,1.6242463898309263,11.846429913401595,46.060551156716556
1760682444.6604826,-15.166690437171061,-0.2356320271079401,0.831678881787435,-0.2413693687246283,0.983579666406173,12.247536141109412,43.4939699441121
1760682444.6705008,-14.7804952301837,-0.24133362088786892,0.8390317547686034,-0.23836009105393485,0.4013180479038682,12.76851666209469,40.90685838818602
1760682444.6804514,-14.430087930930922,-0.24726353892161726,0.8493747046514408,-0.2356220261414535,-0.13618804794587266,13.371428009158283,38.40942670836988
1760682444.6904793,-14.113559038097923,-0.252751334411294,0.8616363654972387,-0.23305313478049156,-0.6450292324704124,14.002017260389296,36.09450637346069
1760682444.7003894,-13.827211973191092,-0.2568956333443503,0.8746882336878512,-0.23049052036574433,-1.142698262782761,14.603045252317532,34.02924195673805
1760682444.7105973,-13.56573507091771,-0.2586937984240862,0.8874315745154783,-0.2277705174944639,-1.6468466637759869,15.128609877409023,32.24993517390327
1760682444.7204478,-13.32257590909982,-0.25721601893456736,0.8988857863622506,-0.22480289898383993,-2.1738579615798606,15.55670529997134,30.760987121044533
1760682444.7307074,-13.090489640141723,-0.25179577709732864,0.9082723763280571,-0.2216454109879399,-2.737354591059284,15.897526579869965,29.538302916274787
1760682444.740407,-12.862202633474874,-0.2422033869350376,0.9150857260073761,-0.21856416321549219,-3.346845401733604,16.1957354174747,28.53676168475978
1760682444.7503526,-12.63110982309668,-0.22876908441846577,0.9191410374307716,-0.2160667949974612,-4.006756771525273,16.525918359275323,27.700590752255756
1760682444.7605407,-12.391913243339685,-0.21242765939772149,0.9205923484957084,-0.21489798787819162,-4.716040079235347,16.9816362504404,26.974896814975274
1760682444.7706585,-12.141112530130718,-0.1946670708386026,0.9199189506410723,-0.21599017697281944,-5.468416795854392,17.659609102440925,26.316325207691325
1760682444.780532,-11.877274883419004,-0.17737711937675196,0.9178848944337311,-0.2203658778130135,-6.253154364254772,18.6415234575895,25.700900477053224
1760682444.790453,-11.601039906513039,-0.16260970274023823,0.9154804208966443,-0.2289924273071623,-7.056132493575304,19.97651964556639,25.12754106746841
1760682444.800341,-11.314852072187728,-0.15227864389242796,0.9138540151743606,-0.24259670478698867,-7.860935394761151,21.667482205657198,24.616466756271127
1760682444.810411,-11.022457680466232,-0.14784241594437114,0.914239998824275,-0.2614575968771403,-8.649830223834147,23.663768521519867,24.202603036167414
1760682444.8207414,-10.728247699168868,-0.15002315540725342,0.9178818784115549,-0.28520601154647957,-9.404731535613552,25.86204346913382,23.924975379215113
1760682444.8303413,-10.436562867354949,-0.15861622446918514,0.925948619125855,-0.3126719149011611,-10.108503218531164,28.115632526177023,23.813821729901726
1760682444.8406649,-10.151092418950649,-0.17243426786971727,0.9394406719387752,-0.3418207293876201,-10.747086646380504,30.25149150411566,23.877604159736194
1760682444.8505948,-9.874484808200654,-0.18940826454900495,0.9590850742589253,-0.36981526405631265,-11.312859100528875,32.09270344507308,24.092192797623678
1760682444.8603222,-9.608246214478507,-0.20683870069267396,0.985224424644647,-0.39322447867229465,-11.809268401811016,33.48347779023449,24.394219900503792
1760682444.8704002,-9.352938782481287,-0.22175969480201263,1.0177122702152903,-0.4083782770154439,-12.256207933093863,34.3130469694972,24.68002364883958
1760682444.8804924,-9.108622835822935,-0.23135553685125482,1.055834106837021,-0.41183985568332104,-12.694956953745928,34.534741934132484,24.81083074454535
1760682444.8903904,-8.87543472489461,-0.233358264080933,1.0982742421024945,-0.40093727111472405,-13.191040256535704,34.17696935012978,24.623981917160194
1760682444.9007096,-8.654167520129867,-0.22635994983995894,1.1431428440426552,-0.37427072621925306,-13.83325802228896,33.343796924514685,23.94918667202704
1760682444.910484,-8.446728577116957,-0.2099946763153321,1.1880680513323347,-0.3321002691142817,-14.727519379231808,32.20423225071238,22.628088623647944
1760682444.920745,-8.25638031497094,-0.1849765673284021,1.230349472151032,-0.276526214931419,-15.984985092773384,30.970842919522596,20.534896334628627
1760682444.9305956,-8.08771769034384,-0.15300911111051188,1.2671627783829158,-0.21140281980123157,-17.705245351093858,29.869935353504196,17.595521030493106
1760682444.9404638,-7.9463865805117955,-0.11659613365107696,1.2957986368704753,-0.1419704917055302,-19.956561008025187,29.106960362822203,13.802573114838623
1760682444.951024,-7.838592858951801,-0.07878588820881013,1.3139119037195943,-0.07424378225699281,-22.7562640034004,28.831989395568666,9.223724329987085
1760682444.9607134,-7.770487214329779,-0.0428765452250345,1.3197503297431783,-0.014239589698957195,-26.05495939285086,29.110749081783997,4.001391971327256
1760682444.9706063,-7.747533045546035,-0.012112423521322383,1.3123295174859708,0.03283730013249416,-29.72800524571677,29.90648580450395,-1.657492830661382
1760682444.9803383,-7.773971633337316,0.010596162157435212,1.2915266858641121,0.06332151313773765,-33.576831011125705,31.07661444547631,-7.501692549803367
1760682444.9903307,-7.852487438271768,0.02289929541909496,1.2580814428064724,0.07560706964580195,-37.34115122107132,32.385709090365495,-13.264436300380007
1760682445.0003831,-7.9841453791725945,0.023163484034366168,1.2135129100001478,0.07037099680016005,-40.72135634469419,33.53330468960639,-18.69776525209125
1760682445.010581,-8.168623638763318,0.010559914775004588,1.159980525259543,0.05045907500707952,-43.40867243526219,34.1919226402944,-23.60801666667026
1760682445.020422,-8.404707426084522,-0.014897577423962843,1.100122827642313,0.020447964244038226,-45.11937374353139,34.048591643528525,-27.88705172570609
1760682445.0303817,-8.690953347334844,-0.05234464154350433,1.0369012815953973,-0.014048130628885136,-45.62859526825633,32.84260423646535,-31.53370010120927
1760682445.0403326,-9.026393959146418,-0.10007952960409455,0.9734579852172358,-0.0472160155989422,-44.799185769263865,30.393522351999135,-34.66076821392962
1760682445.0505729,-9.411137087966795,-0.1556066233310194,0.9129766588542917,-0.07389431619941622,-42.60153427108644,26.616144088896643,-37.4847423036518
1760682445.0603147,-9.846726646816691,-0.21573391606530296,0.8585266359641943,-0.09030291861751362,-39.12132523835324,21.522461489093992,-40.29774113291163
1760682445.0704753,-10.336166524663373,-0.276747180699185,0.8128744882161255,-0.09453700199808611,-34.553655577323035,15.213561456392249,-43.42402528960103
1760682445.0806046,-10.883559782213656,-0.33466692847839025,0.778264034012467,-0.08674811916615242,-29.1838011505662,7.866063617984943,-47.16611850684649
1760682445.0905244,-11.4933759670061,-0.38557247293640773,0.7561852805382707,-0.06898527432532173,-23.35698064750392,-0.28235086492874667,-51.74794248719613
1760682445.1004236,-12.169424768450787,-0.42596321391000613,0.7471693767939257,-0.0447286306712715,-17.441353892608667,-8.945302411492342,-57.26385035329843
1760682445.1105788,-12.913677576587958,-0.4531240252177402,0.7506553291417284,-0.01820735685835616,-11.789701385723694,-17.797361937692134,-63.6426437447352
1760682445.1204646,-13.725128689788297,-0.46546118426136024,0.7649718656251405,0.0063641642117730915,-6.70537052173681,-26.48279405459712,-70.63432508929225
1760682445.130528,-14.59890983848266,-0.4627672818025622,0.7874626373757507,0.025486118444316308,-2.417033284817898,-34.62674254583354,-77.82444959217209
1760682445.1403878,-15.525852086446134,-0.446360159094179,0.8147567417175431,0.03688801247666138,0.9351984802588814,-41.85228847039593,-84.67671960974155
1760682445.1506472,-16.49262540553795,-0.41903839287052813,0.843155093336563,0.03978731724615361,3.302144204173548,-47.80535508591895,-90.59944766297768
1760682445.160574,-17.482489281579404,-0.38481660625834363,0.8690745939998814,0.03487775249059576,4.718283808994635,-52.186833291344776,-95.02662766015104
1760682445.1703434,-18.47657752396886,-0.3484446353855159,0.8894764995008326,0.024082011704299366,5.28781954199141,-54.78824789072064,-97.5007533475122
1760682445.180506,-19.455539990556243,-0.3147639196841111,0.9022106134913416,0.010137005858072685,5.167129607377281,-55.524618748291026,-97.74327000075198
1760682445.190455,-20.401294777051312,-0.28799994392957734,0.9062291134804864,-0.003905774828275946,4.546051895519378,-54.456772927703675,-95.70020267080997
1760682445.2008467,-21.29862232790499,-0.27111753244664466,0.9016487389055855,-0.015183329272422887,3.629566524613196,-51.79595382567422,-91.55480880920922
1760682445.2105086,-22.136364247295717,-0.26536671778211157,0.8896587974070517,-0.02145557403790229,2.620715799263383,-47.886424845975284,-85.70504822179977
1760682445.2206051,-22.908068870040413,-0.2701199038000591,0.8722891106999394,-0.021412414798320883,1.7052352130054047,-43.166432487119586,-78.70995581088947
1760682445.2306376,-23.612034229682358,-0.2830488838120787,0.8520726975889683,-0.014814169511695969,1.0383959040790705,-38.113087869821655,-71.21438889995152
1760682445.240527,-24.25080820306589,-0.3006183569055172,0.8316594224579824,-0.002453590984391037,0.7348105000010536,-33.18068901412582,-63.864987748134084
1760682445.2503874,-24.830286912547685,-0.3187970037527445,0.8134491811041171,0.014041196046059717,0.8621503089566069,-28.743427614735324,-57.23082750003139
1760682445.2605486,-25.358589875771656,-0.3338333090624381,0.7993079055253679,0.03251784778788337,1.4396018183380104,-25.052147482765022,-51.74022720208597
1760682445.2705,-25.844885583684047,-0.34293144356518923,0.7904051566073839,0.05066574881369318,2.4413432889187585,-22.21166813067102,-47.641347164677306
1760682445.2806807,-26.298309572335814,-0.34469650352210957,0.7871772042844449,0.06637483791919183,3.804469317223197,-20.18123893076876,-44.98965963070315
1760682445.2906346,-26.72707721788843,-0.3392839384803781,0.7893892830049631,0.07803232690193022,5.439950882697081,-18.796801696333915,-43.66107019936444
1760682445.3006709,-27.13785662227799,-0.3282596491414225,0.7962554528777158,0.08471693017308003,7.244721181737499,-17.810459376751293,-43.3860423314462
1760682445.3103724,-27.535433428748405,-0.3142318875295178,0.8065754805348709,0.08626998813874255,9.112977423348571,-16.940201671098198,-43.79787662714001
1760682445.3205125,-27.92266396154582,-0.3003432843893481,0.8188615378386419,0.08324400732803794,10.9452375783941,-15.921722062667632,-44.487384003866445
1760682445.3304226,-28.30067329633461,-0.2897140499874231,0.8314467538148128,0.07674798666306949,12.654428450051535,-14.554183472782507,-45.056395893612674
1760682445.34056,-28.669215977242747,-0.284917108730405,0.8425843630615668,0.06822326866001366,14.169094457574518,-12.733045853284347,-45.16358696089439
1760682445.350643,-29.02709079322793,-0.2875552319369348,0.8505540562116194,0.059192784173275594,15.434466445653984,-10.465401342387688,-44.55770805583064
1760682445.360523,-29.372499363780996,-0.29800258390098056,0.8537900937361805,0.05102941212551986,16.412424583603713,-7.866319426493973,-43.095402029034815
1760682445.370487,-29.703265752779775,-0.3153579725565462,0.8510361468817488,0.04478331237881706,17.081283634558787,-5.1378947193230085,-40.74312542579158
1760682445.380758,-30.01688415233885,-0.33762290903633363,0.8415175754343023,0.041092651974550636,17.435944313588212,-2.5353075011361628,-37.564977421937385
1760682445.3905592,-30.3104203145833,-0.3620705149405089,0.8251066837910428,0.04018191916013327,17.488478866195706,-0.325786182975453,-33.70001984207994
1760682445.4008536,-30.580346422904658,-0.38573243856897876,0.8024455265116157,0.04193475862304203,17.26879183682336,1.2531148777187766,-29.333674105133152
1760682445.4106154,-30.822425904657283,-0.40591423441772234,0.774989048304853,0.04601709039455655,16.82469801429218,2.029822546033831,-24.667972468688397
1760682445.4206066,-31.031769909051846,-0.4206518431505615,0.7449420683032468,0.0520184711161489,16.220651149298625,1.924565336582033,-19.894986882134905
1760682445.4307175,-31.203148646195302,-0.42903340448218674,0.7150861697895736,0.059573810134116466,15.534479664724568,0.9613749348606527,-15.176843180572712
1760682445.440469,-31.33156061510887,-0.43132860989954225,0.688519302067016,0.06842813376490527,14.851830713881139,-0.7347332816354951,-10.634433911496377
1760682445.450392,-31.412965411895435,-0.42889556658791833,0.6683497709427813,0.07842023928701651,14.258537041030252,-2.953914930129836,-6.345326169295602
1760682445.4607317,-31.445009838044495,-0.42387430504300494,0.6573894689938028,0.08938717065289763,13.831696036277744,-5.427487853214809,-2.3496149667962962
1760682445.4706795,-31.427554102739787,-0.41872076718211415,0.6578807482292766,0.10102176336820469,13.63071555641034,-7.859210245724836,1.3390336130125493
1760682445.4807003,-31.362844489780894,-0.4156741370655158,0.6712758918103576,0.11273629888706421,13.689767524173279,-9.957294816817557,4.72075960044421
1760682445.4908497,-31.25526774180397,-0.4162722505588661,0.6980757568320212,0.12358681086706808,14.012953323251407,-11.463372431681263,7.798853202740954
1760682445.5004704,-31.110731601415395,-0.42102522780472235,0.737728740522839,0.13229484403579084,14.573111597692664,-12.175721206627665,10.573652170858692
1760682445.5106323,-30.935809249854223,-0.42932205066020657,0.7885928838813872,0.13737428432515073,15.31468724762838,-11.96519756659596,13.04204511493503
1760682445.5206892,-30.736833008231333,-0.43958570219803794,0.8479702591889702,0.13734016818149922,16.160475900596612,-10.783315411382192,15.201998423447929
1760682445.5304308,-30.519115142618357,-0.4496300059010442,0.9122300342467299,0.1309523056783996,17.02142413149769,-8.662760555287681,17.060200724157948
1760682445.540426,-30.28642262651058,-0.45712696582384527,0.977040592193154,0.1174343722580268,17.808143085879273,-5.711190288701829,18.64017081380407
1760682445.5504394,-30.040759461323514,-0.4600765236447186,1.0377269885952252,0.0966123774307191,18.442526597137736,-2.099358198882333,19.98813204962669
1760682445.5605562,-29.78243750783673,-0.4571808640185962,1.0897514457789241,0.06893854092418018,18.867868021080778,1.9554637548121387,21.174590942270566
1760682445.570626,-29.51036745156484,-0.4480605125961715,1.1292757649683831,0.035406559135403574,19.056011673177697,6.209732947210134,22.29065462506434
1760682445.580602,-29.222488311707576,-0.4332987099266665,1.1537100075544524,-0.002594332285515218,19.01026132165517,10.415952279869101,23.439337221930153
1760682445.590397,-28.916267540491887,-0.414339098858916,1.162107376213744,-0.04342581761783904,18.76314630509338,14.34453119928483,24.723112709186367
1760682445.6004152,-28.589220543749537,-0.39327164747346993,1.1552712034128634,-0.0853154284669571,18.36900476406787,17.80218653840639,26.229606965868857
1760682445.6103163,-28.239402660510738,-0.37253418523329174,1.1355179472955854,-0.12645330105639888,17.892688785763063,20.6445168367881,28.017616298685336
1760682445.620763,-27.8658203286086,-0.35455680866592176,1.1061618008568546,-0.16510584991107166,17.396997465336767,22.781882592457716,30.10570774399001
1760682445.6303802,-27.46870349821784,-0.3413907443365945,1.0708853424366553,-0.19976539543983113,16.931971738320737,24.179146491487558,32.46552564973057
1760682445.6405487,-27.0495907074082,-0.33437951204381133,1.0331822496133511,-0.22931895305978522,16.52859353269814,24.850538354069446,35.02148539037888
1760682445.650442,-26.611206744111637,-0.3339348184948618,0.9959991697986468,-0.2531896850750225,16.197965851200237,24.8509959797237,37.65765185771267
1760682445.6604784,-26.15715309617348,-0.3394659685596524,0.9616059062742768,-0.2713975066709819,15.935313237818931,24.26520273735657,40.23132846151335
1760682445.6703894,-25.69146754503716,-0.3494804185265378,0.9316376183918919,-0.28450459884872764,15.726771333772549,23.195464229538768,42.59150105150233
1760682445.6804345,-25.21812951858063,-0.3618340153419675,0.9072117947326573,-0.2934486540128974,15.55637359192582,21.74959007860384,44.59916943414376
1760682445.69055,-24.74059124087651,-0.3740771003002509,0.8890310393286834,-0.299305407871485,15.41100738159353,20.03000980129109,46.14607244450512
1760682445.7007325,-24.26140544397065,-0.3838266375669373,0.8774249708701658,-0.3030460380259073,15.282160406663767,18.125331447178453,47.168541631226645
1760682445.7106156,-23.78200051204471,-0.3890952697552306,0.8723360872872569,-0.3053550210265991,15.164544020472443,16.105313568799144,47.654191449422235
1760682445.7204611,-23.302625028255303,-0.3885225808351603,0.8732907384159564,-0.3065511096349329,15.05270026730056,14.01972576036155,47.64063286365841
1760682445.7305589,-22.822452654565733,-0.3814799131084063,0.8794029671960935,-0.3066182965138549,14.937202202195943,11.900932941813855,47.206961427699845
1760682445.74084,-22.3398159506419,-0.36805279964467463,0.8894385480764193,-0.3053198353579205,14.801999305984006,9.769441412355926,46.460001007834165
1760682445.7503283,-21.852529498559733,-0.3489320562243471,0.9019356334971734,-0.3023498312987041,14.623962505693424,7.641231821492015,45.51795172725277
1760682445.7603712,-21.358263405353473,-0.32525450865179056,0.9153554970805834,-0.2974778636253946,14.374946475235319,5.535512646947855,44.49418977449767
1760682445.7706573,-20.854929777775123,-0.2984289052639231,0.9282312766817381,-0.2906560225753053,14.025928224049947,3.4815222762057947,43.48361854634741
1760682445.7804506,-20.34104453007779,-0.2699721105453631,0.9392918490834432,-0.28207423499021544,13.552199609292938,1.5231590196860205,42.55332289561183
1760682445.7908127,-19.81602683430373,-0.2413710773189327,0.9475524256629667,-0.2721626287163285,12.938332330012711,-0.27946551107973866,41.738457639400494
1760682445.8003523,-19.280401630192816,-0.2139780556319902,0.9523738704831923,-0.2615480567885954,12.181741064895256,-1.8519795423584935,41.043416158071864
1760682445.8106632,-18.735880166334248,-0.18894097085897624,0.9534951643448508,-0.2509769047718398,11.294065281570099,-3.111080736265034,40.44749481078338
1760682445.82042,-18.185310737150655,-0.1671678399256981,0.9510397091733724,-0.24121903545624343,10.300115656933416,-3.9725756212656727,39.91362543731468
1760682445.8304098,-17.632513066690308,-0.14932135624383042,0.94549120483193,-0.23296881681301912,9.234631427155184,-4.361022460962972,39.398384261424326
1760682445.8404605,-17.082028467692936,-0.1358361880921848,0.9376332868822661,-0.22675866814687876,8.137471125697042,-4.219563702075736,38.86142521473493
1760682445.8505611,-16.538828126070385,-0.12694813930966606,0.9284510989838983,-0.22289822442380489,7.048075699800786,-3.5184101879389145,38.27271417574751
1760682445.8604577,-16.008021643613866,-0.12272330542617152,0.9190014980635929,-0.22144813155631837,6.000105660564526,-2.2605703805378865,37.61643239309222
1760682445.870366,-15.494599594278286,-0.1230785357894177,0.9102682735100636,-0.2222319598413854,5.017079408697824,-0.48383398862189253,36.891117255348426
1760682445.8804357,-15.003231650155831,-0.12779125232496222,0.9030253995473712,-0.22488311973167432,4.109645697198166,1.741341740661457,36.10640464993836
1760682445.8905075,-14.538129140413556,-0.1365032052666791,0.8977321015530136,-0.22891696859329957,3.274842403580312,4.317680716387127,35.27746956926075
1760682445.9004865,-14.102968584110894,-0.14872508786646607,0.8944784836706359,-0.23381360409349497,2.497381028207181,7.1296957923895405,34.418762088604495
1760682445.9107018,-13.700860760964028,-0.16384696068183946,0.8929919931439273,-0.23909603357709572,1.7527082588666485,10.053705243986423,33.53877642175986
1760682445.920661,-13.334339610579281,-0.18115620340327004,0.8927053458453648,-0.2443911371645406,1.0113689246217261,12.967835090990969,32.63732346633402
1760682445.9305024,-13.005339289928862,-0.19986220890210793,0.8928764247593337,-0.249464996858165,0.24404007075281525,15.760787101593616,31.70615351668996
1760682445.9406714,-12.715128775348845,-0.2191254885450818,0.8927404054989249,-0.2542284975485696,-0.573479171688886,18.33852746123797,30.73294191889169
1760682445.9505363,-12.464183676705368,-0.2380887725284495,0.8916657952456456,-0.25871409808346946,-1.4560540844959344,20.628483731557466,29.707808871442282
1760682445.9606352,-12.251994342545704,-0.2559091943560864,0.8892827603094674,-0.26303068028897025,-2.406445226089961,22.58125259066562,28.630890820813686
1760682445.9704955,-12.076833287477028,-0.27179217597389554,0.8855574449998654,-0.26730906812097704,-3.4144795753402137,24.170163251452237,27.51915590382178
1760682445.9807158,-11.935525903885708,-0.2850276236792669,0.8808001581985826,-0.2716537039369813,-4.458359013148832,25.389257027897628,26.41072730360211
1760682445.9904985,-11.82328050475845,-0.29502797257125,0.8756137716081441,-0.276114136970005,-5.507904570616564,26.25031261559124,25.365425897262497
1760682446.0006895,-11.733635501711092,-0.3013670359404086,0.8708041542593679,-0.28068318496959616,-6.529129119872756,26.77950289228193,24.460953003223604
1760682446.0103245,-11.65857409570606,-0.30381892557721046,0.8672811235877488,-0.28531881565169515,-7.489246192744311,27.014157138796065,23.784933416960133
1760682446.0207636,-11.588840795417752,-0.3023959389571787,0.8659746153687906,-0.28997767005889746,-8.361159819994969,26.999938084499412,23.423762785102994
1760682446.0303755,-11.51446825153462,-0.29738109990514516,0.8677792279622732,-0.29464323726733355,-9.126671092125124,26.78852750996786,23.44973475120109
1760682446.0403926,-11.425487176934702,-0.28934503762247016,0.873526066740388,-0.2993321202860554,-9.778027706981845,26.43567271671667,23.908206020369995
1760682446.05041,-11.312751989089056,-0.27913194891847565,0.8839689442099313,-0.3040665840352543,-10.317904577904367,25.999237962873565,24.806593764507312
1760682446.0606046,-11.168782212899199,-0.2678005529697897,0.8997657752008554,-0.3088095733532561,-10.758286674042871,25.536804329272098,26.10682056888195
1760682446.070453,-10.988506335726553,-0.25651424729591715,0.9214368012594873,-0.31336913161289365,-11.118922797245519,25.102437779207296,27.72244480721186
1760682446.080526,-10.769804203883943,-0.24638639983555563,0.9492889972200094,-0.317291337170641,-11.4259884509822,24.74253577933421,29.521143249466498
1760682446.0907505,-10.513772201564404,-0.23829888764371732,0.9833091998801349,-0.319771585755975,-11.711356212020762,24.491127957069775,31.332490284952957
1760682446.1006477,-10.224676835961628,-0.23272426064820234,1.0230440957847242,-0.31961963520946907,-12.012508250857037,24.36549640808635,32.96023263162408
1760682446.1108081,-9.909609989434797,-0.2295909517422036,1.0674983993930418,-0.31531136628254774,-12.372767164867447,24.363271235649574,34.19768079203436
1760682446.1204662,-9.577901929984947,-0.2282296298830845,1.115087569594191,-0.3051482667032576,-12.841279541556865,24.46205682412236,34.84457088426863
1760682446.130696,-9.240375369724024,-0.22742426378902045,1.1636744100869227,-0.28752432800452804,-13.4721164723274,24.62211917340376,34.7237926827122
1760682446.1406,-8.908531688459307,-0.2255690389444752,1.2107010912170844,-0.2612716354004843,-14.321963581966767,24.791862194146667,33.69662664201518
1760682446.1506197,-8.593752520603758,-0.22090987965129188,1.253405940370416,-0.22602647273574947,-15.446125365336139,24.914996575553758,31.675461211999718
1760682446.1608207,-8.30658275518529,-0.21183215890989301,1.2890960373323148,-0.18253650291457413,-16.892887948708708,24.937733326528168,28.63324559298755
1760682446.170429,-8.056140870249662,-0.19714665313158514,1.3154367848551574,-0.13282455341391702,-18.696587261198996,24.81425317562868,24.609049026450442
1760682446.1805563,-7.8496846146574795,-0.17632555344343676,1.3307160130456128,-0.0801392854758722,-20.869972768698045,24.509241131477147,19.70900943358748
1760682446.1904953,-7.6923480074681265,-0.14965048883118298,1.3340384573280677,-0.02865778696257535,-23.39664193796875,23.997352392847667,14.101791205671686
1760682446.2004342,-7.587060254495305,-0.11825358367183274,1.3254082383915884,0.017043104426321017,-26.224466671351784,23.260743628520046,8.007689072251715
1760682446.2104473,-7.534655410668101,-0.08405441073337147,1.3056708049708323,0.0526714273018926,-29.261060020494384,22.286689623824994,1.6809502267233896
1760682446.2205842,-7.534177380110084,-0.049611062517407614,1.2763173425672976,0.07493772840105736,-32.37244833781682,21.067227203990694,-4.614174958192572
1760682446.2307181,-7.583372438766003,-0.017907033664801723,1.239196083558005,0.08216228955287377,-35.386173280381456,19.601543931904974,-10.631825934436476
1760682446.240811,-7.679339668742302,0.007908722770947169,1.1962071339999256,0.074641537952403,-38.09990206658251,17.899989014682312,-16.17416526667716
1760682446.250676,-7.819283182510642,0.024814070455063144,1.1490640040382811,0.054686126534668235,-40.29608429589819,15.987144827121195,-21.11806025464081
1760682446.2605624,-8.001285968117664,0.0302205858473734,1.0991827971956907,0.026306488812789356,-41.762182986347305,13.901164482406749,-25.43439833644166
1760682446.2704718,-8.225008342208374,0.02227094604151951,1.0477175348725893,-0.005408090013764019,-42.314672946490724,11.68763583249227,-29.19626459582409
1760682446.280661,-8.49220599192722,9.804137249715524e-05,0.9957120262708844,-0.035108923568617334,-41.823692157513086,9.388054098237133,-32.57353781617928
1760682446.2905958,-8.806965589865214,-0.03598401288946031,0.9443015444236015,-0.05805717797358105,-40.234368757741315,7.024944555136945,-35.81319349488238
1760682446.3008947,-9.17557446454103,-0.0843855596114296,0.8948839471492132,-0.07088251984770706,-37.580744404046904,4.587354639048194,-39.206494149945364
1760682446.3107047,-9.605978507043975,-0.14226907461066504,0.8491922293589514,-0.0720908978059972,-33.989011704504776,2.021534305167754,-43.046133510699384
1760682446.3206425,-10.106837896165718,-0.20571575044129414,0.8092310145041535,-0.06223035088382823,-29.66842452246465,-0.7682948611670494,-47.578152271247546
1760682446.3307402,-10.686255433860202,-0.2700319613767926,0.7770770419237295,-0.04369224038860981,-24.890446349605437,-3.9056932983538997,-52.95485984633897
1760682446.3407416,-11.350315941136197,-0.3301762141752084,0.7545795262723269,-0.02019738388204775,-19.958980405634193,-7.514217616732869,-59.195770471112034
1760682446.350546,-12.101626497313582,-0.3812695719553432,0.7430237099272828,0.003924917093641164,-15.176290300684384,-11.68044550633112,-66.16338330748988
1760682446.3604796,-12.93807722057607,-0.4191409126767418,0.7428340877420885,0.02452392061568021,-10.809971138655055,-16.416025163559734,-73.55933638767517
1760682446.370643,-13.852041705434047,-0.44084869306225066,0.7533891888838293,0.03833570834587609,-7.065853672174917,-21.628605560134815,-80.94405870122084
1760682446.3806386,-14.83019678833971,-0.44510930233803225,0.7729981995931072,0.04349125097373142,-4.070245018996492,-27.11021823227143,-87.77973043326813
1760682446.390632,-15.854061074919976,-0.4325534789225144,0.7990559765171341,0.039747940476045,-1.8629990163731514,-32.54800926052492,-93.4925689239328
1760682446.4007852,-16.90124119845853,-0.4057385857339941,0.8283552833278272,0.0284250703380254,-0.40115223634539765,-37.557402785790835,-97.54684591782758
1760682446.4105816,-17.947256666000985,-0.3688751891590915,0.8575021814344428,0.012079200774087612,0.42841136235910326,-41.73300175480816,-99.5203191557142
1760682446.4206944,-18.967714458053468,-0.32727903979610795,0.8833589298077239,-0.006002406848011621,0.7895638884039341,-44.70862490465152,-99.16950027596327
1760682446.430814,-19.940542599440555,-0.28661952700503573,0.9034332845834169,-0.022389999384722734,0.8735072901756239,-46.21548216762393,-96.47376241414193
1760682446.4408782,-20.847976661461086,-0.252085268105241,0.9161471379985269,-0.03407974259311314,0.87424002277764,-46.12721489830909,-91.64987846474531
1760682446.4506972,-21.67802658379755,-0.22761497999349142,0.9209483943632147,-0.038956342839914136,0.9659042648206485,-44.48271923938868,-85.1330009592107
1760682446.46057,-22.425230480671814,-0.21534120374754454,0.9182664336542807,-0.03608937919267023,1.2847751995626664,-41.482009108414836,-77.52568466735538
1760682446.470652,-23.09061606277749,-0.21536211626034912,0.9093399733264356,-0.02583221005741813,1.9179744345101295,-37.455825406881,-69.52219171977525
1760682446.48249,-23.68091679304116,-0.225892789831304,0.8959609345832552,-0.009720971837640254,2.8998811658827246,-32.8149290027423,-61.81975218563832
1760682446.4905114,-24.207200765638152,-0.2437616338884108,0.8801822900411695,0.009803285815653241,4.215947745305785,-27.98885781306279,-55.03069854373985
1760682446.5006936,-24.683142009645834,-0.26513361509984024,0.8640361430021288,0.029804759236246675,5.812533511240499,-23.36559682314814,-49.608965204572435
1760682446.5115902,-25.12318607318175,-0.2862895698297857,0.8493003659754801,0.04733424149063825,7.610629697061323,-19.242824377132767,-45.80148133958947
1760682446.5215979,-25.54083974807365,-0.3042901757852758,0.8373367557453361,0.0599101915755321,9.520967963089875,-15.798488109011881,-43.63029148518411
1760682446.5307727,-25.947266180115367,-0.3174000125870379,0.8290039898030781,0.06592473442108072,11.45796662509956,-13.084259601012803,-42.90600274411502
1760682446.5407515,-26.35031033909033,-0.32521882095177534,0.8246317746843155,0.06490563924052024,13.350296705820032,-11.04092777154992,-43.26844622346376
1760682446.5510566,-26.754024337645777,-0.32853713928466216,0.8240348851501536,0.057583817743384134,15.1465527279346,-9.530919661701116,-44.24691953530438
1760682446.5607905,-27.15870443246785,-0.3289843860119243,0.8265498005379344,0.0457480696954518,16.815521266922214,-8.380519024795156,-45.33034817406297
1760682446.5709043,-27.561388485316986,-0.328563449722171,0.8310894431332707,0.031909561954831904,18.341705122509666,-7.423281632655258,-46.03720875792735
1760682446.5812457,-27.95669999529917,-0.32916951284714885,0.8362255140664263,0.018837832726028906,19.717852725316636,-6.536601133832907,-45.97594995741695
1760682446.5910888,-28.337875983927933,-0.33217883873593895,0.8403147317813269,0.009058023180209096,20.936958012595458,-5.665139808078408,-44.88864295238817
1760682446.6006677,-28.6977946938389,-0.3381721172860703,0.8416798566848904,0.004409333733786217,21.98625346018458,-4.827583345005147,-42.67331568194675
1760682446.6105933,-29.02983334396109,-0.34683066488067676,0.8388391294929644,0.00575450008399594,22.84501566313517,-4.106482426952362,-39.38347861745345
1760682446.6206427,-29.328436565735267,-0.3570159799065644,0.8307553167790184,0.012898982517285064,23.486724455535022,-3.6242148437115396,-35.20640579947545
1760682446.63055,-29.58935461025542,-0.3670178246576695,0.8170585080424496,0.024730667371546014,23.88470917438598,-3.5106352953926647,-30.424538878122995
1760682446.6405547,-29.809598553585204,-0.37493293321285465,0.7981936628690772,0.03953722226343843,24.019398758153102,-3.8692032324696237,-25.366653497773132
1760682446.6509013,-29.98722965000174,-0.37911198046239714,0.7754565817138286,0.05541522648383765,23.884987481763574,-4.7481272492438,-20.356773990768048
1760682446.6610036,-30.12112484224146,-0.378589018355532,0.7509057736179805,0.07066741978809234,23.49370255183264,-6.121626919873287,-15.66884735034469
1760682446.670753,-30.210831494513716,-0.3733974392653879,0.7271641576769309,0.08409622422299487,22.876626672048566,-7.884288551084247,-11.493781543493482
1760682446.6808455,-30.25655887804696,-0.364691358445223,0.7071449077181057,0.09513575488140079,22.080889299621095,-9.859121763686884,-7.9229480748676675
1760682446.6909556,-30.259284013602425,-0.3546307671069353,0.6937438893460569,0.10380854516112852,21.163828975777307,-11.817653264054616,-4.949225787954707
1760682446.700966,-30.220902269963222,-0.34604068985886455,0.6895359764343181,0.11053626613464948,20.185371131522288,-13.50854173566295,-2.4836873915025937
1760682446.7125509,-30.14433833944463,-0.34190361306972383,0.6964996383776445,0.11586702049704131,19.200267439264564,-14.690036328209,-0.3835845212011308
1760682446.721624,-30.03354578325429,-0.3447803710566003,0.7157831134831405,0.12019790217567779,18.251879377173708,-15.161281081926923,1.5142346548346297
1760682446.7307541,-29.89335349476183,-0.35627302585137466,0.7475227521654545,0.12356674326383695,17.368807484032434,-14.787986518198014,3.360724843536649
1760682446.7407823,-29.729156054897846,-0.37664033946351555,0.7907288046562682,0.12556405907984813,16.564965144844358,-13.519191181893625,5.268383888980062
1760682446.7517307,-29.54648276341829,-0.404648978835985,0.8432602219837277,0.1253827894315938,15.842875514015091,-11.39342594759434,7.295249982196431
1760682446.7609153,-29.350508408896808,-0.43769603985957,0.9019122465583395,0.12198816973215343,15.199246451409374,-8.534213471200053,9.440928745702777
1760682446.7707953,-29.14558281709905,-0.47218425234978845,0.9626353414292039,0.11436049678082243,14.631410236929728,-5.13617919390231,11.654150199760387
1760682446.7808867,-28.934855077989102,-0.5040829983232202,1.0208901720832055,0.10174582557669021,14.143083653133763,-1.4439606522365382,13.84935336468715
1760682446.7909272,-28.72005205643682,-0.5295714024542038,1.072121714781776,0.08384842099873292,13.748105172158501,2.2734241263189974,15.928401163748234
1760682446.8011243,-28.50144063999301,-0.5456389105686228,1.1123082338687336,0.06091687702252018,13.471246709460207,5.749953169665869,17.802972910953873
1760682446.8108299,-28.27796693047818,-0.5505255926715654,1.1385099221630814,0.033711315759331194,13.34573094392909,8.748974189244608,19.413510584688407
1760682446.8207762,-28.047537359598223,-0.5439273931274535,1.149312041159823,0.00337949298044156,13.407608944606434,11.08590449013614,20.741585441816508
1760682446.8305073,-27.807396345012904,-0.526955935569048,1.1450437825568403,-0.028707362424451564,13.687698818838971,12.644713167136661,21.813835695427745
