timestamp,angle,linear_acceleration_x,linear_acceleration_y,linear_acceleration_z,angular_velocity_x,angular_velocity_y,angular_velocity_z
1760681810.133422,-3.9742835360136106,-0.07490545923767693,0.9438909058686951,-0.24641906160559565,5.813083041685893,-13.780846485287869,14.126953811408132
1760681810.1430094,-3.868262370024451,-0.07834064041549006,0.9472484248668169,-0.25340665963558695,5.423827115140964,-15.582502415206852,14.02131916949929
1760681810.1529531,-3.7734355302513274,-0.08085118397533078,0.9523749971384977,-0.26052217880793704,4.9735234464463,-17.07909654507853,13.690041512585822
1760681810.162679,-3.6888272270733733,-0.08247992692172869,0.958911361861335,-0.26753714102604403,4.467362654131716,-18.162372737694994,13.143495317698017
1760681810.173209,-3.6134581958703014,-0.08322331823091715,0.9663460355694674,-0.2742055603560168,3.9128093166851174,-18.75869205474135,12.410772797292369
1760681810.183081,-3.5460420105454977,-0.08300357254269342,0.9740591063975421,-0.28027110647301196,3.3196724958661483,-18.838301560166677,11.540016168260463
1760681810.192946,-3.4846982683021497,-0.08167980453496976,0.9813793265228595,-0.2854830580948277,2.700141002003286,-18.41895888808174,10.596561525969365
1760681810.202757,-3.426767395016009,-0.07908816119290778,0.9876495004202781,-0.28962080115632804,2.0685996317952235,-17.563438393394307,9.658821819736565
1760681810.212943,-3.3687722388930665,-0.0750920146339705,0.9922936470000524,-0.2925207915354976,1.441029915634716,-16.371372123368843,8.812195718988256
1760681810.2233143,-3.3065317239761143,-0.0696251302957069,0.9948789031042092,-0.2940980474158665,0.8338932834683008,-14.966652960609284,8.141604968436582
1760681810.2333844,-3.2354073501776597,-0.06272014158645618,0.9951653167738561,-0.2943569837311427,0.2625628182443923,-13.482130515824199,7.723476757223115
1760681810.2430165,-3.150655999581908,-0.05452429001247956,0.9931372985696018,-0.2933908731445619,-0.26046403873501844,-12.043554527988297,7.6180778200122425
1760681810.2529538,-3.047861497689967,-0.04530772914063863,0.989011449149959,-0.2913721232051405,-0.7272516311087482,-10.754717555187815,7.863079528245466
1760681810.2630012,-2.9234096655529886,-0.035465572530335256,0.983216953833579,-0.288535765607938,-1.1357150978688484,-9.685561051638814,8.469103634410114
1760681810.2729251,-2.7749546213977583,-0.02550851916000782,0.9763475658239041,-0.28515717168214066,-1.4903213051561057,-8.864654348494481,9.417782010181721
1760681810.283005,-2.60180903870442,-0.01603532862407576,0.9690890741092624,-0.2815240102945041,-1.802124520011218,-8.276949819184582,10.66257767763067
1760681810.2929454,-2.4051922223907884,-0.007685657901211214,0.9621319454482338,-0.27790325976867114,-2.088128442987223,-7.8670901493482805,12.132289014204677
1760681810.3029807,-2.188290725290187,-0.001079316602360027,0.9560828292062311,-0.2745065411463839,-2.369992643828818,-7.547853660957717,13.73684807389421
1760681810.3129513,-1.9561175073358072,0.003247680409515037,0.9513890297539364,-0.271459581387372,-2.672125857933921,-7.212662662627949,15.374785241950581
1760681810.3227088,-1.7151859872190578,0.004899745579401496,0.9482874939312415,-0.26878264217725306,-3.019261901547932,-6.750554146458753,16.94159407883041
1760681810.3329706,-1.4730405616724707,0.00366179576561161,0.9467859245051143,-0.26638790386042877,-3.4336952282952127,-6.061707213833141,18.338190664989746
1760681810.3430173,-1.2377050511240266,-0.0004848889186267526,0.9466787921835604,-0.2640976512387431,-3.9324444655443775,-5.0715755068020165,19.47871101957035
1760681810.352971,-1.017120878864351,-0.0073746469466589954,0.9475949460059063,-0.26168410922168295,-4.524694613612569,-3.7418765453622065,20.297015197658457
1760681810.3629532,-0.8186409177566883,-0.016693490842229024,0.9490672882402553,-0.2589279135977497,-5.209917529545516,-2.0771050418703334,20.75144819206967
1760681810.3729749,-0.6486211666220074,-0.0280274751765561,0.9506112788158406,-0.25568754747943534,-5.977052743541848,-0.12580671979735714,20.8276205011549
1760681810.3829734,-0.5121161643429981,-0.0409063747209239,0.9517995238438473,-0.25196737638508343,-6.805019428468538,2.0235088648404447,20.539182653961827
1760681810.392947,-0.41264736269529734,-0.05482605894014757,0.952323432608462,-0.24796868583449058,-7.664623674585719,4.2513194325212735,19.926736377780195
1760681810.4029737,-0.35199496906691763,-0.0692418140754008,0.9520375928322229,-0.24410809787027812,-8.521658168906955,6.419888276278742,19.055103500342078
1760681810.4129856,-0.3299785102741537,-0.0835408219272904,0.9509861139977109,-0.24099202730148334,-9.340735791062473,8.388507342163958,18.009134684470048
1760681810.4230258,-0.34423699474631764,-0.09701656680501397,0.9494117679633575,-0.2393439360412337,-10.089240343122073,10.02953061712507,16.88811695037922
1760681810.4328148,-0.3900731299205008,-0.1088715095177833,0.9477486243395113,-0.2398905113597326,-10.740776238579443,11.24340670496554,15.798731113772316
1760681810.4426904,-0.460458554859645,-0.1182641041486462,0.9465980150591361,-0.2432204463879427,-11.277660363200841,11.970902780658681,14.846525632112822
1760681810.4529655,-0.5462901863032672,-0.12439734370340277,0.9466868461643398,-0.24963405477506193,-11.692270732979846,12.200870298818689,14.126061332781756
1760681810.4630075,-0.6369426524356584,-0.12662806160476478,0.9488073279582679,-0.25900452737842533,-11.987349587107108,11.972304584249198,13.710214956509484
1760681810.4729843,-0.7210966317424846,-0.12456794476744289,0.9537393471175678,-0.27067347738204,-12.175548887262606,11.370114615005596,13.63952752575191
1760681810.4829836,-0.7877617460622868,-0.11815154068685828,0.9621611838967231,-0.28340435482374304,-12.278547142310089,10.514882016624497,13.912842646865506
1760681810.492977,-0.8273728555212898,-0.10765910216413,0.9745588856540504,-0.2954157311749729,-12.32597344446579,9.547805386124047,14.480699124760015
1760681810.502999,-0.8328258949860965,-0.09369541686475641,0.9911463037633309,-0.30451031402470297,-12.354215614924987,8.612811399789129,15.242943889861573
1760681810.5127304,-0.8003301500185322,-0.07713444894153729,1.011805842589224,-0.3083035989381615,-12.405045580358387,7.838296580634867,16.051774405028144
1760681810.5227914,-0.7299792772855156,-0.059041929013961436,1.0360564877337481,-0.30453850267070764,-12.523925197303464,7.3210273302829885,16.72090299601294
1760681810.5328536,-0.6259737573370052,-0.04058498790663145,1.0630530566370795,-0.2914508908225743,-12.757873305965342,7.114344776403713,17.040792652961176
1760681810.542975,-0.49645719867105137,-0.022932855805886183,1.091618910236601,-0.2681292158865588,-13.15284843055827,7.222093081074009,16.79901817125451
1760681810.5527966,-0.352958896577691,-0.007150043669052042,1.1203117325088545,-0.23479576379927275,-13.75068155914732,7.598815659418369,15.803880910506425
1760681810.5628119,-0.20946983833015584,0.005913697827846976,1.147517597968834,-0.19293590753596174,-14.585645454684903,8.155951369572973,13.908612763649197
1760681810.5728836,-0.08122110454187573,0.01572483555088939,1.1715643215387448,-0.14522261068485806,-15.680768871239515,8.773129387620525,11.03301408334858
1760681810.582857,0.016721772426110712,0.022139593942074796,1.190843755398158,-0.09522555246716453,-17.044026201414283,9.313203797368308,7.1793203007322
1760681810.5930142,0.07089707842492908,0.025428334226732126,1.2039347606437472,-0.04694564056370939,-18.66460597805476,9.63931809990497,2.4395589448475214
1760681810.6029458,0.07074662174553398,0.026236362298649497,1.2097215491345208,-0.004258617305975906,-20.509620411783736,9.63200929795592,-3.007373399085311
1760681810.6131585,0.009612547521907246,0.025480650792267533,1.2075022601694758,0.02962734352527356,-22.521832548912947,9.204205708010823,-8.909327148159866
1760681810.622885,-0.11469801140529684,0.024196668351013174,1.1970782227264596,0.052599813799834326,-24.61914317636809,8.31206348794333,-14.964071560944182
1760681810.6327953,-0.29985378187436573,0.023358500031065155,1.1788079798226447,0.06388300707406493,-26.696578545528265,6.960036187150223,-20.849425725639563
1760681810.642913,-0.5394541441746942,0.023697971988173493,1.153607804067232,0.06405978494857895,-28.63129400872535,5.199406565536853,-26.256689355433352
1760681810.652883,-0.8239422619621676,0.02554917672367722,1.1228869490230513,0.05488788829427584,-30.290680022045677,3.1206200886263136,-30.923234422347413
1760681810.6627195,-1.1418638455919463,0.02874571389467373,1.0884205188125862,0.03896106882230136,-31.543109011927072,0.8408934882869546,-34.66023446648745
1760681810.672912,-1.4813147516763,0.03259523940001318,1.0521788034189827,0.019288898226753483,-32.270316039492286,-1.5105964609049483,-37.37214999323481
1760681810.6828077,-1.8313964156983678,0.03594584553435561,1.0161413942212725,-0.0011256860875438477,-32.3800017215486,-3.807383924488517,-39.065676089893756
1760681810.6928117,-2.1834982199788886,0.03734324990702686,0.9821244077718028,-0.01964367295355493,-31.817092967877922,-5.938082867013063,-39.84725660848605
1760681810.702875,-2.5322496902679235,0.035261721484468704,0.9516418679173341,-0.03423827201118574,-30.57221681912859,-7.815149079417868,-39.909737312935384
1760681810.7129693,-2.8760282806918678,0.02837817793517031,0.9258117234013399,-0.04361868732308283,-28.686257424274007,-9.379683465448405,-39.509994113952594
1760681810.722798,-3.2169647210227303,0.01584815924728407,0.9053072756319815,-0.04723976589007049,-26.250265410061655,-10.602649402521541,-38.94025345689481
1760681810.732893,-3.5604525544107015,-0.0024658219270907735,0.8903488118856583,-0.045225819119518076,-23.400395864457135,-11.483236790855802,-38.49628728849152
1760681810.7427843,-3.91423705095079,-0.025866898078392115,0.8807278465832604,-0.03824345509763617,-20.307944039294394,-12.045156513717094,-38.4457915824162
1760681810.752834,-4.287223702057604,-0.052844666725287606,0.8758560657506717,-0.027353870541107987,-17.16496226752267,-12.331537801441119,-39.00016581487339
1760681810.7629893,-4.688194410827672,-0.08126806002493887,0.874832878958788,-0.013864484334259974,-14.166454055081898,-12.39894282495991,-40.292668997558856
1760681810.7730234,-5.124633827017712,-0.10873279053271385,0.8765300332596948,0.0008107143762661805,-11.490794440048505,-12.310865178508799,-42.365468277136834
1760681810.7828765,-5.60183996678569,-0.13299908895264825,0.8796966058296362,0.015279353010831297,-9.280718935263161,-12.131008723776723,-45.167265801084596
1760681810.7929373,-6.122428181351819,-0.1524226823809762,0.8830868996195744,0.02828674924922205,-7.627681008911065,-11.91674607051358,-48.561925355201936
1760681810.8028765,-6.68625434623964,-0.16627754069948122,0.8856033727734025,0.038817657054485366,-6.5622813806667795,-11.713446511937498,-52.3469756524167
1760681810.81283,-7.290705357462749,-0.17489537261822774,0.886431350990864,0.046177594210801254,-6.0526692933263675,-11.55066154538099,-56.27938391255026
1760681810.8228557,-7.93125195461412,-0.1795943190015752,0.8851337267581139,0.050043563611619296,-6.011412243330213,-11.441145230166653,-60.10495061706593
1760681810.8329968,-8.602137707810911,-0.1824196490951296,0.8816811167030092,0.050472835743235134,-6.309638212365862,-11.383153586200631,-63.587298727260396
1760681810.8432517,-9.297082930091408,-0.18575644767098523,0.8764134009919546,0.04786402695094947,-6.795734439049257,-11.365539314701524,-66.5327084785398
1760681810.8530612,-10.009902790521458,-0.19189226056700634,0.8699498615057571,0.042877975880959235,-7.315067603820234,-11.374287542347918,-68.80785368796182
1760681810.862862,-10.734967723228802,-0.2026080582300027,0.8630758061972135,0.036340497842798705,-7.727412729714196,-11.398781225392671,-70.34869062142747
1760681810.8730664,-11.467467561403305,-0.21886266381640646,0.8566311582608132,0.029153440786981843,-7.919898962786599,-11.43635600757801,-71.1601365810795
1760681810.8829627,-12.203475174050288,-0.24061480555449538,0.8514160973238678,0.022228998848635533,-7.814708326100065,-11.494345538845712,-71.30747360854564
1760681810.892754,-12.939837052197252,-0.2668046938539986,0.8481170823393595,0.016442847737259157,-7.371877782907938,-11.589465027854718,-70.90140784013768
1760681810.9027464,-13.673944172775466,-0.2954960790328778,0.8472483798749689,0.012589057984779896,-6.588090971113883,-11.744822778160405,-70.07933930128577
1760681810.9129667,-14.403453255609723,-0.32415852447989585,0.8491023667705411,0.011322142516897702,-5.492421382347018,-11.985090527297492,-68.98564892914682
1760681810.9229782,-15.126032412145921,-0.35004794323658434,0.8537064137551852,0.013085219842369494,-4.139874412791414,-12.330521584683229,-67.75367991664787
1760681810.932955,-15.839193946948463,-0.37062530976588576,0.8607917635587835,0.018037839696411692,-2.6034804434925043,-12.79067346953443,-66.49158896532393
1760681810.942996,-16.540252449814723,-0.3839444728295429,0.8697853935014236,0.026004340145417453,-0.9656860550222381,-13.358852066420777,-65.2734527184133
1760681810.9527586,-17.226414513597852,-0.38894464378240035,0.879835939415971,0.03646164141973854,0.6901649952286381,-14.008337551076385,-64.13609697154537
1760681810.9629412,-17.894976423413304,-0.3856028061899345,0.8898795125169761,0.048576885699477906,2.2874702050901146,-14.691270866875618,-63.08125559875808
1760681810.9731636,-18.543585718835647,-0.374931148546284,0.8987432586621393,0.06129445801026313,3.7624593811559337,-15.34066690320317,-62.08199278905487
1760681810.982879,-19.170514138593855,-0.3588340253327867,0.9052764170406234,0.07346175321004941,5.068319107130542,-15.875495210766566,-61.09187947319152
1760681810.9928591,-19.774890664407437,-0.3398583595564521,0.9084919097180973,0.08397524204853966,6.177225362808396,-16.20830299152028,-60.055197851863696
1760681811.0028975,-20.35685040637571,-0.32087824097019924,0.9076969682596284,0.09192406236780634,7.080400256074497,-16.254566668889318,-58.916468247707535
1760681811.0127702,-20.917565396849096,-0.30475237430148616,0.9025902503389557,0.09670831184262678,7.786440793132072,-15.942845279370236,-57.627887100761804
1760681811.0231254,-21.45913637506725,-0.2939882297551187,0.8933069542433768,0.09811322812709616,8.318215173587076,-15.224761265198543,-56.153829483568465
1760681811.032967,-21.98434139782421,-0.29044480062890815,0.8804027999053852,0.09632743456076188,8.7086688190982,-14.083732649628072,-54.472291073117006
1760681811.0427613,-22.496258493373762,-0.2951077682594565,0.8647797644615102,0.09190234818211901,8.995987814279136,-12.541218957440362,-52.57381407788257
1760681811.0528498,-22.997803610914616,-0.3079712992071926,0.8475669167823723,0.0856594946801777,9.218702711205927,-10.65916405475318,-50.458856912132994
1760681811.0629933,-23.49124621534613,-0.32805230031497756,0.8299756293897418,0.07856093464719963,9.411385125741553,-8.537522189314599,-48.13465368412355
1760681811.0727923,-23.977775974213692,-0.35354263499516203,0.8131496885505239,0.07156355579413369,9.601514180066586,-6.306357947785442,-45.6124391320048
1760681811.0830529,-24.457189768595786,-0.38207615991720073,0.7980292503849901,0.06548039309018075,9.80787003283299,-4.112961101458761,-42.90560195420435
1760681811.0931537,-24.927748019919605,-0.41106039393607896,0.785245237223296,0.0608719343105044,10.040519972811293,-2.1054794713904714,-40.02894080872053
1760681811.103039,-25.38621812759969,-0.43800958671411144,0.7750582585268474,0.05798707273099471,10.302186247167215,-0.4154296327367574,-36.998781080361205
1760681811.1127439,-25.828089057173358,-0.46082245195021954,0.7673524732245448,0.05676570646989439,10.59058059555657,0.858172188047452,-33.83336349081607
1760681811.123034,-26.247912279321465,-0.4779678552620559,0.7616887646410543,0.05690314410622439,10.901184064131206,1.6605445288349614,-30.55276834278931
1760681811.1327734,-26.639705849736096,-0.4885656904868711,0.7574135020271374,0.05796313299063092,11.229951112587203,1.9870294241579036,-27.17778705828548
1760681811.142862,-26.99735534192259,-0.49237282257364284,0.7538108200750201,0.059514989319485144,11.575507832779806,1.8825845307053535,-23.72759389757918
1760681811.1527553,-27.314959583986255,-0.48970184895684704,0.7502791612800149,0.061263460437879426,11.940544509841825,1.435507517788444,-20.216670333209976
1760681811.1627777,-27.587094818735476,-0.48130801799787365,0.7465071445004793,0.06313905924709659,12.332216160291248,0.7669133242223477,-16.651960844743492
1760681811.1729796,-27.808996315737193,-0.46827413000222884,0.7426203975375302,0.06532282005472088,12.76144483251946,0.01792581681551399,-13.031477320068387
1760681811.182828,-27.976674658752568,-0.4519103111921098,0.739271313224618,0.06819290996880206,13.241099304422232,-0.6634700703852986,-9.345413184667478
1760681811.1930077,-28.08699676314455,-0.4336742721623295,0.7376484640227718,0.07219892263088809,13.783156982514774,-1.1343505865467012,-5.5802927048270154
1760681811.2031043,-28.137770400714402,-0.4151105699413828,0.7393911291379831,0.07768804983497254,14.395138149381422,-1.2666097315273952,-1.7258841938788114
1760681811.21277,-28.12786991888583,-0.397801187691869,0.7464061058915353,0.08472057764056647,15.07630634714945,-0.9543462781569478,2.216247220082155
1760681811.2231479,-28.057423977939923,-0.3833132176019019,0.760597415416881,0.09291722157012167,15.814286725456817,-0.11935329675507571,6.224337234670941
1760681811.23291,-27.9280542995995,-0.3731250259609103,0.7835332996166317,0.10137686993718105,16.582805208121094,1.2844142179065483,10.250249845331979
1760681811.242999,-27.743115179120146,-0.3685134434219774,0.8160886537654013,0.1086914803463521,17.341164981196556,3.266559769505882,14.217461148608695
1760681811.252796,-27.50784989682382,-0.3703949108670897,0.8581151985086162,0.11306787221671577,18.035872849962484,5.795831586712396,18.024562320674654
1760681811.263026,-27.22936728114172,-0.37913414150095864,0.9082050161960429,0.11254674306188353,18.60456897784588,8.79607360035669,21.554747012475836
1760681811.272957,-26.916358595735336,-0.39435883339412486,0.9636198863244019,0.10528939501373513,18.98215996533887,12.143884504474402,24.69062475912986
1760681811.283003,-26.57851999737561,-0.41483733277380724,1.0204495267325147,0.08988503187577555,19.108809610366094,15.669888338485748,27.33250059509598
1760681811.2928162,-26.225709840451994,-0.4384782860944061,1.0740276731793024,0.06562105702226484,18.93914309113587,19.165571026202315,29.417190937075876
1760681811.3029199,-25.86693913951852,-0.4624920436502135,1.1195750633504606,0.03266221172872416,18.451609988306156,22.397080331407892,30.933786878632105
1760681811.3127613,-25.509348730984435,-0.48371375649760356,1.15296467153431,-0.007894769208310498,17.656458607260042,25.126207442565534,31.932813909428553
1760681811.3228648,-25.15735023923187,-0.49903885573392154,1.1714417440339149,-0.05409288977457517,16.600372922559988,27.137038773602193,32.52610151002444
1760681811.33297,-24.81209355867389,-0.5058836830292573,1.1741113198769253,-0.10329008414918443,15.365828429977002,28.264808544288456,32.87621230017982
1760681811.3429964,-24.471378185542104,-0.502576167872352,1.162053021591751,-0.15240928114849842,14.063949132981177,28.42195664995474,33.17613311930889
1760681811.3529909,-24.13006026177628,-0.48860634942511727,1.138031439060031,-0.19824268270605022,12.82112574422331,27.615979609323777,33.62176610735776
1760681811.3630133,-23.780928989492097,-0.4647077292148732,1.1058973367777587,-0.23779483910377128,11.761425188650206,25.954586160479714,34.38134035349613
1760681811.3731284,-23.41594043244922,-0.43277319032116374,1.069862201147726,-0.2686419506702601,10.988122973712702,23.635688304437316,35.566951646474685
1760681811.382755,-23.027613433658946,-0.39562010041706946,1.0338406288550368,-0.2892663833283472,10.567991573319183,20.922473131136606,37.2137399641993
1760681811.393081,-22.610332340346563,-0.356619623661796,1.0009964500729878,-0.2993029499965537,10.521323760348672,18.10679747266837,39.27147145667112
1760681811.403077,-22.161294603787326,-0.31922013348838496,0.9735344833600151,-0.29962159481723766,10.819475014667237,15.466870787004805,41.61133644500468
1760681811.413175,-21.680908493424226,-0.28643025805239825,0.9526948732703416,-0.29219012779170617,11.390308196939705,13.226876608510292,44.04766914358279
1760681811.4229934,-21.172573891199782,-0.2603582134234689,0.9388644635582243,-0.27971876254486067,12.13044404522962,11.526130734227095,46.37064163029392
1760681811.4331906,-20.64192190370771,-0.24190299809822297,0.9317280594508753,-0.2651627332432046,12.921845216114246,10.40345631932631,48.38300867214339
1760681811.442808,-20.095699609325372,-0.23066007012861778,0.9304230519462209,-0.2512087254887888,13.649390419430551,9.799278331454865,49.93292741723936
1760681811.4527597,-19.540541547927987,-0.2250578190028564,0.9336990843335329,-0.2398695399903803,14.216111363174107,9.57441695544911,50.93618029834039
1760681811.4629083,-18.981869323307667,-0.22269468280217986,0.9400932894593967,-0.2322663173073389,14.553674719176751,9.541446538851812,51.384189337810156
1760681811.4730186,-18.423114623191523,-0.22080727074966383,0.9481133812693795,-0.22861563542459637,14.627071013948953,9.50231735144232,51.337846482981355
1760681811.4830668,-17.865382993576574,-0.21677595170868985,0.9564009880361016,-0.2283859759237313,14.43377618477256,9.285103061395548,50.91024438538926
1760681811.4930406,-17.30758361826193,-0.20857286363215047,0.9638464968267944,-0.23055829827059424,13.99854804743279,8.773389649435039,50.243159002759334
1760681811.5029588,-16.74696372601438,-0.19507775944651415,0.9696437043221686,-0.23391923375856452,13.365465349457864,7.923736329387173,49.4824618399621
1760681811.5130303,-16.17992190034851,-0.17622171422097524,0.973293298669983,-0.23732555117495188,12.588904314064775,6.769271388972365,48.75680771083092
1760681811.5231307,-15.602941918354064,-0.15295525852498099,0.974574978203839,-0.2398971031979552,11.7249622311678,5.41018526145988,48.162425756296486
1760681811.533154,-15.013488253881718,-0.12706576523570445,0.9735055758962449,-0.24111695932719357,10.824443393937921,3.9940820107079666,47.755130266574334
1760681811.5432196,-14.410730213660498,-0.10088655398733778,0.970292053864226,-0.24083859749650832,9.928016082644069,2.690485618136884,47.54917223875592
1760681811.5530553,-13.79600515011869,-0.07695018755600408,0.9652823176824581,-0.23921827656569583,9.063666911096773,1.6641696197228208,47.521516069009124
1760681811.562724,-13.172982018175833,-0.057641806256315084,0.958915634439936,-0.2366032166939609,8.246230753545822,1.0515061332177578,47.619619520806914
1760681811.5728104,-12.547533850591755,-0.044902629341249604,0.9516748641299864,-0.23341049529406444,7.478589400601221,0.9429507670640428,47.770779914137286
1760681811.5830135,-11.927363151933044,-0.04001833907565816,0.9440421456496277,-0.23002700237090953,6.754071783946672,1.3733882523380703,47.891482579833934
1760681811.5932548,-11.321444775458938,-0.04350697862149815,0.9364587033193871,-0.22674942781144772,6.05959403832947,2.320656942803669,47.89579209087728
1760681811.6045089,-10.739358303664732,-0.055103790162217926,0.9292900094767236,-0.22376916048237433,5.379103481485017,3.7113765054664216,47.70246762601
1760681811.6136973,-10.190579147703986,-0.07382957654067418,0.9228000307742678,-0.22119465577735423,4.696920284377466,5.432349509419447,47.240970767464404
1760681811.6232767,-9.68378639471643,-0.09812285972213342,0.9171405836573602,-0.21909615295661358,4.000611523974943,7.345336615455187,46.45673904641027
1760681811.6333387,-9.226229187669945,-0.12601265737074538,0.9123611617624142,-0.21755487412558683,3.283098410007944,9.302905722993005,45.31599894423462
1760681811.642957,-8.823179495694301,-0.15530950387001374,0.9084399522217795,-0.21669989336485393,2.5437953899877157,11.163296213257823,43.81006577291923
1760681811.6529977,-8.477495283239747,-0.18379789793559292,0.905329578688149,-0.21672007526087353,1.7887041355830038,12.80276216790698,41.958661466894064
1760681811.6628664,-8.189324962758697,-0.20941984176947634,0.9030044839709175,-0.2178455326441429,1.029519164895444,14.124535511934091,39.81143381889024
1760681811.6729953,-7.955993203187624,-0.23044156211664366,0.9014941544822378,-0.22030153736761193,0.28191932651027063,15.064196732765671,37.44673632757891
1760681811.6829789,-7.772107969065019,-0.24559275823562013,0.9008896669637426,-0.22424538824374468,-0.43670198879774125,15.59170666760778,34.96693200792959
1760681811.6927488,-7.629911234019105,-0.2541631248690447,0.901319693991579,-0.22970165248631694,-1.10977654754582,15.710595045247873,32.49002393490701
1760681811.7030287,-7.519861475586717,-0.25603950254333757,0.9029027218070979,-0.23651283834887624,-1.724062728865996,15.454877623135541,30.138181218660083
1760681811.7130103,-7.431394533891204,-0.2516729717177787,0.9056904002988213,-0.24432082121625337,-2.2717917466811173,14.884279963956853,28.024521463952688
1760681811.7231212,-7.353776258240262,-0.24197904663457193,0.9096198999115171,-0.2525892773276204,-2.7521490465333303,14.078348324832906,26.24008954592408
1760681811.7327611,-7.276947849129099,-0.2281906339643396,0.9144909509059065,-0.2606694252058153,-3.171828418949278,13.130024558145676,24.843145533009455
1760681811.743011,-7.192273313468883,-0.2116938856246815,0.9199773601067277,-0.26790173941683004,-3.5445015067842536,12.139195435821113,23.852588085052187
1760681811.752833,-7.09311797849471,-0.19387600758727294,0.9256744281175509,-0.27373684381054636,-3.8892045261803228,11.206550631514125,23.24667923073736
1760681811.763018,-6.9752082592599525,-0.17600401035129185,0.9311742462951623,-0.27785157598855975,-4.227828072322686,10.427832145220176,22.967348109647084
1760681811.7727673,-6.83674476051227,-0.15914174435276465,0.9361530762054983,-0.28023331838178905,-4.582062582434976,9.888348617739513,22.929394770402176
1760681811.7831717,-6.6782665670856485,-0.144104553439765,0.9404517887477851,-0.2812087816943947,-4.970263508912749,9.657577746426497,23.033061395666543
1760681811.7928736,-6.502294297120991,-0.13144672120421758,0.9441324139177152,-0.2814026534809116,-5.4047332020482095,9.783823493692967,23.177846115565686
1760681811.8028164,-6.312808186954213,-0.12147460714902326,0.9474995639133236,-0.28162499760393717,-5.889863110379816,10.289178581032948,23.275212356343282
1760681811.812901,-6.114638288167684,-0.11427666286028218,0.9510825605192426,-0.2827008953212794,-6.421448484457537,11.165368428687117,23.258037113722658
1760681811.8231344,-5.912851292829106,-0.10976011028862409,0.9555809284631597,-0.2852685090975989,-6.98730445519883,12.371311448101368,23.085222238866514
1760681811.8337116,-5.71221068178797,-0.10768365549366558,0.961781435521819,-0.28958047151641464,-7.569118496534182,13.833320405460308,22.740780161497835
1760681811.8429744,-5.516767188504157,-0.10767797482667124,0.9704582212681242,-0.2953471589174784,-8.145315393730712,15.448710588160118,22.22775980424299
1760681811.8528562,-5.329612095066635,-0.10925178084274588,0.9822685352442883,-0.30165814445533096,-8.694616204891224,17.093141749120146,21.558406939656013
1760681811.8629823,-5.152802335881747,-0.11178867566757358,0.9976558900841545,-0.3070093781139428,-9.199936265270859,18.631352262578478,20.742731632121572
1760681811.8729765,-4.9874452783546275,-0.11454466780600245,1.01677118505809,-0.30944900488148197,-9.652249354447793,19.930182901748747,19.777998831319483
1760681811.8834138,-4.833912272693738,-0.11665648540879092,1.0394210797546357,-0.30683600177712783,-10.054002304122164,20.872131481720928,18.64149637108882
1760681811.8930485,-4.692135096873879,-0.11716803501668774,1.0650504888279995,-0.2971852382179181,-10.42158790392794,21.367343867988794,17.288314365443902
1760681811.903153,-4.561931176059066,-0.1150784707051222,1.0927611824805594,-0.2790525383372382,-10.786312521852384,21.362093053543944,15.654914446600369
1760681811.9129956,-4.4433037616626345,-0.10941120218309279,1.121362679092876,-0.2518966483790317,-11.193290142902208,20.842438105585327,13.668164496922369
1760681811.9230154,-4.336671253508361,-0.09929918954805872,1.1494487569736056,-0.21634539791688084,-11.697807909697065,19.83272690382084,11.258498147103849
1760681811.9336865,-4.2429938545174055,-0.08407976328417095,1.1754937900015034,-0.17429599436887125,-12.358965646974461,18.38965982265745,8.375124387923117
1760681811.9428382,-4.16378561300125,-0.06339394841871623,1.197963660027247,-0.12879986050647005,-13.230795676133061,16.593526388278438,5.000840666095904
1760681811.9530194,-4.101024738390064,-0.037288958531777314,1.2154328465983277,-0.08372187175020401,-14.351594664067708,14.538771798374317,1.1639710105208334
1760681811.963114,-4.0569994990454585,-0.006322385386159443,1.2266944779496116,-0.04321422077467507,-15.732777937941762,12.326080549847681,-3.0547934348591337
1760681811.97305,-4.0341426593432725,0.028340844894072337,1.2308482350219208,-0.011091049353389452,-17.349080430848815,10.05754073006603,-7.52237578126946
1760681811.983061,-4.03490820515863,0.06485962426873132,1.2273539734551453,0.009783048283949292,-19.132228117143793,7.835171728888727,-12.061135756461043
1760681811.993075,-4.061729950406158,0.10070648835708357,1.216045821317945,0.017976239362663425,-20.970144491750307,5.761462544183862,-16.464676564809
1760681812.0031004,-4.117078314885791,0.132748527021461,1.1971111869057565,0.01375235604820387,-22.71323790550362,3.939185547037874,-20.520788486289607
1760681812.0130563,-4.203606583569894,0.15744472341117657,1.1710499232558476,-0.000939362225252961,-24.188318261966153,2.467278416748336,-24.039622165504763
1760681812.0231328,-4.324355042815061,0.17117088754632392,1.1386363551453178,-0.022752122433965943,-25.219302190652456,1.430410586354288,-26.884053713115105
1760681812.0331328,-4.482960032276707,0.17066200536248988,1.1009048714625083,-0.047461523246151875,-25.65229142878171,0.8819252080732292,-28.998029598582843
1760681812.042956,-4.683795896112545,0.15353103920290034,1.0591657208585081,-0.07063058116598131,-25.381184171489764,0.8227000419468223,-30.427718089126408
1760681812.0530438,-4.931968406838564,0.11878500297332456,1.0150362488167728,-0.08830954077336874,-24.36912574649698,1.1812453552266065,-31.330073840296592
1760681812.063235,-5.233091044942487,0.06722603553369179,0.9704547734439722,-0.09765742247349261,-22.66120113034549,1.8019671736452605,-31.96446601993711
1760681812.0729523,-5.592819537146218,0.0016173081440110444,0.9276399710719994,-0.09738398146039018,-20.384975005089803,2.4480572412675263,-32.665459598193024
1760681812.0832696,-6.016189402183118,-0.07347399247590318,0.8889704248440703,-0.08793274420530184,-17.737634140872476,2.8226916863255984,-33.798301068504195
1760681812.092985,-6.506869677881694,-0.15217326457098718,0.8567798601380081,-0.07136222564056215,-14.961133639153237,2.6077748790432214,-35.70246152929959
1760681812.1030254,-7.066477385003768,-0.22806233933363249,0.8330857149420153,-0.05093638382644202,-12.309277084183172,1.5146338328718862,-38.631919879818035
1760681812.1128566,-7.694072540368313,-0.2950648764783267,0.819290375683363,-0.030497020376598873,-10.012446688628252,-0.6627095590270172,-42.702852211372864
1760681812.1230078,-8.385891169212368,-0.34828050015943274,0.8159135540783905,-0.013741090527657101,-8.246270211651167,-4.002640212459221,-47.85928804571679
1760681812.1332083,-9.135318141762024,-0.38462220039977607,0.8224216326413067,-0.0035486190363911807,-7.109679731848699,-8.42925807510242,-53.864840103997004
1760681812.1428232,-9.933085665865875,-0.4031724527205026,0.8372073289330821,-0.0014948008854223027,-6.615781210949527,-13.710253925685352,-60.324217454201644
1760681812.1531096,-10.767700824773826,-0.4052339284925951,0.8577433570633611,-0.007634991163089729,-6.6962871262930825,-19.480940060102075,-66.73279752530793
1760681812.1630332,-11.626119980152074,-0.3940887065811892,0.8808961071835987,-0.020586073290255195,-7.2177075415136445,-25.291190898742695,-72.54713878067533
1760681812.1730335,-12.494666266737276,-0.3744984343504286,0.9033494310075264,-0.03786196023971699,-8.00563723652544,-30.66806735448551,-77.26498190358467
1760681812.1833446,-13.360125942631605,-0.35199450625941997,0.9220644348218795,-0.05637360491467306,-8.872570371817345,-35.18420439375869,-80.50089463301103
1760681812.193032,-14.210885857577226,-0.3320346774804787,0.9346955958581538,-0.07298501480114372,-9.644671712298713,-38.52081908809143,-82.04394036591901
1760681812.2027936,-15.037923488282972,-0.3191379675238805,0.9398948627594096,-0.08502437262754295,-10.183628886840962,-40.51460914648619,-81.88682596808474
1760681812.2129016,-15.835459694547744,-0.3161386000022487,0.9374566909944133,-0.0906722706882624,-10.400860080693915,-41.18001775847598,-80.22140757729186
1760681812.2228382,-16.601139486948835,-0.3237045025015766,0.9282832196193836,-0.08917630713979159,-10.262738153086941,-40.70232984187464,-77.4019956316786
1760681812.2329702,-17.33570316348719,-0.3402343960539067,0.9141781229841778,-0.08086956834239403,-9.786938267841533,-39.402369082838554,-73.88406446403506
1760681812.2430997,-18.042219712967782,-0.36217895199476774,0.8975075268052053,-0.06700172042435407,-9.031364881383254,-37.679079500201084,-70.15031117589547
1760681812.2528884,-18.725043413945603,-0.3847396119599224,0.8807910937826041,-0.04942472097215826,-8.078201164600863,-35.94056057834105,-66.63761198754672
1760681812.262923,-19.388699523006043,-0.40280971395191983,0.8662984575780046,-0.030203437765411404,-7.016275063900062,-34.53606340288202,-63.6771784582933
1760681812.2730668,-20.036899410876146,-0.4119648103782324,0.8557209509875862,-0.011235029323281758,-5.925002251160594,-33.70069429523175,-61.45673860596517
1760681812.283117,-20.67183838396914,-0.4092993777438327,0.8499679666983962,0.006046355027559334,-4.862596429536945,-33.52153121316889,-60.00886536683465
1760681812.2929559,-21.29385853582388,-0.39394678498971136,0.8491084383244637,0.02082998293233342,-3.8601488217604683,-33.92947104141618,-59.22472431723115
1760681812.3028243,-21.901484742719777,-0.3671968450552672,0.852448892022601,0.03294205110909793,-2.9218494041014584,-34.71647449043055,-58.88843655038768
1760681812.3129256,-22.491781024809853,-0.3322176424245679,0.8587165756804416,0.04273465992847782,-2.030390157680394,-35.573841656053894,-58.724535817012466
1760681812.323009,-23.06093495627484,-0.2934678080362623,0.8663027269062333,0.05089290242181344,-1.1557231276149338,-36.144265723303015,-58.44982198045667
1760681812.3328795,-23.6049591148743,-0.25593266773203793,0.8735173239367457,0.058207464723639815,-0.26496807140110956,-36.07890487899999,-57.82114745776163
1760681812.3427985,-24.12039617583569,-0.22432921189755464,0.8788113411737983,0.06535542726810044,0.6686359323406204,-35.09062024908124,-56.67204488710779
1760681812.3528385,-24.604924319789486,-0.20240963023171712,0.8809346496002178,0.0727244802816289,1.659366029868664,-32.995763653624834,-54.93330681738837
1760681812.363116,-25.057780810320185,-0.19246525999194442,0.8790161678880035,0.08030857142022901,2.7061667190257546,-29.739253874249165,-52.635375789694436
1760681812.373124,-25.47995347696422,-0.19510112359986995,0.8725744666726826,0.08769461478977181,3.7934625796082893,-25.400744682373595,-49.893418676652196
1760681812.3830671,-25.874129253440618,-0.209312264535424,0.8614852395814423,0.09414585283687954,4.895052896020231,-20.18281617132695,-46.878876952323985
1760681812.393085,-26.244427729046947,-0.2328391411114667,0.845938806881114,0.0987664837766089,5.979978889023928,-14.384630326708903,-43.783568049568174
1760681812.403031,-26.595974847100692,-0.26271647391749503,0.8264123181489623,0.10071116566353697,7.019036277962794,-8.366005660630618,-40.78347496053538
1760681812.413061,-26.9343798174251,-0.2958816965798357,0.8036624832585614,0.09939229268128605,7.99071082527153,-2.5074167936387246,-38.00886716843552
1760681812.4230232,-27.265169077657664,-0.32969965640149734,0.7787262412050853,0.09464190457601522,8.885617175492452,2.828777379550375,-35.52550834968676
1760681812.433294,-27.593215726581477,-0.3622949417306701,0.7529086312539417,0.08679967771180576,9.708837555186191,7.3313743471235355,-33.32905420601891
1760681812.442937,-27.92219235215384,-0.3926453574004514,0.7277424446201258,0.07671556691333353,10.479785372484978,10.764447094333473,-31.35209398440322
1760681812.4530451,-28.25407341687388,-0.42045380371355223,0.7049174219002147,0.06566896214071075,11.229423084297505,12.98104715426209,-29.481173696112872
1760681812.4628646,-28.588717759198012,-0.4458627757308628,0.6861885970465671,0.055214835463979935,11.994984597704347,13.926818954736193,-27.57976484784072
1760681812.4730852,-28.92356818507306,-0.4691005023801208,0.6732784139519676,0.046974821795379325,12.812825874915566,13.63541585386912,-25.512564611662867
1760681812.4830797,-29.253510830264705,-0.490152507290055,0.6677845603676058,0.04239988277156403,13.710524352323365,12.21853375483595,-23.16676692227252
1760681812.492897,-29.57094007620507,-0.5085398757908108,0.6710965439662099,0.04253888814606865,14.699679621854402,9.853473354323231,-20.466994615723276
1760681812.503146,-29.866071235402114,-0.5232575356366899,0.6843133288022099,0.04784982845721006,15.770895879132494,6.770476104108867,-17.382219680625514
1760681812.5130332,-30.127525218887982,-0.5328858733157085,0.7081482961196606,0.058085256786681375,16.892096716322868,3.2409185220499324,-13.924815228234497
1760681812.5230424,-30.343170171256805,-0.5358452116111321,0.7428105412480775,0.072271676488642,18.010681748426595,-0.43385544383299157,-10.14338604621576
1760681812.5330856,-30.50114875706053,-0.5307281151071442,0.7878630998305318,0.08878684073959135,19.059243383255467,-3.9343698463533356,-6.111845952849426
1760681812.5430498,-30.590966005231255,-0.5166314586880795,0.8420764143791029,0.10552355733283003,19.96385593409039,-6.937343702120053,-1.917283644361984
1760681812.553054,-30.604486061357363,-0.49342115929777175,0.9033143706830211,0.12011683135484005,20.65353528371384,-9.134027286360434,2.3512998618061105
1760681812.562865,-30.536699231377703,-0.46188739689224145,0.9685035016635317,0.13020331867235857,21.06942403654007,-10.252908278924332,6.611986749515826
1760681812.5730426,-30.386165990399437,-0.423772522797093,1.033735973793861,0.13367738714420463,21.172512831283246,-10.085414800081727,10.795967245479204
1760681812.5830677,-30.155102971070214,-0.38166960672935174,1.0945391815858487,0.12890834603625578,20.94910049097609,-8.511439115349146,14.850468982315286
1760681812.5930755,-29.84912995410931,-0.33879981306522233,1.1463103910737928,0.11489265754393815,20.413549666648926,-5.520227713693411,18.73888756081642
1760681812.6030333,-29.4767384827345,-0.2986904113318398,1.1848708530614036,0.09133398650210281,19.60809919485613,-1.2219686776210474,22.43867846429314
1760681812.6130948,-29.048569709672606,-0.26479428885995293,1.2070503478562395,0.05866399671418619,18.599572764586245,4.153475536616106,25.93768691464066
1760681812.6233237,-28.576598338857085,-0.24010537508043006,1.2111829203825832,0.01802244524745509,17.47295452339871,10.272040458823279,29.22956923016793
1760681812.6331677,-28.0733086920467,-0.22682046459325358,1.1973938188877722,-0.028799805416245838,16.322215285799388,16.723953012401395,32.30884851890357
1760681812.6429398,-27.55092453787188,-0.22608075037285572,1.167599307538012,-0.07947139342325113,15.239512774449206,23.061998558202095,35.166084869230545
1760681812.6530037,-27.020730944948234,-0.2378124665542505,1.1252182817540286,-0.13130246076042118,14.304635808178034,28.84504934846475,37.783765220464446
1760681812.6631148,-26.492513764908725,-0.2606833988414998,1.0746747023355603,-0.18149241010471773,13.576790902038557,33.681689070994196,40.13380686544395
1760681812.672838,-25.974137006620424,-0.29219262293748055,1.0208144700547022,-0.2274082440700327,13.09026138715129,37.26853702704965,42.17776106793521
1760681812.682995,-25.47127116946158,-0.3289030511798664,0.9683546429050939,-0.2668435154409449,12.85432735582002,39.41826349570588,43.87056761679291
1760681812.6928782,-24.987273499961784,-0.3668057844565844,0.9214419516979514,-0.2982129041319366,12.856639080618569,40.07360673224231,45.16792898904043
1760681812.7030654,-24.523208730565695,-0.40177551943794676,0.8833486661834001,-0.3206553711240396,13.068439400475379,39.30585229898526,46.03627878228284
1760681812.7130558,-24.077991464361826,-0.4300482837196547,0.8562977622036131,-0.33404125316532796,13.449851833364052,37.29866980096833,46.463380044883074
1760681812.7231987,-23.648630160721922,-0.44864115817714245,0.8413938318876212,-0.33889851776266994,13.953884138903945,34.32033542499464,46.467216284214146
1760681812.7332633,-23.230555286510405,-0.45564666314893515,0.8386377482713715,-0.33628511300645486,14.528635835449029,30.688857833965113,46.10113752685586
1760681812.7430968,-22.81801709819756,-0.4503669592570669,0.8470119981135898,-0.32763568668276744,15.118100675641122,26.735234726728464,45.45398536861704
1760681812.753036,-22.404538993364966,-0.4332900625865468,0.8646303679035859,-0.31460454675255484,15.662580861255499,22.769939892818737,44.6448191375757
1760681812.7630296,-21.983410243180124,-0.40593801740798363,0.8889456932759329,-0.2989182156617902,16.099873541661896,19.056757161826813,43.81266154293372
1760681812.7729647,-21.548199496644745,-0.3706302645495405,0.9170036350104855,-0.28224476281774,16.368036898975664,15.796366743471129,43.10230122675416
1760681812.7831087,-21.093269118532458,-0.330206132429752,0.9457229887561459,-0.2660841543265349,16.409858459468342,13.120044594057484,42.647677196433264
1760681812.7930493,-20.614268099523198,-0.2877419835832271,0.9721773639610811,-0.25168252471096053,16.17841601385458,11.092019640199938,42.55477563857912
1760681812.802951,-20.108575146892044,-0.24628565234953118,0.9938506608454004,-0.23997219872442763,15.642623513078751,9.717909559911963,42.88625330786635
1760681812.8130393,-19.575654258343814,-0.20861917655191156,1.0088402611581637,-0.23153860012242947,14.791545229779722,8.956390617203514,43.65004960358558
1760681812.8230145,-19.017277059926844,-0.17705454421454123,1.0159875133165905,-0.22661503944995356,13.636526032831233,8.731707928338288,44.79395559839665
1760681812.8330686,-18.437565748948387,-0.15326748469913745,1.0149242687724964,-0.2251055853296195,12.210690257456191,8.945464490829588,46.207441576919216
1760681812.8430512,-17.84282321600138,-0.1381799130904374,1.006035644368328,-0.2266336644172357,10.565932767457475,9.486988033931235,47.73107325959097
1760681812.8528066,-17.24114347462015,-0.1319068652957367,0.9903512741418299,-0.23061066154268944,8.768003538823312,10.242220831447677,49.17272191780173
1760681812.8630943,-16.64182864189544,-0.1337807816292953,0.9693873108139035,-0.23631662453073093,6.890554539054106,11.101399020753819,50.32869336456172
1760681812.8730638,-16.05466752857984,-0.14245376402659557,0.9449660923428832,-0.24298446892037454,5.009025384652377,11.965787642274586,51.00707808334051
1760681812.883121,-15.489149253087177,-0.15606532277422794,0.919038665062073,-0.24987846259148164,3.1950387046505173,12.75351544239683,51.05023840029789
1760681812.8930426,-14.95369357837962,-0.17245614045857602,0.8935286787095786,-0.2563575567516288,1.51168942746663,13.40427184403834,50.353478369400435
1760681812.9030917,-14.454979844621999,-0.18940577368246495,0.8702063921877148,-0.261916658123781,0.009877485760014772,13.882440976255195,48.87753996428768
1760681812.9131057,-13.997448683444537,-0.20486977888524863,0.8505912449065551,-0.2662045518285342,-1.2742959327550414,14.178227993941466,46.65349004951903
1760681812.923105,-13.583034310722345,-0.21718947432190816,0.8358750206307005,-0.2690226634732242,-2.3210909473175696,14.306460155003156,43.77961836734629
1760681812.9330294,-13.211159833500249,-0.22524828968902266,0.8268584923261275,-0.2703110892092482,-3.1276683054931835,14.302960062645674,40.41097851179072
1760681812.9433608,-12.87899562183899,-0.22855474295356,0.8239014629346736,-0.2701274244798557,-3.7076059847450473,14.218663197473798,36.74304326839045
1760681812.953066,-12.581945515039097,-0.2272429589378306,0.8268941628236182,-0.268622034883207,-4.089381759970652,14.111992920062038,32.99154875675169
1760681812.9630516,-12.3142917540183,-0.22199340906922635,0.8352617588526297,-0.2660121528225341,-4.313815146906959,14.04039186556988,29.370948396823387
1760681812.9729226,-12.069901792712354,-0.2138860753444831,0.8480111308811927,-0.26255660032387207,-4.430505588589732,14.05224100636002,26.073978900733326
1760681812.9831946,-11.842886312781896,-0.20420661133381107,0.8638216783406153,-0.25853236066898666,-4.493412294629164,14.180529344566006,23.254641809586087
1760681812.993024,-11.628106642644338,-0.19423486423068193,0.8811735049324745,-0.2542137347672698,-4.555891941331137,14.439456581081982,21.016425364905665
1760681813.0031154,-11.421463857756631,-0.1850517497081384,0.8985003645334307,-0.24985529657938615,-4.665695579511708,14.824653330080977,19.40688268949203
1760681813.0130367,-11.219953315060167,-0.1774002811706122,0.9143523689228675,-0.24568131425118245,-4.8605525508800485,15.316993372307087,18.418836905354144
1760681813.0231342,-11.021522069142744,-0.1716270636683948,0.9275532467944098,-0.2418851389140126,-5.164975111695132,15.88921413921017,17.99760567109828
1760681813.0330398,-10.824805543987582,-0.16771249906276195,0.9373368456469795,-0.2386405333433812,-5.588780730601193,16.513929314847047,18.05284482120223
1760681813.0431297,-10.62883227504626,-0.16537577415019994,0.943447129073781,-0.2361226212981724,-6.127574378942179,17.171266749781726,18.473040186445356
1760681813.05305,-10.432772403873228,-0.1642226942685876,0.9461867426646766,-0.23453023465042297,-6.7651166537945295,17.8543956157058,19.140431655480477
1760681813.0632002,-10.235779545560776,-0.16389779838285265,0.9464032860787445,-0.23409648664751764,-7.477190078536707,18.571616903929357,19.94425205113033
1760681813.0733323,-10.036949760843815,-0.164207026788475,0.945410044347486,-0.23507370900943803,-8.236325614010731,19.344374404566008,20.790547715620576
1760681813.0829384,-9.835399726655162,-0.16518743058353808,0.9448472453025338,-0.23768419519181164,-9.016617151821727,20.20134480837604,21.60743445601456
1760681813.0928862,-9.630444686507344,-0.16710984114467212,0.9464982346556957,-0.24203796600716926,-9.797874215294193,21.16954242503916,22.345364384695593
1760681813.1030583,-9.421831445280647,-0.17040770116962653,0.9520805131712894,-0.24802968875672365,-10.56855006376418,22.264010206118865,22.972778352772252
1760681813.1129313,-9.209958275053323,-0.17553507492086143,0.9630341522606167,-0.2552360740776534,-11.327183786211593,23.478070425331207,23.468298291173692
1760681813.1229057,-8.996007505918042,-0.18277425200797082,0.9803303468846346,-0.2628404827402689,-12.08241102237251,24.776208291907516,23.811225425799744
1760681813.1330876,-8.781938760627648,-0.19203469603575637,1.0043211917282353,-0.26961178565128796,-12.851828991865611,26.09142056018639,23.97242005201084
1760681813.143086,-8.570334448376057,-0.20269817219722988,1.0346480878119269,-0.27395965691890745,-13.660095305345818,27.328259094430994,23.907597300850103
1760681813.1540127,-8.364133393059355,-0.2135598223649371,1.0702206088031436,-0.27407896590671205,-14.536599726813067,28.371854958897526,23.55471036398741
1760681813.1631477,-8.16631431266003,-0.22289253557397426,1.1092709009789363,-0.2681817080302998,-15.512912828195747,29.10203850175993,22.836461073785905
1760681813.1731899,-7.97959287664311,-0.22863204489173436,1.1494815089996644,-0.25479581215012503,-16.620042806058525,29.41052315265604,21.668134643070715
1760681813.183183,-7.8061821268541225,-0.22865440479502358,1.1881773704336263,-0.2330880963313493,-17.88538420952401,29.218299362779863,19.969990042596496
1760681813.193105,-7.647648465292822,-0.22110257803538486,1.222566209580703,-0.20314948146110523,-19.329171140625913,28.490108588540686,17.68248770786394
1760681813.202892,-7.504881823261549,-0.20471430013475608,1.2500060275365135,-0.16617295413505168,-20.96028146126929,27.24320138943048,14.781862357148832
1760681813.2132325,-7.378189125022021,-0.17910477058706892,1.2682730333436254,-0.12446516994472577,-22.771384710747398,25.54847452434626,11.293104584948107
1760681813.223136,-7.267510668082057,-0.144961864530942,1.2757976240916646,-0.0812610017736577,-24.73368003423852,23.523377052499857,7.297437138692581
1760681813.2328231,-7.172745823840448,-0.10411864088443255,1.2718325074309966,-0.04035046708029539,-26.791826257180837,21.31741538596647,2.931949070641258
1760681813.2430751,-7.094156513662869,-0.05948013092506217,1.2565214973028742,-0.0055691884500684114,-28.8600951187361,19.09235450970396,-1.6198333333334605
1760681813.2530298,-7.0327967547033055,-0.014800183088915442,1.2308539220803116,0.01976445530476379,-30.82116633205346,17.00004648073942,-6.146156541919792
1760681813.2630105,-6.990899705622217,0.025673006499923327,1.1965149567950168,0.03336837677246802,-32.529121691022866,15.161100859873782,-10.432113221441982
1760681813.2728064,-6.97214654614157,0.0576437803915421,1.1556667468752138,0.03438060283265573,-33.81788456836943,13.647368980060621,-14.288209348536142
1760681813.2831938,-6.981749145983026,0.0772567635884826,1.1107087067947288,0.02353768363280051,-34.51552646266231,12.470541443427514,-17.578117636387592
1760681813.2929902,-7.026301865475301,0.08156799676817592,1.0640629944815592,0.003109145929924336,-34.46364285327,11.578173841591244,-20.24114436089149
1760681813.3029888,-7.113392892859307,0.06894013102457257,1.0180142960341272,-0.023412107235140946,-33.53965359515071,10.857322861086631,-22.305594128502594
1760681813.3130257,-7.251005390853991,0.039305371197074744,0.9746087191108012,-0.05182197204295599,-31.67875321001071,10.14493848794699,-23.890515064628588
1760681813.3228831,-7.446777715727271,-0.0057489006190008666,0.9355961420597112,-0.07783990008564179,-28.89164553509387,9.243485052208895,-25.194939258762037
1760681813.3330052,-7.707225318054855,-0.06309617243519093,0.9023933108424186,-0.09775939616476681,-25.274338259688093,7.940101693468598,-26.47539862172355
1760681813.3428316,-8.037046572147274,-0.12838524128514542,0.8760512346801137,-0.10900019633572879,-21.00718278393438,6.02787721054534,-28.013988836185238
1760681813.3536832,-8.438628770354914,-0.19651905717210705,0.8572213422436935,-0.11046414138122577,-16.34194223409123,3.3281965503587556,-30.080491537742375
1760681813.362975,-8.911830361206318,-0.2622343143827645,0.8461227330176924,-0.10263377394542111,-11.577743990399377,-0.2867772827907426,-32.89301301400243
1760681813.372907,-9.45404642255975,-0.32069653331612025,0.8425170636830411,-0.0874024701050187,-7.028935475250844,-4.872850325619505,-36.58216883538777
1760681813.3832114,-10.060489348433745,-0.3680211137391322,0.845701165175824,-0.06767574352424705,-2.989591861244829,-10.396030297529524,-41.16388532021036
1760681813.3928413,-10.724568196739153,-0.40164817961105337,0.8545309357424682,-0.046824258941036236,0.29978203242692997,-16.721412867159795,-46.52526021842325
1760681813.40298,-11.438251134986215,-0.4205314060470021,0.8674900458163587,-0.02809280949234097,2.6782279461159337,-23.61218556961468,-52.42658813696641
1760681813.4131021,-12.192343868809298,-0.42513489564802803,0.8828093617283796,-0.014072026014409133,4.079351596600385,-30.741431506901172,-58.52071838167932
1760681813.423208,-12.976687176743523,-0.4172577262936963,0.8986280817515022,-0.006320309113170934,4.533825776249952,-37.71757684305427,-64.38860187185823
1760681813.4328222,-13.780336342728763,-0.3997227531398877,0.9131734850987787,-0.005187793644651151,4.159920075445783,-44.12189377767506,-69.58747322212365
1760681813.442939,-14.591811738969787,-0.3759783413761314,0.9249323145408302,-0.009852932872188783,3.1442870485807535,-49.553992277970295,-73.70588196159277
1760681813.4531264,-15.399495558132513,-0.34966768672160503,0.9327924519970092,-0.018546130837878316,1.7163264008977381,-53.67913764305165,-76.41807063064618
1760681813.463054,-16.192200901832855,-0.3242161093796266,0.9361399632976717,-0.028908654733627078,0.11992709093365479,-56.26997927223902,-77.52945437838815
1760681813.4729216,-16.959873892602705,-0.3024753573074386,0.9349005128129065,-0.03841865219978818,-1.4137038508966673,-57.23545448384345,-77.00565459323616
1760681813.4831567,-17.694331060096005,-0.28645438883380986,0.9295196616673765,-0.044809492090914824,-2.6890067151764168,-56.63157604719465,-74.97985503171675
1760681813.4931242,-18.38990236626022,-0.2771601720632865,0.9208848228996948,-0.0464114458989565,-3.562647360342916,-54.6521348460825,-71.73681678442192
1760681813.503154,-19.043852795176203,-0.2745643721036548,0.9101990098695129,-0.04236742959351349,-3.952588837589915,-51.601025933868854,-67.67588581585828
1760681813.5133162,-19.65649044665834,-0.277700819787893,0.8988212565590659,-0.03270301262958904,-3.839518458555329,-47.85090741200264,-63.25885092737428
1760681813.5230527,-20.230927772026597,-0.2848858382809849,0.8880921065668971,-0.01826062846276214,-3.261276259045849,-43.7946931959133,-58.95088086228334
1760681813.5329278,-20.77252982219643,-0.29403676771490683,0.8791654540338769,-0.0005279498798591606,-2.301499727766497,-39.79692068350414,-55.16358226168598
1760681813.5431764,-21.28814077300252,-0.30304370429047855,0.8728686865313549,0.01860294051212231,-1.0741113840148981,-36.15151300647837,-52.2083509935684
1760681813.5529704,-21.78521325276126,-0.31013366828680206,0.8696097138332586,0.037110545408251955,0.2944097846199462,-33.051125150714036,-50.26589230033708
1760681813.5631316,-22.270969141405846,-0.3141633962052065,0.8693420558003364,0.05311988100946973,1.6828271619535817,-30.571399303874898,-49.37468928820189
1760681813.5729568,-22.75170017745617,-0.31478963903009144,0.8715895679865171,0.06514551855479823,2.9908566438683737,-28.67135551708671,-49.438075193183856
1760681813.5831037,-23.232282148100317,-0.3124924077480575,0.8755234767127487,0.0722688379133225,4.150885144859463,-27.209109534869526,-50.24703307350477
1760681813.5929794,-23.715937116929187,-0.3084589119396977,0.8800788742069894,0.0742237872089273,5.134319346790998,-25.97038320733408,-51.51420460274515
1760681813.6029186,-24.204239417966562,-0.30436268387078724,0.8840958652308787,0.07138027859746476,5.95189893602517,-24.705980686648804,-52.913822330741404
1760681813.6131117,-24.69732620516237,-0.30208689871593586,0.8864691400507897,0.06463409777125345,6.648109963332203,-23.173555868732333,-54.12223130920438
1760681813.622912,-25.19424531822859,-0.3034412196206143,0.8862864223946995,0.055230678883301396,7.29064838132289,-21.178544268003865,-54.8542020718618
1760681813.6328769,-25.69335449616333,-0.30990731397200794,0.8829329319544559,0.04456059085874601,7.956625717443826,-18.609049172807026,-54.891244906983
1760681813.6431377,-26.19267805547741,-0.32242592228064837,0.8761409394896547,0.033964668807032534,8.717753323468845,-15.459827440611338,-54.09945217640231
1760681813.6530128,-26.690132794881013,-0.34122442086163446,0.8659748193779406,0.024579243201535542,9.62695422245637,-11.84148243398219,-52.43582709063904
1760681813.6631482,-27.183558784219368,-0.3656917036615295,0.852761385183768,0.01724074856107127,10.708633286450393,-7.9726771220346855,-49.94346503346672
1760681813.6732936,-27.670535418414584,-0.39432998737297315,0.8369941712578682,0.012456039853342524,11.954161733536461,-4.155545013750974,-46.73726186575553
1760681813.6829872,-28.148022983614133,-0.42482687372862027,0.8192475959567048,0.010431417253412649,13.323111301933443,-0.7371149005383241,-42.98291208023855
1760681813.6930218,-28.611929419413418,-0.45427806189349706,0.8001282708620014,0.011142526562691282,14.749684052928654,1.938084388523479,-38.87259927396302
1760681813.7031336,-29.056741075935744,-0.47955442256732383,0.7802718740699868,0.014422290198450202,16.152950819539498,3.577501442108428,-34.60078243504249
1760681813.7130408,-29.47536012844124,-0.49776304354204925,0.7603745340299883,0.02004574814320608,17.449102246516713,3.9848601823041307,-30.34290985980248
1760681813.7230449,-29.85925674766082,-0.5067182386892843,0.7412354064691418,0.027796123168694804,18.56385910403436,3.092639008925562,-26.23905184554828
1760681813.7330637,-30.19897874627428,-0.5053280287076184,0.7237876907729319,0.03750091913623638,19.443291515537364,0.9778384701991152,-22.383625948887286
1760681813.7431269,-30.48497769729988,-0.4938157853260994,0.709108086386347,0.0490290668718878,20.061450680698943,-2.14124049518203,-18.821675027058024
1760681813.7530377,-30.708625261293655,-0.4737271106340973,0.6984084142145067,0.062243999286891956,20.42349769293495,-5.926545487302626,-15.551449546499452
1760681813.763096,-30.86323160630009,-0.44771070522716483,0.6930146304102707,0.07691771621361272,20.563577162496415,-9.956845189111,-12.532283434273404
1760681813.7729127,-30.944865041593957,-0.4191054116983385,0.694326703862695,0.09262610037010978,20.53755840399434,-13.774105970663637,-9.696085386260656
1760681813.782903,-30.95281620264564,-0.39140688104207166,0.7037395403305328,0.10865823247559224,20.411789050989977,-16.933412526024085,-6.96044611668803
1760681813.7931924,-30.88963293733743,-0.36771379641811713,0.7225032129514292,0.12397425196675438,20.249905989008116,-19.050008986198907,-4.241486006484508
1760681813.802925,-30.760740879604633,-0.3502556699666786,0.7515147267232415,0.13723502197632975,20.10026087573932,-19.837726031111696,-1.4649904069236235
1760681813.8131118,-30.573733104398208,-0.3400827216903838,0.7910580405903137,0.1469068718411447,19.986467113082053,-19.134519164617846,1.4251362550518833
1760681813.8229244,-30.3374515552723,-0.33696341302399985,0.8405340522285236,0.15142464147681792,19.902957995655672,-16.912832326386987,4.461648243673872
1760681813.8330038,-30.060998952417798,-0.3394992281095166,0.8982401341527466,0.14938380947957214,19.816438764405714,-13.274648895789706,7.652144392282846
1760681813.843007,-29.75282136197461,-0.34543645192394323,0.961266806732522,0.13972941838448674,19.672985313227894,-8.433058281416647,10.980443420319814
1760681813.8532345,-29.419991329793145,-0.3521301940729135,1.0255755602031242,0.12191180787508586,19.40953340446398,-2.6837163953712597,14.410514875544095
1760681813.8630643,-29.067794931715706,-0.3570911411461417,1.0863025267599473,0.09598252715328948,18.96777243049381,3.629469082219198,17.89200106345773
1760681813.8731997,-28.69967645699263,-0.3585180097847318,1.138292979509323,0.06260956770954472,18.308061856668342,10.149852673173216,21.366275149740417
1760681813.8829439,-28.317522716713597,-0.3556990384533486,1.1768123444610046,0.023006329522349284,17.420890183054095,16.540546952791612,24.77220329850475
1760681813.8928852,-27.9221924950057,-0.3491772619949635,1.19831181647891,-0.021204077388098493,16.333539660678944,22.510332054054835,28.05119578519452
1760681813.9029305,-27.514143630370643,-0.34062950904963457,1.2010738598681936,-0.0681436643729311,15.110075797799691,27.830178214536907,31.151473089746485
1760681813.9128537,-27.094000969728,-0.3324879314840129,1.185556023181208,-0.11581178200562145,13.84380480896101,32.33878383396523,34.03150427044925
1760681813.922983,-26.662942883146496,-0.32739771883119767,1.154314703315591,-0.1621865605519564,12.643090710079637,35.9376108113198,36.66231206405978
1760681813.9329097,-26.222845557039978,-0.32763519508012984,1.1115152090738716,-0.2053196116759798,11.613474131495485,38.57846675212242,39.0280832082342
1760681813.9432542,-25.77619000510411,-0.33460902977693574,1.0621685714265587,-0.24344956046677432,10.840385232034773,40.248390237239136,41.124634732886825
1760681813.952904,-25.32578595520587,-0.3485403223979474,1.01131208917142,-0.2751362075002324,10.376562894172991,40.95640408682245,42.955870081622294
1760681813.9632123,-24.874389224145663,-0.36837163062203443,0.963336236078639,-0.2993932719927725,10.236648926918962,40.72496325012404,44.52914038698096
1760681813.9735534,-24.42428873083955,-0.3919036809496611,0.9215754111447617,-0.315787738145341,10.399163143745646,39.586858681060356,45.85096372394687
1760681813.9828715,-23.976927413810095,-0.41611620308780467,0.8881751298822265,-0.3244768896449758,10.814115028227054,37.586827887348655,46.924550707423606
1760681813.9931185,-23.532607411389755,-0.4376040004687029,0.8641696428199904,-0.32616700546838884,11.41343158221007,34.786288161470736,47.75002740259012
1760681814.0029533,-23.090317746629598,-0.45305118112223236,0.8496723642556786,-0.32199771602835914,12.121327818984232,31.269225860605673,48.32735071543278
1760681814.0131438,-22.647712473919803,-0.4596717971576206,0.8440928538567763,-0.3133764376831246,12.862535754516692,27.147213157337756,48.660987287441316
1760681814.0231056,-22.201257048702566,-0.455560430442592,0.8463299245418122,-0.3017989064143057,13.567524896782112,22.56179231062212,48.76477163923012
1760681814.0331676,-21.7465480632118,-0.43991785032817393,0.8549283291918629,-0.28868996872529534,14.175008774139801,17.683050997759228,48.66517669419251
1760681814.0432699,-21.278794266569424,-0.41313865195379407,0.8682094898671363,-0.2752868101548049,14.632771738497578,12.7039669334176,48.40157402543227
1760681814.0532703,-20.793424446493937,-0.37676376217359087,0.8843907860491865,-0.26257228160310797,14.898021281528361,7.830810661804056,48.022828991577164
1760681814.063103,-20.28676243180282,-0.3333101315536312,0.9017009288914418,-0.2512544581232095,14.938147613097941,3.2704237851347586,47.58055350874783
1760681814.073116,-19.756686131674897,-0.2859967331618085,0.918491119270357,-0.24178151242145413,14.732183529670749,-0.7844406614507385,47.12027029816817
1760681814.0831854,-19.20317298820938,-0.2383934957739044,0.9333370670605186,-0.23437816351899948,14.272678320534943,-4.170219030036823,46.67239160827494
1760681814.0929291,-18.628634890627925,-0.19402794586190877,0.945124379537198,-0.22909090422433784,13.567335019320366,-6.7663123517041965,46.245118425422994
1760681814.102904,-18.037964884587012,-0.15599127517947678,0.9531085314186054,-0.22583270750127024,12.639686490835581,-8.50564462810918,45.82106479643113
1760681814.1131861,-17.43825563133347,-0.12659047700004417,0.9569419093897504,-0.22442212415378654,11.528263170323246,-9.380270089920934,45.358674139496486
1760681814.1229424,-16.83820210086824,-0.10709589616208992,0.9566651771387406,-0.2246150579357919,10.284029323971644,-9.44079575523858,44.798507244834106
1760681814.1328793,-16.24726009016785,-0.09763015729165299,0.9526668653013304,-0.22612941553999588,8.966216586699751,-8.789198301836093,44.07349334443443
1760681814.1432412,-15.674681915105461,-0.09722631865857458,0.9456200408197613,-0.22866382680448546,7.636974146658557,-7.565646099853009,43.12146724379367
1760681814.152905,-15.128571991089506,-0.10404618911028879,0.9364052690345424,-0.2319125509967977,6.355445834450983,-5.931008783260888,41.89789559554603
1760681814.1631527,-14.615090085418862,-0.11570732535627938,0.9260257902930588,-0.235579178312543,5.171972240550009,-4.047568049320491,40.38665014992364
1760681814.173184,-14.137892063147978,-0.1296451408465366,0.9155180656035858,-0.23939067931909672,4.123112171714063,-2.0607666224929213,38.606974670537035
1760681814.1829727,-13.697860621657913,-0.14344761517874952,0.9058615294660168,-0.24311103303592171,3.2281025313440503,-0.08456089276432253,36.61535013365322
1760681814.1929727,-13.293152768328268,-0.15512880138375168,0.8978941818447973,-0.24655222966213305,2.487243654651014,1.80778365737151,34.50171735479028
1760681814.2030733,-12.91956759016564,-0.16332803409753258,0.8922419775337115,-0.2495812868990406,1.8824989554851996,3.586547434026369,32.38037964771219
1760681814.2133496,-12.571204387501487,-0.1674260416255188,0.8892682698659274,-0.25212342213398353,1.3803162373706612,5.262084041944515,30.37676468724057
1760681814.2230628,-12.241337428254898,-0.16756783445870327,0.8890465768243199,-0.2541610556717632,0.9363332506790882,6.875858353496211,28.611935036448873
1760681814.2329397,-11.92339081613903,-0.16458661338046288,0.8913579888430412,-0.25572634958571117,0.5013018223229448,8.48750149448652,27.18716499794595
1760681814.2429678,-11.611868109804659,-0.15983414210570676,0.8957139015351671,-0.25688503451790246,0.027357831760476375,10.159888736145842,26.170946978072813
1760681814.253218,-11.303086292771606,-0.15493709277954348,0.901404187326884,-0.2577132338451025,-0.5262553290702084,11.944538001957161,25.59042362473877
1760681814.2631867,-10.995588894848833,-0.15151296219066746,0.9075695806043103,-0.2582745013840208,-1.1887417281767383,13.869637048389206,25.4285332353131
1760681814.2732787,-10.690168073729668,-0.15089062451371782,0.9132949940236934,-0.258607189481769,-1.9750454494421508,15.932656541472983,25.627251984034874
1760681814.2834334,-10.389499738889253,-0.15388515189632862,0.9177179381665488,-0.258730150107962,-2.885040208119184,18.09876921647438,26.09637413579281
1760681814.2929451,-10.097470854774533,-0.16067022841229522,0.9201433536032362,-0.25866828962791294,-3.904513173585893,20.30526300323637,26.726428108015092
1760681814.3029296,-9.818334362990145,-0.17077365820944254,0.9201534650968063,-0.2584914641123947,-5.007649800952609,22.471023785711616,27.403709327577264
1760681814.3134844,-9.555851618564642,-0.18319574150170295,0.9176994846648635,-0.25835370754783604,-6.16062124492167,24.509232022346673,28.02512131012698
1760681814.3228652,-9.312571788610956,-0.19662277700463351,0.9131616125133422,-0.2585168331057287,-7.325847265393287,26.340857268460066,28.51059080309631
1760681814.3330817,-9.089358003562449,-0.20968533766524913,0.9073649430186584,-0.25934367845534634,-8.466527247170443,27.906419201248113,28.811226469222632
1760681814.3431664,-8.885213565247312,-0.22120059037822387,0.9015418664032191,-0.2612512494431558,-9.551067377803568,29.173808081470384,28.912045143715876
1760681814.3531184,-8.697405019053843,-0.23034546167825268,0.8972369764617969,-0.2646219499039926,-10.557057689728554,30.140681421683563,28.828897680509048
1760681814.3631012,-8.521836849342003,-0.23673053666945965,0.8961585977915679,-0.26968137463802194,-11.474453711064957,30.83098786945082,28.60008012944791
1760681814.3731575,-8.353609340354492,-0.24037208214212138,0.899990881629279,-0.27636267936240916,-12.307601155789195,31.28633350280145,28.273906003321077
1760681814.3829165,-8.18768166446009,-0.24158077818419904,0.910189623086255,-0.28418728429656626,-13.075749858569539,31.55394549996969,27.89414669512556
1760681814.392958,-8.019560052275194,-0.24079818267639388,0.9277903577887635,-0.2921951950995605,-13.811790010251578,31.673672757346544,27.48565122642937
1760681814.4030519,-7.845933672765582,-0.2384187034949583,0.9532564788614376,-0.2989529817977227,-14.559133525823706,31.666666734298488,27.0425831554532
1760681814.4129322,-7.665188400855937,-0.23463658537452428,0.9863881081438695,-0.3026551100859486,-15.366932194981514,31.528088655090023,26.521515690003838
1760681814.4230094,-7.477739551428965,-0.2293513775655258,1.0263016908121876,-0.3013188008387112,-16.28412019367847,31.225443790233527,25.84107590131181
1760681814.4330833,-7.286138593823844,-0.22215179494876913,1.0714786726125285,-0.2930563466280891,-17.353027367351455,30.70306272200196,24.888941418709408
1760681814.4432652,-7.094929033629063,-0.21238165501892786,1.1198715075232288,-0.2763925480077789,-18.60345718980932,29.89201505221275,23.535849946617027
1760681814.4531503,-6.910255283323389,-0.19927607291915403,1.1690490309766466,-0.25058042925786833,-20.048089380068213,28.72360746548963,21.655035363748937
1760681814.4632015,-6.739261746465346,-0.18214157341778853,1.216362792418099,-0.21585931714443807,-21.679819693178978,27.14387527686467,19.14436362665988
1760681814.473142,-6.58935048330236,-0.16054275705739754,1.2591204413779686,-0.17359935469993754,-23.471228154047388,25.126347774923335,15.947633616292542
1760681814.483022,-6.467389935282563,-0.13445718192477157,1.294758379494134,-0.1262875436819213,-25.375894721422387,22.680889902726445,12.0712133190423
1760681814.4931066,-6.378982705028962,-0.10437293246867847,1.321010486471407,-0.07733200377119516,-27.330928484700614,19.85740827673638,7.592493581780086
1760681814.5029523,-6.327905868572575,-0.07132457149362502,1.3360703924680242,-0.030690593408615886,-29.259977220184656,16.744328561215955,2.657573023340831
1760681814.5129528,-6.315829195897099,-0.03688112441144905,1.3387393572052626,0.009636448693093795,-31.07616914935783,13.462672084068922,-2.5329092254086123
1760681814.5229826,-6.342390112461669,-0.003104187016518411,1.3285415731885932,0.04017790547719257,-32.684846135095206,10.15704690318571,-7.748925822495109
1760681814.5330772,-6.4056560007022885,0.027517797319984147,1.3057810522938385,0.05853225186925499,-33.986460741649815,6.984818018066344,-12.76418237175305
1760681814.5434039,-6.502936915461784,0.052174085434747455,1.271518229869752,0.06377782279476188,-34.880455505201645,4.104195418091537,-17.392249312568154
1760681814.5531073,-6.631835998884443,0.06790429175137656,1.2274621002129043,0.05666847424587839,-35.27109852409787,1.6612546007064763,-21.519515128593657
1760681814.5630145,-6.791359391560179,0.07186241632031432,1.1757969301746067,0.03956377908372125,-35.075927594174665,-0.22458164482212867,-25.12869044211385
1760681814.5730991,-6.982872604671086,0.06166817142355311,1.1189790483854916,0.016087483350980192,-34.236627922190415,-1.4769324239872763,-28.307859993227023
1760681814.5832233,-7.210700297929884,0.03580481960247644,1.05954202899655,-0.009441517959992112,-32.73102697992964,-2.0801379555785866,-31.24250498861784
1760681814.5932066,-7.482222280531365,-0.006006898170147999,0.999939794807744,-0.03271286028522093,-30.58379821094702,-2.096080507292781,-34.19088803053585
1760681814.603337,-7.807406222518398,-0.06254014842003326,0.9424422659228652,-0.05013473415733054,-27.872856728054966,-1.6761618548359014,-37.445918268904286
1760681814.6131015,-8.197813303508996,-0.13097014816577682,0.889080791510771,-0.05941198468884944,-24.72867488055831,-1.063060322744869,-41.28856346293517
1760681814.6229413,-8.665195023551387,-0.2070041687313319,0.8416242412631936,-0.05987734890315573,-21.32497508029226,-0.5769388734451986,-45.93897871124926
1760681814.6332405,-9.219856821525495,-0.2852418909640033,0.8015582210412138,-0.05251357719199222,-17.86121529139107,-0.5830967363285586,-51.51197009106923
1760681814.642906,-9.868996156020238,-0.3597332883170529,0.7700454311945063,-0.03967079538993028,-14.539349880717701,-1.4425925046256838,-57.9833073597861
1760681814.652965,-10.615231232934274,-0.42466215433318877,0.7478616446615156,-0.024545712204275587,-11.538809983103274,-3.4527920795388725,-65.17261810649016
1760681814.6630788,-11.455522076984483,-0.475055489275053,0.7353185000000144,-0.010533121261336011,-8.994067173741533,-6.789057914550625,-72.74694556370021
1760681814.6728783,-12.380648147852401,-0.5074095477486815,0.7321939818649413,-0.0005775346586497302,-6.978553243967209,-11.460252562576057,-80.24653546109101
1760681814.683218,-13.37534795980256,-0.5201341411517907,0.7376948702418629,0.0033571582988052226,-5.4974479617151335,-17.288894420965683,-87.13134304408608
1760681814.6931603,-14.419150513910488,-0.5137437576657213,0.7504748999271782,0.0006131056416064722,-4.490283818193334,-23.922241351352096,-92.84360664347054
1760681814.703204,-15.487842920806779,-0.4907613051417366,0.7687262959801574,-0.008084901285631512,-3.842732519594922,-30.87439912358291,-96.87904656254382
1760681814.7131588,-16.555433377586375,-0.45534306393128854,0.7903480204448979,-0.020798505693288137,-3.405557569129136,-37.59307712340038,-98.85713691327294
1760681814.7228801,-17.596395297135192,-0.4126770228462156,0.8131725763085655,-0.034745006837766254,-3.017730111018561,-43.539248679313076,-98.57985820814046
1760681814.7331824,-18.587928366417096,-0.3682448271651084,0.8352114949246108,-0.04679267531774527,-2.530233688011703,-48.26502315330465,-96.0689128972026
1760681814.742896,-19.51195614885331,-0.32706350193220135,0.8548684602091061,-0.05399745509530927,-1.8271457621641154,-51.475297289852065,-91.5739697377898
1760681814.7531219,-20.356605206659154,-0.2930313717367434,0.8710757647922687,-0.05409868211002797,-0.8411034680652631,-53.06213382184641,-85.54891209462748
1760681814.762858,-21.11697817883258,-0.26848878802768567,0.883331720133419,-0.04589988506880934,0.43887668469682095,-53.106415208043856,-78.59843998797955
1760681814.7729037,-21.795132768540537,-0.2540665213508522,0.8916438590720501,-0.02947447300527067,1.9681645648288373,-51.84784523998698,-71.40252503072955
1760681814.7829454,-22.399290575651275,-0.24883644809997396,0.8964059045913803,-0.0061591206109208405,3.655599718331209,-49.6304477535836,-64.63004856257803
1760681814.7933633,-22.942401971308055,-0.25071343071606905,0.898248942276106,0.021668678500546584,5.379424310162134,-46.835069425359336,-58.85470874579251
1760681814.8031642,-23.440270067416115,-0.2570063132884681,0.8979052367842787,0.050992675921105915,7.007556574178061,-43.812144359360914,-54.48567697260614
1760681814.8129814,-23.909482498697525,-0.2649976963803677,0.8961083864598225,0.0786659698038136,8.41898959551469,-40.82690686440913,-51.72277908987472
1760681814.8232038,-24.365413882698125,-0.2724458686221974,0.8935333147333151,0.1019267092432914,9.522887392500968,-38.02584427261334,-50.54184245151105
1760681814.8328917,-24.82054483677162,-0.277934296329619,0.8907625619569666,0.1188200353370939,10.272311819494716,-35.428456772201216,-50.71109972065089
1760681814.8428552,-25.283296492609058,-0.2810323901406638,0.8882578270306276,0.12844732051887095,10.670421918066422,-32.94350108131469,-51.83495647323971
1760681814.8529704,-25.75750601360846,-0.2822671520983707,0.8863195328990909,0.13100540938720223,10.768302863678096,-30.404826227050915,-53.41765386810973
1760681814.8632243,-26.24257492866014,-0.2829302909253542,0.8850285002622359,0.1276264114016894,10.655073552053326,-27.619191221731576,-54.936824551329806
1760681814.8729768,-26.734218915313583,-0.2847572264422547,0.8841765203393904,0.1200688563376087,10.442307457598574,-24.417141001855477,-55.91590276222702
1760681814.8829641,-27.225652121561083,-0.2895224384764797,0.8832036278594865,0.11033481603806425,10.245790937824667,-20.697970912926056,-55.984911270604734
1760681814.893003,-27.708971759888573,-0.2986117667554848,0.881168984104488,0.10029358373943048,10.167989818781539,-16.46098738023365,-54.921225702822525
1760681814.9031374,-28.17648556238493,-0.3126539025151888,0.8767875634362291,0.09138369345722795,10.284191438237306,-11.817674451175558,-52.665231577353936
1760681814.913017,-28.62175050457168,-0.3313002589906422,0.8685610651912129,0.08444408004856599,10.634278523567623,-6.982734869009266,-49.30989798133122
1760681814.9229386,-29.040159357145612,-0.3532169257603317,0.8550143602619966,0.07969490499360167,11.220842153211832,-2.2456511471599163,-45.06758966968304
1760681814.933112,-29.429008860947416,-0.37629969008065955,0.8350193282604869,0.07685524402281775,12.013228021980344,2.0722924986094124,-40.22117655770972
1760681814.9429955,-29.78709292175389,-0.3980667809640463,0.8081526243351203,0.07535684875017466,12.95629104042884,5.668146172462386,-35.06892254818234
1760681814.9530897,-30.113965339734825,-0.4161450086957357,0.7750050668792579,0.0745964772521787,13.982048982967585,8.30595853233804,-29.873239444447766
1760681814.962896,-30.409085344958257,-0.4287501709723487,0.7373553783281892,0.07416485603119134,15.022000667616867,9.85560334551873,-24.822124928485234
1760681814.9731262,-30.67107599554465,-0.43506855442166864,0.6981498334030868,0.07399661781845464,16.01770163437724,10.315279390319583,-20.00933186009026
1760681814.982906,-30.8972845596628,-0.4354665619837008,0.6612789581770824,0.07440207034109389,16.92750537844496,9.814308568146858,-15.435588052952069
1760681814.9932082,-31.083747833918242,-0.4314847145951284,0.6311854124762687,0.07596869646971537,17.728299965356094,8.596424606080797,-11.029119233658129
1760681815.002928,-31.22556047936012,-0.4256078526130454,0.6123582984347361,0.07935462682936313,18.412383397801765,6.986916115014421,-6.680068728961987
1760681815.0129356,-31.31755165814067,-0.420843001779495,0.6087738004611931,0.08502836188211894,18.980874754694554,5.349179236604597,-2.2809330514132777
1760681815.02297,-31.35511838575362,-0.4201743672593804,0.6233417705403831,0.0930260278735528,19.435861134903245,4.037259485035455,2.235651562097323
1760681815.0329313,-31.335050223556124,-0.4259908590402596,0.6574179651384089,0.10279156675980224,19.77366986090009,3.350926546247326,6.869488747978179
1760681815.0432992,-31.256198112263505,-0.4395854479011399,0.7104418111082522,0.11313984427705258,19.98125671250089,3.4989364228088813,11.541151370931193
1760681815.0531943,-31.119872595112167,-0.46080734417805225,0.7797580912259757,0.12235064182907496,20.036851330390686,4.57461235414267,16.09826734553852
1760681815.0631397,-30.929894110245897,-0.4879196687110632,0.8606760093467657,0.1283756700372702,19.914918500983596,6.545999598876292,20.3385379339793
1760681815.07318,-30.69226352116767,-0.5176913318815201,0.9468073941582318,0.12912449005499993,19.594433592529928,9.260978299351686,24.04512493474023
1760681815.0832438,-30.414481024532094,-0.5457351527781817,1.0307009127187352,0.12278331347501051,19.068644256165882,12.466189834630407,27.027656663430534
1760681815.0931742,-30.104612649063817,-0.5670831305392179,1.1047435980618818,0.10810960463083438,18.354018346222094,15.837606637709518,29.16087604867073
1760681815.1028755,-29.770267646952764,-0.5769506474957475,1.1622327016334402,0.08464233778506136,17.496000076178863,19.019920178029828,30.41321027222674
1760681815.1130674,-29.417683618847615,-0.5715860904267787,1.198441055688256,0.05278569142431076,16.569517590533813,21.671218335657237,30.85935963189947
1760681815.123136,-29.051104374291235,-0.5490513268677291,1.211436757835963,0.013763695489782771,15.672915541924942,23.508250261612584,30.674097466884916
1760681815.1332417,-28.672578027401414,-0.5097574952882281,1.2024160135475708,-0.030518124036027983,14.91515555641502,24.34604871410229,30.108215980261292
1760681815.1429408,-28.282210998215422,-0.45660719739950534,1.1754021005084823,-0.07766022430617003,14.397722877369963,24.124772917475056,29.451097354595483
1760681815.1532502,-27.878807117405202,-0.3946708609634205,1.1363451401161435,-0.12498715028001467,14.194474007159764,22.917661693220985,28.98689845294586
1760681815.1631436,-27.460726567760368,-0.33043472486869796,1.0918558842456252,-0.16980449832364153,14.334075430302068,20.917412355070226,28.952283961659123
1760681815.1732812,-27.026746041213368,-0.27076571246868336,1.0479257614168895,-0.20969734791136524,14.789931289359714,18.40310465473809,29.502963798247954
1760681815.1832902,-26.57671027347314,-0.22180702963610596,1.0089695898226407,-0.24283500663287144,15.481093335055956,15.694121381059748,30.6942949249907
1760681815.193208,-26.111836078855205,-0.18802748866362684,0.977393674613913,-0.26821025610007104,16.284861650642515,13.099941006078618,32.47840254633441
1760681815.2030602,-25.634636133035666,-0.17160109425236905,0.9537071365949136,-0.285738571084423,17.058591334364014,10.874818978317155,34.71725680043931
1760681815.2132397,-25.148528179633935,-0.17221095753051402,0.9370331441331828,-0.2961786848421759,17.665749806823953,9.184695714855717,37.20850908247558
1760681815.2230093,-24.65725310007018,-0.18727735030847764,0.9257918678660768,-0.30089011142097244,18.00026057014151,8.090902718128108,39.71911233325151
1760681815.2330477,-24.16423722046099,-0.21252607907818608,0.9183330343042154,-0.3014913308085269,18.00377417018924,7.552018712678427,42.02101198630952
1760681815.2430685,-23.672016273085855,-0.2427580682906064,0.913369794252688,-0.2995081904615207,17.672411808051752,7.442076030492641,43.923415993527406
1760681815.253011,-23.181808527951542,-0.2726637276869984,0.9101641687303834,-0.2960990380888188,17.05215321055212,7.580748360215346,45.297129903334714
1760681815.263297,-22.693292760496284,-0.2975447113025134,0.9084977513734868,-0.29191417457114216,16.224708854121666,7.769615468335378,46.08797412695875
1760681815.273031,-22.204617087833558,-0.3138494428085928,0.9085068929523077,-0.28710475261025503,15.287772720786496,7.828283934665679,46.31815824813749
1760681815.2832167,-21.712639525691134,-0.3194813365694909,0.9104667350412631,-0.2814560288332391,14.334491419508652,7.624890366535932,46.076368450877105
1760681815.293189,-21.213380746568674,-0.3138853106019982,0.9145873194483474,-0.2745932551252549,13.436617392148051,7.09696507383759,45.49891715541179
1760681815.3031843,-20.70265099992251,-0.29794886201792675,0.9208579129634009,-0.26619967096394653,12.634369779083373,6.26040228605371,44.74539886771307
1760681815.3129447,-20.176791694562347,-0.2737652628433988,0.9289559553650015,-0.25619365854042186,11.934064451802355,5.20605826484831,43.972807379062694
1760681815.3229682,-19.63344647968442,-0.24430301218794792,0.9382258881328438,-0.24483074244137132,11.312711683193816,4.085094111082768,43.31199342533923
1760681815.332941,-19.072253720323335,-0.21301806495838074,0.9477257003805217,-0.23271830036146138,10.727464246054259,3.0855190719800096,42.849734694163494
1760681815.3429346,-18.495344443383207,-0.18344234751067087,0.9563318351256068,-0.22075036793399277,10.127229524970009,2.403435513729827,42.618667036165206
1760681815.3532152,-17.90754626223995,-0.1587846765673994,0.9628856069333592,-0.2099834593895261,9.4639014843889,2.2131561831506654,42.5960487513688
1760681815.3632185,-17.316234989364347,-0.14158411235843177,0.9663574694475366,-0.20148084541986017,8.7013123903122,2.6405130049153547,42.71097774685867
1760681815.3731804,-16.73083363816383,-0.13345570661817185,0.9660013056484469,-0.19615317905058513,7.820861853434378,3.743185867920662,42.85843434573345
1760681815.3829808,-16.162018035186758,-0.13495904801578168,0.9614719022908259,-0.19462051548845027,6.823590300983427,5.500775274832776,42.917570483458256
1760681815.3932188,-15.620732529716967,-0.14559993850104183,0.9528859687739143,-0.1971167292716651,5.729062831108386,7.815816076804496,42.771186799612536
1760681815.4031157,-15.117140543941408,-0.1639532763583035,0.940818508327356,-0.2034512275418678,4.571778074440133,10.52525977584424,42.32341506310618
1760681815.4131334,-14.659636636599776,-0.18788067091833027,0.9262381925846782,-0.2130331384294211,3.395964535789828,13.420425937430307,41.51318346751068
1760681815.4230335,-14.254035356407675,-0.2148101936436695,0.9103944247358454,-0.22495137482789437,2.2496374752762125,16.272288910573106,40.321909134321
1760681815.4330575,-13.903029251654452,-0.242042804076879,0.8946739220213595,-0.23809414008881988,1.1786987334439742,18.85839065026762,38.77484443487824
1760681815.4430957,-13.605974551831645,-0.2670486305486455,0.8804464346996478,-0.25128612867733957,0.22170301002797024,20.987689781335952,36.93644485533721
1760681815.452899,-13.35902172995065,-0.28771866469893786,0.8689183249275104,-0.2634207392298098,-0.5942600594321531,22.52019216741492,34.90090695653695
1760681815.4629722,-13.155565311256307,-0.30254486822697096,0.8610097199726832,-0.273567499687831,-1.2562655320926286,23.37913526694302,32.779561205429886
1760681815.472973,-12.986948712244521,-0.3107127873461774,0.8572668622443744,-0.2810418484162316,-1.7666567248329375,23.554688090780438,30.687052324474735
1760681815.483308,-12.843329924363553,-0.3121029056860653,0.8578169526040971,-0.28543439813923793,-2.1425142517680977,23.099424690450448,28.728206339032294
1760681815.4930108,-12.714596115090018,-0.30720859179462895,0.8623681103220706,-0.286606299442299,-2.4136212054695148,22.11702541254003,26.987219326198527
1760681815.503054,-12.59121340708933,-0.2969894569323496,0.8702519048887576,-0.28466276594254214,-2.6192256419190056,20.746536023692492,25.52036593441402
1760681815.5131412,-12.464914555107441,-0.28268826548529635,0.8805011523453096,-0.2799174443192178,-2.80402837651346,19.144918550703466,24.352866373879245
1760681815.5230772,-12.329160540013545,-0.2656448046863245,0.8919528476686486,-0.27285774042098004,-3.01387670856551,17.470529403260638,23.479941912730432
1760681815.5331018,-12.179356210569752,-0.2471393655062787,0.903366120501134,-0.2641173051155786,-3.2916142337398515,15.869633842912458,22.871531913169164
1760681815.542961,-12.012844964708277,-0.22829106605767147,0.9135472241861582,-0.2544574384305797,-3.6734379022098715,14.467236180653577,22.479723545201978
1760681815.5532684,-11.828740649925873,-0.21002237645571573,0.9214756849741582,-0.24475421489139937,-4.1859841127020125,13.362514356695108,22.24769682154768
1760681815.563137,-11.627666182967575,-0.19308308073816555,0.926425901511154,-0.2359828801047581,-4.8442526322616715,12.628157630779931,22.1189177954969
1760681815.5730877,-11.411456888089628,-0.17811033150550523,0.928076182486037,-0.22918659077995537,-5.650413409873724,12.312114737024753,22.045401379290585
1760681815.5830061,-11.182862505967563,-0.16569308675947003,0.9265932261265808,-0.22541489118560867,-6.593532940369016,12.439879739606738,21.99405632198091
1760681815.5931091,-10.945258172811373,-0.15641060699421866,0.922676047847678,-0.2256208502894308,-7.650279105102618,13.015620774290202,21.95034006866166
1760681815.603114,-10.70235785813802,-0.15082226288741118,0.9175420459087056,-0.23051578725258204,-8.786672571459924,14.021181673532821,21.918649268517772
1760681815.613259,-10.457916631238552,-0.14939814541426016,0.9128421508575598,-0.2403952744147983,-9.960916618715576,15.413063489119924,21.91909673317106
1760681815.6231735,-10.215416369290383,-0.1523987254781335,0.9105025887317478,-0.25496514739387016,-11.127254086041626,17.11860676415211,21.980672349148843
1760681815.6332548,-9.977755564844644,-0.15973392580126308,0.9125050685563808,-0.27320706996792926,-12.240686333299124,19.03340817167008,22.131310157367718
1760681815.6433191,-9.746996001289189,-0.1708463307336749,0.9206306957156083,-0.2933269049985166,-13.262262300309304,21.02224222453561,22.386048140626965
1760681815.6530924,-9.52423546931901,-0.18466077296307878,0.936201833958996,-0.312823119503401,-14.16452366154139,22.925287884075818,22.735137751967276
1760681815.6631844,-9.30966167141374,-0.19962502893441791,0.9598588815709688,-0.32869448839628473,-14.936590218192626,24.57035415500186,23.134439317857783
1760681815.6729546,-9.102800334325964,-0.2138429746375914,0.9914059436554438,-0.3377784390512684,-15.588291199398926,25.790327922359705,23.50052452262228
1760681815.6829455,-8.902916046706943,-0.22528056423359755,1.0297517774458615,-0.33718114852342523,-16.152685770985794,26.443610827174133,23.712468561059527
1760681815.6932142,-8.709478073379778,-0.2320108359594715,1.0729605734348988,-0.32473663269821423,-16.686276682073068,26.434251325014298,23.621349502404534
1760681815.7028959,-8.522582567872773,-0.23245821472108444,1.118411536401896,-0.2994193651942011,-17.266245768632583,25.72809247309068,23.067112919047684
1760681815.7130427,-8.3432338268623,-0.2256041328708881,1.1630494402472853,-0.2616348756558195,-17.984193397946978,24.361640353562198,21.90095362658861
1760681815.723009,-8.17342461224676,-0.2111241315833328,1.2036948991072387,-0.21332583495499172,-18.936203819436006,22.44141978286583,20.010034102631515
1760681815.7332199,-8.016005780609671,-0.18943962046556714,1.2373756890677328,-0.15785666494197104,-20.20960263187614,20.13311474923325,17.340508829451203
1760681815.743565,-7.87438486526452,-0.16168352181071308,1.2616374506318462,-0.09967450303811391,-21.86746848996536,17.641541913096738,13.914654378783561
1760681815.753099,-7.752131569092766,-0.12959535847434087,1.2747910663339537,-0.043783144912934176,-23.932682491707244,15.184217822804701,9.83847067297238
1760681815.7631483,-7.652588340788689,-0.09537327695054766,1.276057077310594,0.004897096057506188,-26.37387933468695,12.962647550917756,5.297356497510846
1760681815.7730627,-7.578581995593979,-0.061512213453050454,1.265580789873415,0.04218466415297252,-29.09594344916447,11.136084865126849,0.5392244425088492
1760681815.7831438,-7.532306912881886,-0.030646400858210084,1.2443177136124906,0.06520072222841239,-31.937550355979127,9.802032206928393,-4.1535125685397976
1760681815.7930217,-7.515406132965992,-0.005396229694379938,1.2138206964663392,0.07275100134866856,-34.67763177479785,8.986154633411676,-8.499593556106976
1760681815.8030376,-7.529224027938899,0.01179404280950052,1.1759846494267259,0.06547002633336642,-37.051557678967335,8.642078906808111,-12.257099576632333
1760681815.8130226,-7.575157388018237,0.01884091408212822,1.1328119066169562,0.045715418207829796,-38.7763602033701,8.659526555889842,-15.258365446378814
1760681815.823148,-7.655004617268664,0.014227530006293293,1.0862488169883062,0.017237573569815458,-39.58264204297819,8.878036461532494,-17.43620332558437
1760681815.833302,-7.771214015961706,-0.0027909709738018805,1.0381172337836433,-0.015325534855254229,-39.24923483907177,9.103375344354346,-18.83743089441075
1760681815.8432405,-7.926961323776099,-0.032021393483333736,0.9901320464879695,-0.047065537203620514,-37.635639082363795,9.124364841742636,-19.621691057914415
1760681815.8530624,-8.126032730771993,-0.07224808420213477,0.9439672530534825,-0.07346032045093298,-34.70713602462649,8.728801965851565,-20.045610768388723
1760681815.8630483,-8.37253559526119,-0.12125969316893949,0.9013170427420764,-0.09098668111362726,-30.54827628874008,7.718017562938486,-20.434044657022937
1760681815.8729563,-8.670491255010866,-0.1759932518872063,0.8639010775188605,-0.097597785301365,-25.362008882401852,5.920211836380288,-21.141362137787077
1760681815.8830225,-9.023376854256648,-0.23277928642204518,0.8333843773231886,-0.09298111276062518,-19.453713783536216,3.2029793461499865,-22.50665047532348
1760681815.8930736,-9.433677330113836,-0.2876578103551342,0.8112143435425995,-0.07854195821251904,-13.201594544110415,-0.514622694992187,-24.807561091167376
1760681815.9030583,-9.902489692756761,-0.33672944893212564,0.7984096491389705,-0.05710705338392427,-7.017053468291129,-5.250516799769857,-28.218311511608388
1760681815.9133806,-10.42919722578091,-0.3765049360525586,0.7953578728880989,-0.03240025659518683,-1.3004492278498836,-10.949334735037535,-32.777711974043875
1760681815.9233017,-11.011212622785918,-0.4042191340973307,0.8016825545653232,-0.00839017181589987,3.601467724694982,-17.47504334534151,-38.372535256080624
1760681815.9331057,-11.643789538601618,-0.4180847863688047,0.8162220936456481,0.011367718407180222,7.430459386218413,-24.608660731013575,-44.73990236262668
1760681815.9429939,-12.319926917001043,-0.417474783647625,0.8371290170916186,0.024280031835513475,10.039501793940987,-32.053317349495885,-51.4899127728922
1760681815.9530282,-13.03042757998146,-0.40303091986908746,0.8620644933190716,0.02907284582301455,11.40089262617528,-39.448408994323444,-58.14702570898238
1760681815.963039,-13.76419583331212,-0.3766927399451253,0.8884442729518964,0.02591559765527164,11.599715665273845,-46.39355929184387,-64.20603658321377
1760681815.9732382,-14.508844076991975,-0.34162318555489274,0.9136923406855053,0.016308537477887998,10.81471561637349,-52.48155004975238,-69.19601126316246
1760681815.9830678,-15.251618596005232,-0.30199319813547,0.9354714724037928,0.002763288543355749,9.290221334081936,-57.33739043001356,-72.7434817329687
1760681815.9932346,-15.980565536477041,-0.262595370812732,0.9518763732634482,-0.011666514599443328,7.3036452725947605,-60.65875998307954,-74.62517871483038
1760681816.0031865,-16.685770902183062,-0.22829478909293352,0.961586768863934,-0.023924066493799214,5.133180220516924,-62.25191628854591,-74.80130214503441
1760681816.0132675,-17.360455065275186,-0.2033790059826303,0.9639796343380022,-0.03146288386394129,3.0296508751442595,-62.05728826250184,-73.42305422114025
1760681816.0232239,-18.001702397875448,-0.19091463288767524,0.9591926479298853,-0.03264470654355557,1.1952784780637697,-60.16029990193646,-70.81238386335117
1760681816.0334272,-18.610663118853235,-0.19223945754757088,0.9481219168047361,-0.026958508955434984,-0.22928234365590608,-56.785069054204364,-67.41667457049428
1760681816.0431912,-19.192164193746457,-0.20671032621707486,0.9323346620382619,-0.015037430776258607,-1.16953825244432,-52.271083909927235,-63.74544698496206
1760681816.053116,-19.7537835914679,-0.2317857324713069,0.9138872649780421,0.0015104474658779493,-1.6141960345497428,-47.0354266481042,-60.29915707699634
1760681816.0631428,-20.304546775209666,-0.2634517322628866,0.8950600380062579,0.020412516282042773,-1.6059902297360766,-41.525256219994006,-57.501262623093325
1760681816.0731173,-20.853469919762553,-0.29691728829202657,0.8780449657709027,0.03912185084738046,-1.2279335043389732,-36.166778898771405,-55.6437967821549
1760681816.0829666,-21.40818790262862,-0.3274381035199485,0.8646410765048246,0.05522115997750063,-0.5868269025566587,-31.317592230933325,-54.854059250769375
1760681816.0935268,-21.973869863389098,-0.35110051021954136,0.8560156751986912,0.06677919215874739,0.20396345503937707,-27.228935968841892,-55.08629868370188
1760681816.1031165,-22.552557017049402,-0.36541541568483904,0.85257605245518,0.07261031480717903,1.0404051742763287,-24.023006862435178,-56.1381375244059
1760681816.1133704,-23.1429770320977,-0.3696248525194291,0.8539706243367691,0.07240565380629953,1.8405178545184222,-21.68829720970373,-57.68773425813443
1760681816.123084,-23.74081422013775,-0.36469097066980316,0.8592103590818142,0.06672584012857682,2.5525641822203027,-20.09331349703953,-59.34489769483093
1760681816.1331542,-24.339355636631325,-0.35300170437262307,0.8668789029051949,0.05686797374223938,3.1580974032277602,-19.016461900218058,-60.70791162180585
1760681816.1432822,-24.930393976638154,-0.3378757891536317,0.8753866484439947,0.044638374484698366,3.6700238494959225,-18.187654155703232,-61.41777512631432
1760681816.1531677,-25.505248773237692,-0.3229740489181138,0.8832205184479646,0.03207374939464129,4.126488526095965,-17.33550058658618,-61.202752264542625
1760681816.1632164,-26.055765741560233,-0.3117215518083591,0.8891463463248178,0.02115487652212005,4.581819305231597,-16.233053070250552,-59.90820906409084
1760681816.1729288,-26.57516723151232,-0.3068209053235178,0.8923324952276407,0.01355062354260394,5.095967889838625,-14.735164031714412,-57.509256841656935
1760681816.1831915,-27.058651940475443,-0.3099022516716382,0.8923798547774743,0.010420087738656124,5.723922071346235,-12.80171327834215,-54.10626246288867
1760681816.1932504,-27.503677797110356,-0.32132640854297484,0.8892627159160208,0.012290723799360382,6.506494862184606,-10.503089789805282,-49.90544018013427
1760681816.2033255,-27.909907325891368,-0.3401447522694206,0.8832044595306574,0.019022082183948137,7.46372817280425,-8.00709114249498,-45.18827429808467
1760681816.21318,-28.27884593204608,-0.364218628699717,0.8745278598567502,0.02985675693143072,8.591817811398254,-5.549386664097571,-40.27435799841291
1760681816.2232215,-28.613251451966523,-0.3904979042004589,0.8635276985441789,0.04355023502980309,9.863904561092005,-3.3924073172571103,-35.4823823757349
1760681816.233014,-28.916427478139294,-0.41544251909413826,0.8504076632962351,0.05856035828781124,11.234345044138706,-1.7795317352433486,-31.093574611463463
1760681816.2436686,-29.19152583709355,-0.43554330587164103,0.8353012745156965,0.07326865498891377,12.645426230050836,-0.8923232704287853,-27.32107598424604
1760681816.2529883,-29.44097186083386,-0.44786796994506317,0.8183644478376445,0.08620259653181932,14.035190441255839,-0.8180243013909044,-24.2878222912651
1760681816.2631433,-29.666092127714975,-0.4505386535945216,0.7999001365726464,0.09622970230873756,15.345124879477748,-1.532535596009343,-22.014636200120798
1760681816.273128,-29.866977498945513,-0.44305180087142687,0.7804671223231862,0.10269927323591863,16.526708389926632,-2.9011483051160116,-20.419516328505377
1760681816.283349,-30.04256698790332,-0.426382120718059,0.7609390403518178,0.1055133335632561,17.545984536890572,-4.696078127940937,-19.32838946318976
1760681816.2934828,-30.19090088912669,-0.40285892786653316,0.7425051633469814,0.10511517984695574,18.385485725204934,-6.627093822418095,-18.496672962300835
1760681816.3034198,-30.309472201441018,-0.3758470374634723,0.7266228752386664,0.1023938370874678,19.043158113998896,-8.379744186032699,-17.63978932953588
1760681816.3133533,-30.39560568780346,-0.3492929440598153,0.7149339361561516,0.09851594497167673,19.52849482628968,-9.65505309613582,-16.469464498939534
1760681816.3231237,-30.44680795204092,-0.3272075373664284,0.7091489395267009,0.09470953722106502,19.85672572592288,-10.204954934560973,-14.731578982436337
1760681816.3331804,-30.461051146967442,-0.31315427550462727,0.7108978710708578,0.09203275129250088,20.04240803555755,-9.85892969924002,-12.240827930188777
1760681816.3429646,-30.436973633174777,-0.3098036729027425,0.7215449169586767,0.09116345006318342,20.093949654108602,-8.539019290690833,-8.907611153463721
1760681816.3530989,-30.374002771880665,-0.31860425571371076,0.7419728221972642,0.0922435354418656,20.010424175724268,-6.262427835450532,-4.753402252271755
1760681816.363152,-30.272423920500767,-0.339604878222178,0.7723545091442438,0.09480471448331651,19.781554362582337,-3.1329349488348046,0.08777895680806816
1760681816.3731546,-30.13342528097796,-0.371441427396266,0.8119448717444364,0.09779136211667724,19.391071464275033,0.6760014077489068,5.382445271074068
1760681816.3829849,-29.959132343752653,-0.4114766506120882,0.8589397433725781,0.09968272248226834,18.822951485792576,4.942675904248562,10.824085442793578
1760681816.3931408,-29.75261406840561,-0.4560655225997683,0.9104565271613059,0.09870258383147137,18.069425213092288,9.419365725082574,16.07001376854025
1760681816.4030612,-29.517815579667722,-0.500917345262424,0.9626864176409717,0.09309017237720674,17.139253916004826,13.852539991917157,20.784147710372217
1760681816.4131489,-29.259369255671885,-0.5415344628479941,1.0112475077253402,0.08139230851266072,16.06459335226769,17.999677713408566,24.68017455410487
1760681816.4232008,-28.98226393979287,-0.5737106169583501,1.0517292441159984,0.06272739530600412,14.90481719477987,21.64274659963572,27.559158452802055
1760681816.4329731,-28.69139928585315,-0.5940563139878275,1.080363948472791,0.036971974006450595,13.745909111771983,24.59922894949397,29.33603794504373
1760681816.4430287,-28.391097726334788,-0.6004866408073036,1.0947020410162838,0.004834041183489449,12.694479215665963,26.73154033812179,30.05078196323133
1760681816.4532123,-28.084671849681914,-0.5925776049145277,1.0941263222943096,-0.0321987289861205,11.86619949886158,27.95491931762067,29.8621510519712
