timestamp,angle,linear_acceleration_x,linear_acceleration_y,linear_acceleration_z,angular_velocity_x,angular_velocity_y,angular_velocity_z
1760516569.9723003,-3.485862860442726,-0.033606905889761715,0.9806028940473622,-0.2743453430793295,9.45037285628163,-0.4298068888189895,7.868342044410277
1760516569.9823122,-3.366603865300796,-0.04058056461021308,0.982961807867021,-0.28740856045964797,9.006371896004898,0.05113390094752332,7.33970011864157
1760516569.9922106,-3.2784518604610304,-0.048989877365291035,0.9847590265053597,-0.2999102280826809,8.461568399913796,0.6955868437418437,6.844905293044062
1760516570.002215,-3.221431426997085,-0.05801427669005951,0.9858308522444027,-0.31120238232134667,7.8213009386797285,1.441790635828547,6.394438104807763
1760516570.0122273,-3.192832700649541,-0.06666052675149518,0.9860236961947612,-0.32064474570731216,7.094338314740576,2.216293725762752,6.000644444493763
1760516570.022337,-3.187307361064144,-0.07390893429102166,0.9852068117369591,-0.32766123958729604,6.29209379193294,2.942562974895595,5.6757979209638645
1760516570.0322495,-3.197348884403721,-0.07886576007990577,0.9832903177701022,-0.3317937868959674,5.428127900894382,3.5493422621778605,5.430001137655547
1760516570.0422382,-3.2140829259952706,-0.08089366579534885,0.9802474036593465,-0.33274743077932817,4.517968894127624,3.9779657747757806,5.2693482337369835
1760516570.0522318,-3.228244498966642,-0.07969885209556747,0.97613792178082,-0.3304226585166156,3.5791899447863678,4.1880083303584135,5.1946830194709985
1760516570.0622332,-3.2312049143052666,-0.07536733684118423,0.9711276556218468,-0.32493298080035316,2.6316060524573652,4.160854215829298,5.20113884279534
1760516570.072243,-3.2159295692587704,-0.06835559282289849,0.9654953050509788,-0.31660690997815677,1.6973945606100636,3.900981583155921,5.278478309801239
1760516570.0822508,-3.177775808125555,-0.05944510086426248,0.9596206883086907,-0.3059734560117939,0.8009150633765144,3.434981631054125,5.412109550268428
1760516570.0923183,-3.1150588363127114,-0.049667001395549,0.9539531812452151,-0.29373032222975,-0.03197548357360879,2.8085442981157214,5.584570684641006
1760516570.102326,-3.0293226953919534,-0.04019932379285965,0.9489656751052324,-0.28069525676869816,-0.775236299317571,2.081823488666061,5.777245148382434
1760516570.1122432,-2.925266587884328,-0.03224087667130018,0.9451027745240367,-0.26774346680609573,-1.4045706262666255,1.3237211470375874,5.972075367025024
1760516570.1222339,-2.810306812821846,-0.026872324663977036,0.9427317205502643,-0.255736577753441,-1.89978570139629,0.6056819495810144,6.153059138233438
1760516570.1322296,-2.693802999862337,-0.024922311168660623,0.9421018982098899,-0.2454502462577182,-2.2472562206698754,-0.004439183443480311,6.3073375352564325
1760516570.142497,-2.5860347502591448,-0.026860575521443292,0.943315674150154,-0.2375079056475259,-2.442085613630543,-0.4479800865716881,6.425729750256683
1760516570.1522274,-2.497062995371133,-0.03273756289814647,0.946311553508081,-0.23232761697647622,-2.489570679420373,-0.6802420215878638,6.502659939169721
1760516570.1622233,-2.4356303142097304,-0.04218047775803103,0.950861161146559,-0.2300881518812626,-2.40566686765184,-0.6742745858945494,6.535557101718158
1760516570.1722164,-2.408239186878063,-0.05444316833703882,0.956583005759693,-0.23071931203296436,-2.2163048033132706,-0.4236050036860622,6.5239542073986225
1760516570.1822371,-2.4185067969393965,-0.06849758361422877,0.9629754038543193,-0.23391937481891784,-1.955592824955404,0.056175397479437415,6.468596892674493
1760516570.1922212,-2.466846894947182,-0.08315045290848103,0.9694671494648729,-0.2391986751758911,-1.6631099980189088,0.7271547327526268,6.370838892048182
1760516570.2022333,-2.550485146128872,-0.09716859981654516,0.9754799899354283,-0.24594314853985544,-1.380608445599484,1.530476252460877,6.232456101510406
1760516570.2122266,-2.66377602262842,-0.10939682270096122,0.9804947743041469,-0.25348711613654984,-1.1484908990352254,2.389689035056731,6.055820873480925
1760516570.2222278,-2.798754206942272,-0.11885258205098394,0.984113493345418,-0.2611830954268262,-1.0024274633553367,3.2163086797854246,5.84422756927789
1760516570.2322252,-2.9458261168083126,-0.12478472779433046,0.9861104402950266,-0.26845911559396074,-0.9704512861789582,3.917543181542086,5.6021047373333435
1760516570.2423491,-3.094501730867694,-0.1266928230070262,0.9864658928260999,-0.2748593868231388,-1.070836302622858,4.405732602418875,5.334898059131624
1760516570.2522614,-3.23409331665064,-0.12431750699346711,0.9853752699048447,-0.280068880967136,-1.3110010849765479,4.608610531393735,5.048538051178955
1760516570.2622335,-3.354356081398804,-0.11762288134970923,0.983227492596669,-0.2839241609614148,-1.6875886802294815,4.479125589926992,4.748575072902029
1760516570.2722616,-3.446090372015719,-0.10679198095598573,0.980550003577727,-0.28641186911887756,-2.1877469786468637,4.0033665776393415,4.439212900157112
1760516570.282227,-3.501741978371447,-0.09224541532757438,0.9779246708597105,-0.28765427874535215,-2.791494885613937,3.2052003700276095,4.122536704348165
1760516570.2922225,-3.5160165041732143,-0.07467618863332011,0.9758873499281135,-0.2878798658337588,-3.4749240329132447,2.1465686584211148,3.7981722303947527
1760516570.3022583,-3.4864727831986464,-0.05507804700927729,0.9748314105755379,-0.28737714424453414,-4.2138694513856505,0.9229108216324968,3.46344391580702
1760516570.3123798,-3.4140018780614017,-0.034738104815153735,0.9749375450273077,-0.28643265877241736,-4.9876020376490375,-0.34623210185676384,3.1138858611370726
1760516570.3222322,-3.303062996866396,-0.015171119527261403,0.9761455262162835,-0.28525881245239026,-5.782064163346161,-1.5307834848135982,2.7437886568850174
1760516570.3322346,-3.1615596317737507,0.002009290526258423,0.9781707155348924,-0.28392290636190387,-6.592197132071405,-2.5066179767862655,2.346412761134245
1760516570.3423417,-3.000301609272018,0.015265514753096898,0.9805565335894114,-0.28229339940489667,-7.42301254518177,-3.173128017830421,1.9136028038270647
1760516570.3523412,-2.83208913961784,0.023324469778779108,0.9827498455276655,-0.28002012847193597,-8.289257696814168,-3.469542063387786,1.4347792529254761
1760516570.3623264,-2.6705375977483428,0.025344148414076145,0.9841881006009738,-0.27655976187448184,-9.213795390387045,-3.387448180900394,0.895588444976123
1760516570.3722959,-2.5288104501049316,0.021029713636644038,0.9843894966576655,-0.27124736396747534,-10.225067693738302,-2.97717615609096,0.27674621452998277
1760516570.3822267,-2.418437291607302,0.010682003010506825,0.9830376420331746,-0.26340429864606046,-11.354125381094475,-2.346372736157948,-0.4462887830448429
1760516570.3922434,-2.348372193242487,-0.004826896793653234,0.9800516686379835,-0.2524652298960389,-12.631635827983184,-1.6502083828599368,-1.3022753498326112
1760516570.4022737,-2.324403264735765,-0.024144876550128626,0.9756333668588295,-0.23810250405787764,-14.085097809092249,-1.0739788588026498,-2.321528981323919
1760516570.412335,-2.3489650027741953,-0.045581616105851076,0.9702848120928267,-0.22032370426427547,-15.736316211128846,-0.8101154456446544,-3.5317960049454222
1760516570.4222436,-2.4213402037451073,-0.0672781665958912,0.9647919496352927,-0.1995183743959945,-17.599117834833194,-1.0325322436676057,-4.953282267210435
1760516570.432249,-2.538179836392962,-0.0873797796662864,0.9601702294061432,-0.1764345849240549,-19.677336191895392,-1.8716924059148654,-6.5938668905914595
1760516570.4422543,-2.694228341160221,-0.10419062746956316,0.9575683163180092,-0.15207677185719684,-21.963209526325155,-3.393757588204195,-8.4457695844414
1760516570.4522567,-2.883126621819037,-0.11629671383561697,0.9581287020330739,-0.1275334293715754,-24.436456472518735,-5.58673890509783,-10.484919798909996
1760516570.462347,-3.0981803114483055,-0.12265505041264423,0.9628125857897246,-0.10376363580951128,-27.064365165584164,-8.35578113396725,-12.673965202181678
1760516570.47231,-3.3330240625369543,-0.12266005199234611,0.9722095342753803,-0.081388193152932,-29.803216212639576,-11.528710955231286,-14.969251343928088
1760516570.4823039,-3.582167848143626,-0.11620423519403358,0.9863653963685773,-0.06053705114238459,-32.60123256122284,-14.871866570434339,-17.3312318673805
1760516570.4923625,-3.8414527782147507,-0.10374189575294443,1.0046690234524993,-0.040795903407822694,-35.40301348608243,-18.115042021398427,-19.736740266955078
1760516570.5022376,-4.108451009049969,-0.08634301033652445,1.025835885205291,-0.021273629251490768,-38.15510438850649,-20.983147152006442,-22.190594960231795
1760516570.512234,-4.382815956515764,-0.0657032733539251,1.048014280091874,-0.0007860526773800624,-40.8120243847903,-23.23096272599492,-24.73342668415166
1760516570.5222626,-4.666544169498631,-0.04407065939404201,1.0690186757370488,0.021872181642295256,-43.34175744809985,-24.676292482193425,-27.44270174838325
1760516570.5335572,-4.964073894542054,-0.024065912124456326,1.0866657821316408,0.04761414927654054,-45.72948880054544,-25.226115285636567,-30.42480566604937
1760516570.5423493,-5.282134863566905,-0.008408166759866213,1.0991556508676186,0.07676517454550513,-47.978402444273655,-24.890393872328197,-33.797677478799585
1760516570.5525804,-5.629285181679119,0.00040707196083496157,1.1054131623046415,0.10885003220160822,-50.10680951880113,-23.77948336468362,-37.66561092215678
1760516570.5625124,-6.015120479795889,0.0004115706235834521,1.1053007294184212,0.1425194936848942,-52.14169291123344,-22.083916686877455,-42.09007778894367
1760516570.5722604,-6.449204434278562,-0.009603078048128212,1.099639149621077,0.17565018224835202,-54.10959324837738,-20.03938309236998,-47.06220092550303
1760516570.5823274,-6.939830071134842,-0.029937675087914534,1.0900210146289484,0.20561927288853318,-56.026277299532126,-17.883772055335193,-52.48315571044773
1760516570.5922828,-7.492764060389464,-0.05990287543292084,1.078452071470869,0.2297202806885378,-57.88679236283573,-15.815688665837397,-58.15791917096968
1760516570.6022613,-8.110147091342924,-0.09778728225465383,1.066899098964418,0.24565140587628875,-59.65757894254115,-13.963769075006129,-63.80553017038253
1760516570.612265,-8.789723338190242,-0.14090595324020605,1.0568522353309149,0.25197572936033585,-61.27245626933306,-12.373288787098629,-69.08588683966633
1760516570.622317,-9.524548786889516,-0.18580219401715292,1.0490151174867568,0.24843474730023327,-62.63428950521858,-11.011798299415599,-73.63972161224432
1760516570.632261,-10.303273148859377,-0.2286582976629275,1.0432067769128657,0.23601870792146692,-63.62352379724007,-9.790351855663381,-77.13537215671276
1760516570.6424336,-11.110997731181785,-0.26587447589337887,1.0384957825689862,0.2167714755915732,-64.11327324961165,-8.592998099828641,-79.31395137567051
1760516570.652264,-11.930597164136485,-0.2946635990218641,1.0335107188191066,0.19340049149824276,-63.988629582633344,-7.305917777820689,-80.02422454940876
1760516570.6622577,-12.744294973718572,-0.31347793385695777,1.0268182182100816,0.16881520763364322,-63.166201889531074,-5.8393784909497635,-79.24044246050423
1760516570.6722615,-13.535240258222775,-0.322155971654706,1.0172565729246819,0.14570720146019564,-61.60947836726989,-4.139576470949612,-77.0603001415268
1760516570.6823056,-14.288857395699672,-0.32178922951651423,1.0041518750570162,0.12623944961426492,-59.336632195653884,-2.1913488039330113,-73.68482779541739
1760516570.6922734,-14.993815729152253,-0.3143916782247588,0.9873946738082716,0.11186764450696071,-56.41941987024458,-0.014834635343999689,-69.3857420894643
1760516570.7022433,-15.642560896135118,-0.3024851643332163,0.9673947018935823,0.10328807055898016,-52.97408318746076,2.340845869985276,-64.46755596499759
1760516570.7122443,-16.231434939380062,-0.28870210655958806,0.9449524666038521,0.10049155445529177,-49.14690808773398,4.804936938652555,-59.23147337891958
1760516570.7222407,-16.760469599074206,-0.27547141703939604,0.921091802368898,0.102894380453936,-45.09780111715625,7.292572387177299,-53.94634576669816
1760516570.7324154,-17.2329602721251,-0.2648151607263861,0.8968917369726809,0.10951163910075418,-40.984878337944394,9.712256762552906,-48.829555549382505
1760516570.742466,-17.654922241083437,-0.2582546646668592,0.8733445986488236,0.11913787484414413,-36.95202587188265,11.973220323379604,-44.038380106598595
1760516570.7522619,-18.03450654141117,-0.25680704664031884,0.851254669049148,0.13050676742282738,-33.12022702296421,13.992431723882486,-39.67064696979791
1760516570.7622604,-18.381420252006176,-0.26104143568360416,0.8311807066493271,0.14241513130426506,-29.582552037227796,15.70084951548517,-35.77242019753735
1760516570.7722566,-18.70636230362253,-0.27115600983489413,0.8134180841155874,0.153811195098822,-26.40222226804519,17.04837296463073,-32.34993990835082
1760516570.782279,-19.020457954622394,-0.2870367272423643,0.7980130098324979,0.16385588561707826,-23.61303217056787,18.0069976794874,-29.382957339507904
1760516570.792263,-19.334662090643466,-0.3082728144683121,0.784801536827892,0.1719656067650096,-21.22147072973261,18.571909154865036,-26.83695092206307
1760516570.802277,-19.65911232203138,-0.3341317839243899,0.7734672638238236,0.17783899799686112,-19.209982070918148,18.760599497526744,-24.672467610248788
1760516570.8122566,-20.002447593988823,-0.3635249165764662,0.7636113183469563,0.18146472060003746,-17.54090932238932,18.610435547972283,-22.850869465638564
1760516570.822256,-20.37115275205713,-0.39500546740378123,0.7548256696653749,0.18310640476383383,-16.160801768636016,18.17529064680255,-21.336774471468612
1760516570.8325477,-20.76902247582643,-0.4268298571284691,0.7467574809243079,0.18326338678865822,-15.004904882936748,17.52180803123123,-20.09813869739619
1760516570.8422592,-21.19684321919562,-0.4570868030704349,0.7391512230227769,0.18260817263673154,-14.001714369981935,16.72564722193662,-19.105100724973777
1760516570.8522775,-21.652366900374652,-0.4838765389823047,0.7318598409739249,0.18190240039961086,-13.077424329232635,15.86781841247992,-18.3284997469578
1760516570.86227,-22.130603452807748,-0.5055103053736367,0.7248264133866554,0.18189472292421943,-12.1600073923711,15.031062587969329,-17.738588110032705
1760516570.8723798,-22.62440419504095,-0.5206985898009017,0.7180486762627774,0.18320879321057645,-11.182655017424175,14.296203690767499,-17.30408527286416
1760516570.8822935,-23.125259030597167,-0.5287020433322923,0.7115440415855638,0.1862363043480396,-10.086441177552768,13.73840386488813,-16.991520591169515
1760516570.8922536,-23.62419976951257,-0.5294284862486085,0.7053294959170511,0.19105484769803704,-8.822296324951724,13.423241172080234,-16.764834676542332
1760516570.9022632,-24.112693647348173,-0.5234691688475561,0.6994214666527154,0.1973893903239593,-7.352567161184029,13.402534940645527,-16.585347305416807
1760516570.9122567,-24.583422683535996,-0.5120748255939543,0.6938504846313774,0.2046283075270998,-5.652488298677271,13.709910602937748,-16.41228694482973
1760516570.9222617,-25.030871010087676,-0.4970769811554409,0.6886787768277649,0.21189253955689002,-3.7117801893717273,14.356208201600296,-16.20402275151035
1760516570.9322698,-25.451677681026993,-0.4807628054807009,0.6840082281725921,0.21814416705927314,-1.5363776204414978,15.324961422189538,-15.919963552699041
1760516570.9422557,-25.844747725847334,-0.4657118837861397,0.6799715156706561,0.2223126929249873,0.8499182464373123,16.56831172160281,-15.522865791165243
1760516570.9522436,-26.211139288789393,-0.4546004309654525,0.6767082327853915,0.22341562654657754,3.4042305888144924,18.00389830305594,-14.981106994719518
1760516570.962247,-26.553753823773512,-0.4499746717766903,0.6743359436169077,0.22065442278063754,6.064322760150977,19.51345757432,-14.270392993769008
1760516570.9722626,-26.876851808124353,-0.4539940888928333,0.6729292342328598,0.21347559813330136,8.74982603389065,20.94400200309363,-13.374401164295563
1760516570.9823534,-27.18540914995142,-0.4681516332154967,0.6725180156633913,0.20159693893078004,11.365672103489022,22.112451549386677,-12.284021419855662
1760516570.9922686,-27.484334637106166,-0.4929942729545975,0.673112936277622,0.18500681389387644,13.80848867531545,22.814402538753093,-10.99512371097101
1760516571.0023346,-27.777595258737286,-0.5278883820907789,0.6747619224425321,0.1639485404692683,15.976617926835443,22.837293938251914,-9.505090928758761
1760516571.0125234,-28.067335643462098,-0.5708875382471088,0.677635126520349,0.13890147229492109,17.783993117829798,21.977580035777805,-7.808606391401668
1760516571.0223536,-28.35310796635746,-0.6187545056340311,0.6821249745311967,0.11056723901852944,19.177255337163885,20.06076519567206,-5.893315857507309
1760516571.032285,-28.631331071301307,-0.6671654324071596,0.6889368802743976,0.07986473234403373,20.154239521100486,16.962504255568074,-3.7360388651277994
1760516571.0422797,-28.895070567318758,-0.7110919849676611,0.6991389871418558,0.04793246715194169,20.7805216992192,12.628580042324444,-1.300264143333976
1760516571.0522654,-29.134186896108663,-0.7453241998833205,0.7141390250931774,0.0161334148208225,21.199546705553026,7.09145293657743,1.464274828029644
1760516571.0622401,-29.335850016204205,-0.7650673812039587,0.7355649850215241,-0.013944459492367531,21.63154834839881,0.4811484855346857,4.619198585256526
1760516571.0722604,-29.485377198390378,-0.7665257739958781,0.7650445518727219,-0.04050047507959558,22.357498277302785,-6.971525069489133,8.231783212087587
1760516571.0824943,-29.567317276716643,-0.747382023409183,0.803903777535235,-0.06155787387580089,23.68672086646999,-14.94096191295177,12.365965238982662
1760516571.0922618,-29.566678763210362,-0.7070995515417211,0.852831270019571,-0.07504015770059881,25.910186780638472,-23.022666490362123,17.07055016622629
1760516571.1022725,-29.47018264103207,-0.6470105052140583,0.911570059641676,-0.0789045449239469,29.245153530968313,-30.758706680678063,22.365491302556233
1760516571.11243,-29.26742280302565,-0.5701916432088592,0.9786991403331056,-0.07134639976284883,33.77990532455739,-37.6710889331729,28.22737591340106
1760516571.1222537,-28.951842575193762,-0.4811612233742386,1.051553676232813,-0.051076044824962794,39.42900886661451,-43.30017339999253,34.57565736898174
1760516571.1326149,-28.5214723017724,-0.3854459097639143,1.1263130866666562,-0.017648774113554692,45.909178710625056,-47.24413810505788,41.26183995924217
1760516571.1424735,-27.97940028470377,-0.28907003366371176,1.19826150337532,0.028195928751793723,52.74344913100599,-49.19480079826686,48.06452550256839
1760516571.1522655,-27.333958336513035,-0.1980183437019278,1.262199326373219,0.08425527536397423,59.29723770671723,-48.96516878192016,54.69344543385555
1760516571.1624486,-26.59860097333593,-0.11772542891945394,1.3129661447882421,0.14673343199805947,64.84470474185537,-46.505159293862576,60.8048590262566
1760516571.1723392,-25.791456603646644,-0.05264625947749587,1.346023982829738,0.21035182050707465,68.65837116521092,-41.9038666236561,66.02887432252905
1760516571.1823058,-24.934538426232052,-0.0059521738942248425,1.3580362809701048,0.26875790302516167,70.11014100665838,-35.379006959182114,70.00666750297245
1760516571.1923015,-24.05262526986917,0.020624067755070447,1.347361582844899,0.3152245939297985,68.76856170514284,-27.256165212798535,72.4329237013488
1760516571.202311,-23.171857155261073,0.026793974031333646,1.3143732344238699,0.3435541627400586,64.4761280649212,-17.94181668075672,73.09691234061836
1760516571.2122934,-22.31813022862851,0.013595027332860945,1.261528585739726,0.3490406983483171,57.39224561251321,-7.894576440884743,71.91509403253605
1760516571.2223332,-21.51541030868663,-0.016801889995044655,1.1931485595332105,0.3293200998243413,47.99223041200042,2.4014133436796796,68.94927121576042
1760516571.2325375,-20.784105309951446,-0.06130252899416798,1.1149273752295368,0.28494239910811625,37.01989232698836,12.4586412577872,64.40677962187382
1760516571.242406,-20.139641890352284,-0.11608296781593053,1.0332536773820482,0.21953058547485965,25.399545493204602,21.80392656092553,58.62242190097586
1760516571.2522705,-19.591381956266385,-0.17677462798748014,0.9544640098597807,0.1394472324403503,14.120895565421296,29.99385005752322,52.02495115666195
1760516571.2623632,-19.14199094568641,-0.23867833227731314,0.8841573999304277,0.05298099601338688,4.115349703197035,36.6311315772311,45.093215593936044
1760516571.2722683,-18.787332482251646,-0.29704302929137866,0.826679377624309,-0.030826096323685624,-3.856319014341506,41.38445723215422,38.3082113640024
1760516571.282311,-18.51691570964787,-0.3474148412967073,0.7848395444466248,-0.10349878312850778,-9.287620261039386,44.0120959493023,32.10726597144247
1760516571.2923007,-18.31486800415736,-0.38602391723860685,0.7598668045561798,-0.15834337570032658,-11.969910572143187,44.38695211802666,26.845652546795623
1760516571.3024282,-18.161352948373583,-0.4101481324316782,0.7515509794612141,-0.19132630827282482,-11.992283333434758,42.518500922093395,22.769487697836006
1760516571.3124146,-18.034306151325037,-0.4183835440416938,0.7584919730163459,-0.2014649954632231,-9.701960860641623,38.56609588120373,20.002093344957906
1760516571.3223312,-17.911323930617797,-0.41076400477529845,0.7783848517225446,-0.19069425105325538,-5.635394630958608,32.83874866901963,18.54425493859994
1760516571.3322732,-17.771517607121787,-0.38870237440835526,0.8082972744963007,-0.1632855461534822,-0.43362351306756497,25.77847459367644,18.287116204739885
1760516571.3422601,-17.597146041841658,-0.3547637278512798,0.8449234475901094,-0.12497623584728347,5.244058680983844,17.927092600290017,19.0350284774011
1760516571.3522677,-17.374865383351448,-0.3123145815364657,0.8848147340960109,-0.08199692380330222,10.795969930914982,9.879320232539657,20.534706904673133
1760516571.3624754,-17.09648536440398,-0.2651111851160263,0.924593046998168,-0.040172475116713756,15.734773156530935,2.2275861601386664,22.506609285383604
1760516571.3722873,-16.759187913289534,-0.21689154230376248,0.9611531497300903,-0.004228747863214463,19.72062486168436,-4.494283201933889,24.67457542639581
1760516571.3823204,-16.365236097220997,-0.17102507249195711,0.991853970363981,0.02262370329672186,22.57048577139555,-9.860889289404358,26.79045320848016
1760516571.3922756,-15.921265755043644,-0.1302563982635427,1.0146892836959869,0.03882016892427575,24.246872790176297,-13.59198125640285,28.651584538535054
1760516571.402261,-15.437292331523564,-0.09655834644664088,1.0284209514253702,0.04432595680606731,24.831686553746025,-15.57167157873797,30.11037470131952
1760516571.4122694,-14.925572179714841,-0.07108787455770478,1.0326567293363997,0.04034019883987105,24.491704698450114,-15.848621256496047,31.076416916848103
1760516571.422278,-14.399436098489163,-0.054223220668367635,1.0278580079177784,0.028894257170800946,23.442027790367586,-14.618525050559647,31.51256099821859
1760516571.43291,-13.872178438951604,-0.045654053827606594,1.0152694579552684,0.012418085091575845,21.91257905499525,-12.192542869620144,31.426808781295957
1760516571.4423263,-13.356053866833319,-0.04449788540637432,0.9967728017253666,-0.0066607175060442924,20.121121913728295,-8.956777315757906,30.862012921854966
1760516571.4522717,-12.861415561948732,-0.049423674990867375,0.9746793603101055,-0.026235032148033587,18.254542607243458,-5.328337277345304,29.88513068036941
1760516571.4622622,-12.396023569345827,-0.05877439995072916,0.9514863012233078,-0.0447223775533852,16.45862045042782,-1.7130208254779393,28.577348286112297
1760516571.4722872,-11.964553628819608,-0.07068924663255535,0.9296255532083743,-0.06114473852985138,14.835340612473518,1.531475214385212,27.025877221312086
1760516571.482315,-11.568338471191527,-0.0832296083842312,0.9112307183330451,-0.07509391949856097,13.44605708409003,4.124209828911708,25.317762335000072
1760516571.492285,-11.205372575189303,-0.09451261049923988,0.8979382461910387,-0.08660920800259875,12.318466650009071,5.880029206991838,23.535706219957422
1760516571.5023236,-10.87060578872051,-0.10285365435451883,0.8907312273676655,-0.0960050295329626,11.45534077367985,6.718302044963732,21.755697679550927
1760516571.5122814,-10.556534519672866,-0.10691380011717344,0.8898351254206551,-0.10368993768247636,10.843206532722899,6.661278037073605,20.046086621451877
1760516571.5222745,-10.254062160529605,-0.10583615786087437,0.8946853117656609,-0.11001523080584076,10.459606293201787,5.822568321652498,18.467634738575168
1760516571.5323117,-9.953543062921625,-0.09934218937774322,0.9039943741380712,-0.11518184697550347,10.27813336814419,4.386992946587744,17.073981808644717
1760516571.5423014,-9.64586672991976,-0.08775587683460111,0.9159358912230677,-0.11921788889098002,10.271055568247553,2.5839660968664764,15.911930279460167
1760516571.5522723,-9.323413755938715,-0.07193961453006228,0.9284276163887768,-0.12201929214866436,10.409904524331882,0.6575086068417575,15.021021342968822
1760516571.5623071,-8.980744910074282,-0.05315487576596738,0.9394593591403813,-0.12342986611787068,10.66482150435894,-1.1634029351069344,14.432078474800347
1760516571.5722756,-8.61496312647373,-0.03288634771442142,0.9473939621726659,-0.12333089878247101,11.003611565994213,-2.690376055282173,14.16468188275033
1760516571.5823176,-8.225779808384914,-0.012674770265919911,0.9511824204754811,-0.12171603484009551,11.391325569890565,-3.7938667750346555,14.22383826716095
1760516571.592283,-7.815377753417535,0.006011830112832259,0.9504643966766816,-0.11873907343838053,11.790829516705266,-4.412223814655462,14.596397902717191
1760516571.6022692,-7.388168422586774,0.02186488196649475,0.9455550552894224,-0.11473283264551125,12.164385210002642,-4.551134398337919,15.24803408727332
1760516571.6122875,-6.950500090644218,0.033796121423313064,0.9373395046268129,-0.11020176156327263,12.475913390027277,-4.274619824037099,16.121764439516937
1760516571.6223083,-6.510317744032686,0.040992308067475065,0.9271081829620971,-0.10579127940696839,12.693435076207765,-3.689859415975854,17.138936560253512
1760516571.632282,-6.076737226364097,0.04297326803297592,0.9163715729902279,-0.10223725855031147,12.79119942032831,-2.9286647847455223,18.203257348439443
1760516571.642298,-5.659489192444696,0.039649081799848336,0.9066880002605779,-0.10030093850057939,12.751151759969078,-2.128389807466769,19.207874775347776
1760516571.6522717,-5.268210905019813,0.03136354996166681,0.8995224824585524,-0.10069575730297022,12.5635929477759,-1.414598030473141,20.044872624757037
1760516571.6622734,-4.911610124819261,0.018906705558537438,0.8961339765539209,-0.1040121263671459,12.227060760204068,-0.8871334020823972,20.615983759093297
1760516571.67228,-4.596586823923069,0.003476827107481979,0.8974754163829235,-0.11064597483644031,11.747585188319032,-0.610548879411356,20.843007705502927
1760516571.6823118,-4.327454978359042,-0.013423730775167599,0.9040942691886527,-0.12073858856144996,11.137521172851049,-0.6092539472403518,20.676404038029144
1760516571.6923501,-4.105432109471915,-0.030160948236202526,0.9160379643913347,-0.1341375800794046,10.414161776257957,-0.8672702986626584,20.100800448014503
1760516571.7023008,-3.9285437610133815,-0.045192944633760765,0.9327868270710075,-0.1503890903485913,9.598314523529977,-1.332128845699474,19.136621426893292
1760516571.7122877,-3.7920237952849365,-0.057310340066695914,0.9532456548629044,-0.16876817559662344,8.713001911130767,-1.9222087144192972,17.837630371527574
1760516571.7223034,-3.689187290449436,-0.06584398005373608,0.9758180168429996,-0.18834809847441994,7.782402710834193,-2.5366984334580094,16.28481267550943
1760516571.732307,-3.612630758846858,-0.07078559612566392,0.9985665196218373,-0.20810120884494393,6.831050226076651,-3.06728414114372,14.577602065782013
1760516571.7424986,-3.5555135105921005,-0.07278074747603344,1.0194369722717629,-0.22701603761036143,5.883165263322155,-3.410566536481252,12.823817229645192
1760516571.7522862,-3.5126411580793615,-0.07298879242011493,1.0365060862322908,-0.24420902951233825,4.961911429381039,-3.480072502237146,11.12970997840419
1760516571.7622797,-3.481131639667272,-0.07284755151855893,1.048208067230801,-0.25900770341151313,4.088405269752957,-3.2166199155883484,9.591235912770264
1760516571.772287,-3.460572521687506,-0.07380714519538399,1.0535053043124711,-0.27098826190995634,3.2804964885397143,-2.595799946827349,8.28720415952746
1760516571.7823832,-3.452715594667828,-0.0770948731382416,1.0519856766876379,-0.2799645433123605,2.5515541814203395,-1.6315440713649594,7.27455593161793
1760516571.7922854,-3.4608457463727733,-0.08354856664025674,1.0438846843651732,-0.2859401127948211,1.9096131539437056,-0.37519083782172674,6.585771271550429
1760516571.8022997,-3.4889858625082657,-0.0935268734650505,1.0300410725038909,-0.28904295545085407,1.3571633539049148,1.089876165873114,6.228271656947905
1760516571.8122957,-3.5410707307257687,-0.10688344801061088,1.0118017280929563,-0.2894599302816607,0.8916360000449227,2.657213576009079,6.185586349658211
1760516571.8230703,-3.6201710476039644,-0.12298355550371703,0.9908952091317409,-0.2873804836133923,0.5063824912075761,4.208503362948666,6.419949755937145
1760516571.8322823,-3.7278070522277513,-0.1407469368659878,0.9692904955801449,-0.282953340514252,0.19179012366366066,5.62520614208743,6.8759227492550945
1760516571.8422997,-3.8633792250298065,-0.1587138728980345,0.9490490963632777,-0.2762592099546425,-0.06382154821815142,6.7990462208370115,7.484616679017152
1760516571.852284,-4.023757305674375,-0.17514248587201361,0.9321702438790787,-0.26730436139489366,-0.2737704686692562,7.6401228290256755,8.168153387455131
1760516571.862352,-4.203090022148138,-0.1881480956052974,0.9204268419974081,-0.2560401346174105,-0.4531446588777704,8.082031214890172,8.844104834209771
1760516571.8722873,-4.392906881935579,-0.19588937278259533,0.9151962287863036,-0.24241031463582566,-0.619451667198252,8.083945851060067,9.42979405889181
1760516571.8823771,-4.582569039866198,-0.19679415800499728,0.9173011688908989,-0.22642238188454578,-0.7936229183299502,7.630047850151154,9.846463431913326
1760516571.8922923,-4.760087727058631,-0.18980410544247364,0.926886009047764,-0.20823145674161367,-1.0011246404485274,6.72692759816094,10.02337858450101
1760516571.902307,-4.913271971613682,-0.174605019064329,0.9433550549075762,-0.18821960102163257,-1.272874408853171,5.39968864559125,9.901903001726462
1760516571.9123018,-5.03110217002827,-0.15180146258391758,0.9653938769588502,-0.16705044603817581,-1.645656915011426,3.687478043807583,9.43944820581112
1760516571.9222932,-5.105165673186975,-0.12299249720505502,0.9910824834055175,-0.1456807552921498,-2.1617845906820166,1.639111028479903,8.613013868674784
1760516571.9327314,-5.130948862672045,-0.09071166215530724,1.018096017259453,-0.1253152812753023,-2.8678415844909066,-0.6906469839937138,7.42184026824771
1760516571.9423466,-5.108766619598299,-0.0582079115035777,1.0439751955005634,-0.10729773559960315,-3.812439351237387,-3.2437211840924585,5.888570221564683
1760516571.9523537,-5.04413093423024,-0.02906553684274985,1.0664343920610673,-0.0929394487423006,-5.042964133572583,-5.960008520171815,4.05832482929415
1760516571.962365,-4.947425308890482,-0.00669355630768551,1.083662034703496,-0.0833001313515065,-6.601329154273864,-8.7771014213222,1.9952697013705942
1760516571.9722981,-4.832866319970704,0.006242821342550893,1.0945620963816376,-0.0789516818344606,-8.51883626695364,-11.628328264874764,-0.22344524537344576
1760516571.9825788,-4.716879540216167,0.008339769982063799,1.0988915963926464,-0.07977176509885472,-10.810493868100467,-14.43918149678359,-2.5161087322709683
1760516571.9922864,-4.616148246586642,-0.00019628410142504297,1.0972656768454614,-0.08482156975885617,-13.469545816267525,-17.12262636321768,-4.8065398614990515
1760516572.00236,-4.545665107503977,-0.01745958870485437,1.0910247077952078,-0.09235439104623658,-16.463414550304293,-19.57438312476457,-7.034690425877052
1760516572.0123124,-4.517112464276332,-0.040055497855497994,1.0819837013592473,-0.09997564387308402,-19.73250063725401,-21.669880990220747,-9.166208655791744
1760516572.0223117,-4.537826202132762,-0.06359077195777879,1.07210899826353,-0.1049370238877743,-23.193051287018957,-23.26494485155983,-11.19930357420117
1760516572.0326512,-4.6104838132376,-0.08336934112552913,1.0631843350564094,-0.10451285791044546,-26.74450782751122,-24.20210014246625,-13.167567895794626
1760516572.0423074,-4.733524786007321,-0.09517752527704652,1.0565316207609952,-0.09638972326346552,-30.280542281927488,-24.323447720283326,-15.138108894234168
1760516572.0523236,-4.902186929415975,-0.09602020082553295,1.0528383216153336,-0.07900466361887674,-33.701834250889185,-23.48944291211407,-17.20515252621471
1760516572.062307,-5.109947299700828,-0.08466962938915407,1.0521173048830779,-0.05178465488783803,-36.928002556625735,-21.6010531511076,-19.479946214939485
1760516572.072313,-5.350104276810609,-0.061914899221797236,1.0537962935276433,-0.015260169973029569,-39.90621473599842,-18.62130392082116,-22.07812666430102
1760516572.0824866,-5.617231984165366,-0.030453432667694753,1.0569113079186818,0.02895560831716663,-42.61471644634343,-14.591710093129883,-25.105750430641415
1760516572.0923307,-5.908275792035912,0.0055596141089653515,1.0603620830474307,0.07831319259877043,-45.06055923336021,-9.639766028774467,-28.64506026895995
1760516572.1028228,-6.223129361959506,0.041208517217803366,1.0631735744492834,0.12957573161902583,-47.27196027519417,-3.9753031999695128,-32.740995775639455
1760516572.1126716,-6.5646276626317865,0.07160313527549128,1.0646991554371206,0.17913959841726787,-49.28690205924644,2.1244391470956727,-37.389602683132004
1760516572.1224432,-6.937990777719525,0.09257970267912774,1.0647104162101484,0.22339602991748717,-51.14056160681198,8.339216940117952,-42.52980115163518
1760516572.132419,-7.34984205285302,0.10118480795070024,1.0633537738266683,0.25910710934768294,-52.85455962405766,14.336155230216342,-48.04019585240908
1760516572.1423123,-7.8069867300089975,0.09589190999990556,1.0610032073985312,0.28376885301096616,-54.43054490453481,19.801392358643266,-53.7424932460695
1760516572.1522944,-8.315165506372928,0.07657589826773055,1.0580742008758248,0.29592493437054607,-55.84937650348104,24.467936684503997,-59.41251997951148
1760516572.1624072,-8.87798693803028,0.04432007605115988,1.0548679603490976,0.29538146384144803,-57.07559832241504,28.135441362668576,-64.79883166479819
1760516572.1723678,-9.49619394611714,0.0011514997037334258,1.051490128935061,0.28326867964643054,-58.065540493611884,30.67950975068696,-69.64755310743809
1760516572.1823616,-10.167344752676335,-0.050208915365912016,1.047850423159728,0.2619101707992388,-58.77656694276038,32.0508333814838,-73.73056663348964
1760516572.1923146,-10.885908648285998,-0.10653943920987081,1.043716513097505,0.2344954156565024,-59.17486440375455,32.26710347753165,-76.87278679706328
1760516572.202328,-11.64371152082764,-0.16427238427154095,1.0387816744852123,0.20460102686725878,-59.2397607059706,31.402167863470407,-78.97353606739223
1760516572.2123072,-12.430624800908847,-0.21967123214507397,1.0327161301714625,0.17565772347925698,-58.96377567377867,29.57647219177598,-80.01750722535864
1760516572.222328,-13.235374646495744,-0.26908605814074366,1.0251955271744797,0.15048757800110837,-58.34917149774042,26.950305277179964,-80.07264244052227
1760516572.2324364,-14.046350040452738,-0.30929183816087785,1.0159170639545316,0.1310137937810896,-57.40311380808079,23.718101363203747,-79.27497875840311
1760516572.2425475,-14.85230338539011,-0.337847506970388,1.0046146578674453,0.11818044529684502,-56.13395428853837,20.10042121761427,-77.80321161060442
1760516572.2523093,-15.642865651233965,-0.3533789312989206,0.9910770776133527,0.11205145449949232,-54.550321190373246,16.331398866218013,-75.84776671242561
1760516572.2623448,-16.408843472771693,-0.35571004149725455,0.9751693879762193,0.1120198355964554,-52.66319596405079,12.642076625715212,-73.58028333585564
1760516572.2723174,-17.142322977265614,-0.34582400540428887,0.9568600722903885,0.11705494086622463,-50.489830008256874,9.242069966462047,-71.12935276007833
1760516572.282342,-17.836657566929585,-0.3256910123172147,0.9362567848010134,0.12593276177993362,-48.05771752581819,6.302572341216683,-68.56690604929557
1760516572.2923179,-18.486444179362323,-0.2980239822536304,0.9136475403495078,0.13741571355904406,-45.40691093734452,3.9431975659040512,-65.90705613651637
1760516572.3023524,-19.08758384034457,-0.2660163631488877,0.889533258041063,0.15036627931612961,-42.589532451752085,2.2241866326171835,-63.11630034273563
1760516572.312532,-19.637481462226802,-0.23309282815351717,0.8646301483125826,0.16379507765645426,-39.66612846517587,1.1445130054999748,-60.13174480741482
1760516572.3223376,-20.13538113289622,-0.20268156136442997,0.8398244934254399,0.17685945802778455,-36.69928835175996,0.645628056264292,-56.88297485156179
1760516572.3323128,-20.582772868978804,-0.17800358628528914,0.816077666315635,0.1888389019297856,-33.745564077904476,0.6200660639310684,-53.31328862733539
1760516572.3423436,-20.983757807191765,-0.16186943940179646,0.794296818205178,0.1991135902409917,-30.847137402899918,0.9238640378042312,-49.39676798753615
1760516572.3522966,-21.345230684224664,-0.15647530772506504,0.7751979877175997,0.20716370908908488,-28.024830267732643,1.3916890275558846,-45.14868436657139
1760516572.362412,-21.676739891539288,-0.1632010168887776,0.7591919484625274,0.21259451323666145,-25.27384581341886,1.853606117400015,-40.62793527154655
1760516572.3723261,-21.989923348790704,-0.18242984613929908,0.7463208100626387,0.2151806863867435,-22.563079108350852,2.152439459057367,-35.93160170215117
1760516572.3823254,-22.29749351340949,-0.2134271374625899,0.7362647074424099,0.21491657373611095,-19.83816443718808,2.160585307934293,-31.183151648322003
1760516572.3923342,-22.611847260844606,-0.2543211257133266,0.7284217479986473,0.2120573238046983,-17.027886274383196,1.7949382936723137,-26.51693431063176
1760516572.4023733,-22.94348546944254,-0.3022207903642083,0.7220441963496566,0.20713760142118645,-14.053257602327074,1.0284026482995208,-22.062096289438934
1760516572.412312,-23.299512907745164,-0.3534827652425684,0.7163973626917999,0.200957194943866,-10.83837504501963,-0.10356254361503933,-17.928807047364387
1760516572.4223304,-23.68251758373346,-0.4041063402513577,0.7109016296468701,0.1945270657197565,-7.3220159739297745,-1.5026374158871723,-14.198828344870055
1760516572.4323313,-24.09007712777931,-0.4502012867532338,0.705224473851729,0.1889757007856345,-3.4688661767499527,-3.014225904848842,-10.921277577937982
1760516572.442318,-24.515014920404358,-0.48845169847464726,0.6993050744508291,0.18542284151242142,0.7207166656396664,-4.440702984980532,-8.113294131592028
1760516572.4523146,-24.946371992343522,-0.5165011189156477,0.6933132903840383,0.18483497572751686,5.203437234852541,-5.560167891282802,-5.764578729738093
1760516572.4623294,-25.37092688304918,-0.5332082680230525,0.6875616644802596,0.18788352848445367,9.889294641721307,-6.148817607672468,-3.8445689518775334
1760516572.4723167,-25.77501873025264,-0.5387544758269068,0.6823993374153124,0.19482901425828117,14.642286387336418,-6.00469601083747,-2.3111324386846364
1760516572.4823198,-26.14640777735148,-0.5346074664812703,0.6781177128703126,0.2054492527979866,19.286358474641382,-4.97057287520012,-1.1197380723872927
1760516572.492346,-26.475923371097437,-0.5233559112582643,0.6748895965250409,0.21901898942853631,23.61677792205077,-2.9538976882640355,-0.2319156189783039
1760516572.5023391,-26.758689033792923,-0.5084311110350919,0.6727504214672495,0.234337638688865,27.416135516301445,0.05798632938365481,0.37843089692997905
1760516572.512303,-26.994771949701253,-0.493734090831052,0.6716180792314282,0.24979576227543188,30.473249600839534,3.9888770973482974,0.7223349673680137
1760516572.5223396,-27.189174540602362,-0.4831918274703831,0.6713406591945975,0.26347035561679616,32.602806770883305,8.672029825658791,0.7978212717646205
1760516572.5324364,-27.35116156507206,-0.4802754170074449,0.6717593131655452,0.27324292290837493,33.66378216569334,13.856118760383902,0.5970489920687195
1760516572.542378,-27.492990994295127,-0.4875239130481269,0.6727748467967664,0.27694019166293415,33.57530569844912,19.21849104316515,0.11787425721305188
1760516572.5526016,-27.62818558987243,-0.5061278896128493,0.6744096838269188,0.27250180244616323,32.329339752257944,24.384777618895438,-0.6218843891898322
1760516572.5623484,-27.769540968379133,-0.5356345551054772,0.6768603797818213,0.258179222413504,30.000013708363927,28.953542240106575,-1.5700428551936776
1760516572.5723493,-27.92711108192159,-0.5738376165684146,0.6805388200059527,0.2327637526275157,26.749499703685377,32.524392653669516,-2.62852470974643
1760516572.5823312,-28.106434891597775,-0.6169022458618293,0.686100352193762,0.1958295139347608,22.829826784771,34.72777386424353,-3.647613610405322
1760516572.5923028,-28.307255551221182,-0.6597423862587106,0.6944525404629185,0.1479628463135412,18.579171173308342,35.254515944549034,-4.428170624752887
1760516572.6023607,-28.522926757761255,-0.6966186583602231,0.7067318667590118,0.09093735768902206,14.410332556028676,33.88316859474855,-4.732799361621738
1760516572.612321,-28.740604843948834,-0.7218745178879894,0.7242341478325494,0.027788866335807613,10.78883358852303,30.50321606868968,-4.305497568464373
1760516572.6223366,-28.942209413306415,-0.7306915668438608,0.7482907266651637,-0.037250012382593733,8.198806515895914,25.132321211651462,-2.8979056255696336
1760516572.632344,-29.106025569099376,-0.719733468683255,0.7800932718627831,-0.09898030135072405,7.096749821263196,17.925733703429785,-0.29906590643749437
1760516572.642437,-29.20873699950064,-0.6875682274682946,0.820481002910992,-0.15163503484566,7.856172408784037,9.17609083978218,3.635144875201083
1760516572.652476,-29.22763190291525,-0.6348087804656819,0.869714444698031,-0.18942469997789307,10.70946715241903,-0.6976263289187603,8.95684230285191
1760516572.6623304,-29.142718968218496,-0.5639769113423446,0.9272687848440302,-0.20718514049376946,15.696054269680847,-11.172070561209946,15.60852495536538
1760516572.6723456,-28.938530144833468,-0.47915053406215,0.9916833513948176,-0.2010613394785743,22.626866043180396,-21.65099367350587,23.41523235128039
1760516572.6823146,-28.605460598957293,-0.38548039786919547,1.0604973570989007,-0.16914342075642044,31.07405779658339,-31.503404765417343,32.08754141611676
1760516572.692312,-28.14058018701035,-0.2886596607971567,1.1302890541539772,-0.11196225229205854,40.39158495171379,-40.105027882610486,41.23559425313557
1760516572.7023077,-27.547919213945633,-0.19441216164727831,1.1968263193877808,-0.03275378898892027,49.76763232484968,-46.87993868779266,50.39362932686979
1760516572.7123077,-26.838271403696428,-0.10804350694480248,1.255338079461888,0.06258257173901255,58.30468624564537,-51.339992841574905,59.05364738417055
1760516572.7225347,-26.028573314038365,-0.034078873806867443,1.3009198914121303,0.16587233553172845,65.11828420636301,-53.12024516265645,66.70580244376278
1760516572.7324533,-25.14092496591323,0.02400076982933452,1.3290747467212074,0.2673922001248394,69.44207667089482,-52.008637791468985,72.8820895772558
1760516572.7425554,-24.201321846329634,0.06391345594400163,1.3363506253949429,0.35687181952003816,70.72527629302654,-47.967939218068715,77.19915181798831
1760516572.7523131,-23.23817718528936,0.08461229192413407,1.3209793358075659,0.4246643828246698,68.70878860745317,-41.1477644719017,79.3956005261422
1760516572.7623563,-22.280723084493737,0.08620954000607765,1.283373204945492,0.4629499362994239,63.46812925278119,-31.884954712808288,79.35919633778961
1760516572.7723308,-21.35738502056436,0.06982431059085083,1.2263271339456385,0.4668157723707989,55.41476218942497,-20.691581939421415,77.13986611870676
1760516572.7826946,-20.494223499987964,0.03740730111853482,1.1548224729288188,0.4350466863003081,45.252954007648775,-8.230811014216211,72.94610896402979
1760516572.7923906,-19.713529410671754,-0.008413899678435859,1.075428553793951,0.3704673310085952,33.89624717399462,4.718750251785917,67.1246937089988
1760516572.8023376,-19.032647872039515,-0.06445621083916599,0.9954102004603206,0.2797277467411883,22.354887836648473,17.309698264125323,60.12604423844071
1760516572.8123322,-18.46309098557908,-0.12708727198048542,0.9217290928548834,0.17251543043626352,11.611155954413208,28.682846826495446,52.459693693962386
1760516572.822576,-18.009983798747555,-0.19234822477380728,0.8601455151676949,0.060292477804398725,2.502006705451645,38.03279589735052,44.645351379853835
1760516572.8323433,-17.6718712375563,-0.2561195256177945,0.8145851771153771,-0.04524245980245996,-4.372890177287987,44.67788006559861,37.16547605277278
1760516572.8423576,-17.440899308796162,-0.31434260754232324,0.7868563194626038,-0.13371170033085822,-8.704456972759106,48.12753360469219,30.424853938719274
1760516572.852334,-17.30337289226921,-0.36329420766117604,0.7767154826688285,-0.19737850181478508,-10.482969380572086,48.13803764348767,24.72155222696157
1760516572.8623378,-17.240681695573425,-0.3998893242846973,0.7822100721649348,-0.232018911315545,-9.964696502949657,44.74719975229301,20.23185860985291
1760516572.872502,-17.230569322960072,-0.42196782414136136,0.8001865889817054,-0.23722017260126435,-7.606146310009967,38.280271802423634,17.00971818324595
1760516572.882373,-17.248692852694226,-0.42851220528449163,0.8268498301964498,-0.2160918051936138,-3.9802403242319526,29.323300489538916,14.999146049839931
1760516572.8923242,-17.270379066824535,-0.4197535052904498,0.8582826978260917,-0.17448778527667652,0.310143176759059,18.66537860931543,14.056501626548785
1760516572.902347,-17.272432102557193,-0.39713970000291127,0.890871970849449,-0.11991980478029447,4.707889196073167,7.216627075928262,13.978594417476604
1760516572.9123273,-17.234803621621154,-0.3631612030599121,0.9216173528378044,-0.06037330787917759,8.757480434015397,-4.087100956964991,14.532404876383902
1760516572.9223642,-17.14192978353279,-0.32105415250355984,0.9483212915392564,-0.0032224891375500064,12.136841561078281,-14.37966572942148,15.48266358204757
1760516572.9323213,-16.983587916213096,-0.2744310616160731,0.969665425593161,0.04560672959933297,14.665748545362202,-22.947313088178767,16.61447251219754
1760516572.9423356,-16.755216389549922,-0.22690588820658908,0.9851824966417869,0.082139843518985,16.294817825462225,-29.288118033901437,17.74934199444869
1760516572.9523165,-16.457734606600216,-0.18177446235339442,0.9951375100732793,0.10450424744473366,17.08102278836944,-33.141997417181244,18.754185411844983
1760516572.9625144,-16.096960979646333,-0.1417852141189578,1.0003406062107842,0.11276812794263742,17.156173107493803,-34.4902336304622,19.5437447342163
1760516572.972566,-15.682745015804603,-0.10900472019890577,1.0019224999139134,0.10855086287449708,16.694167040402775,-33.52832685363883,20.077538065219894
1760516572.982361,-15.22791600313273,-0.08476054276369932,1.0011067069503148,0.09450691348806485,15.881502680323461,-30.619527506820152,20.352770069713067
1760516572.9923813,-14.747123347344354,-0.06963459404105699,0.9990093411319455,0.0737828144176264,14.893899749639862,-26.23799731640866,20.394791876254168
1760516573.002363,-14.255620245398882,-0.06348374907860972,0.9964886724584052,0.04952919353808085,13.880265016217216,-20.910245461486824,20.24666957494056
1760516573.0123386,-13.768037110755806,-0.06547814477792285,0.994056475746725,0.024523355098765586,12.953888243533287,-15.161791323588593,19.95924409168687
1760516573.0223944,-13.297206734752345,-0.07416398521415081,0.9918546144828623,0.0009289774893351413,12.189846011448857,-9.473594616494498,19.582787736047624
1760516573.0324023,-12.853125899315883,-0.08756536879528513,0.989693957082867,-0.019806523056479182,11.627163914524845,-4.2502983309183024,19.16103632137758
1760516573.0423436,-12.442148642244344,-0.10333383855793067,0.987146895716307,-0.03693563650566651,11.274263001612045,0.19975213913925538,18.728020843417347
1760516573.052528,-12.066498273695665,-0.11894276185373649,0.9836779308359584,-0.050305666556372586,11.116405173832833,3.674076460548564,18.30772349246334
1760516573.0623472,-11.724166295838303,-0.13191593925201278,0.9787901743776148,-0.06020033155761833,11.124035822661417,6.077020210004055,17.91613145660092
1760516573.0723336,-11.409240820891453,-0.14007518085960702,0.9721621198655729,-0.0671638108770293,11.260988316423909,7.413653839918844,17.564819818987978
1760516573.0823526,-11.112666337351294,-0.14178250098996129,0.9637502150263314,-0.0718393539841551,11.491535304662953,7.777627332169073,17.264902716696252
1760516573.0923479,-10.823371881819043,-0.13613840288926324,0.9538381211136995,-0.07484701853932761,11.78540902000601,7.333695504433857,17.03019224653984
1760516573.1025095,-10.529626773025239,-0.1230903878068527,0.9430227066128479,-0.0767137469941531,12.12025457918792,6.295815131643507,16.878726421345846
1760516573.1123912,-10.220426060407203,-0.10341984856841746,0.9321402070436016,-0.07785541388021797,12.481476628458408,4.902295087388994,16.83233870603233
1760516573.122359,-9.886705395088992,-0.07861023143419486,0.9221507152951307,-0.07859759586464198,12.859961533567914,3.390122322592589,16.914423584835045
1760516573.13234,-9.52224071714859,-0.05063476043417202,0.9140079163764772,-0.07921323704748257,13.248561713997276,1.9709710914678003,17.146345868259083
1760516573.1423519,-9.124171319312456,-0.02171671141088628,0.9085393543993855,-0.07995496521888948,13.638392155615257,0.811374045943303,17.54304474991253
1760516573.1526935,-8.693156720836207,0.005894170993804756,0.9063545722558516,-0.08106870062561183,14.015862953008478,0.01909504078683423,18.108416122427517
1760516573.162455,-8.23321895074426,0.030105848130490238,0.9077906081439442,-0.0827884365402296,14.361034707643547,-0.3630042167798025,18.831119901950494
1760516573.172585,-7.751336427613654,0.04912305129486896,0.912897281650484,-0.08532132404001391,14.647500508923759,-0.35523216346733105,19.681543975856126
1760516573.182347,-7.256857820865075,0.06154519574002887,0.9214560454313113,-0.08883290763384975,14.843704608197518,-0.032059672031850055,20.61067561422249
1760516573.1923504,-6.7608039966721485,0.06643033256894618,0.9330180962360914,-0.09343691659238072,14.915440807033077,0.4926889363386762,21.551500409612625
1760516573.2024407,-6.2751221508206685,0.06333319945618296,0.9469460998865936,-0.0991881199994946,14.829195843894171,1.0842707779920187,22.423232863567346
1760516573.212329,-5.811940650576388,0.05232680085139109,0.9624515187782193,-0.10607445297248991,14.555964803496154,1.6065108786078763,23.138216863071627
1760516573.2223787,-5.382845080705101,0.03401645689881351,0.9786310721876128,-0.11400674814625343,14.075138242672665,1.939783376438083,23.610821849943058
1760516573.2323353,-4.998171115356236,0.009546427595773989,0.9945132932395788,-0.12280935522805114,13.37803037644843,1.9953834719197558,23.767221377122542
1760516573.2423637,-4.666311462227689,-0.01941912993793511,1.0091244945613962,-0.1322193629575206,12.4705792527022,1.724922491515802,23.55465939296808
1760516573.2523942,-4.3930688013159225,-0.05077378925835809,1.0215739976176714,-0.14190234737939283,11.374734147494776,1.1241500449616857,22.948752983283324
1760516573.262636,-4.181130974518103,-0.08213054726932159,1.0311473152526793,-0.15148745368709515,10.128125360840233,0.2312502997602998,21.957617907893535
1760516573.2723475,-4.029765153422258,-0.11106251718054591,1.0373888443809776,-0.16061692129765376,8.781836386731452,-0.8798216419514816,20.622126990844375
1760516573.2823658,-3.934810107032403,-0.13538328615477788,1.0401545402797026,-0.1689985584717458,7.396429848395032,-2.1099259832881367,19.01226960910253
1760516573.2923653,-3.888998909367182,-0.1534081291041049,1.0396196263185804,-0.17644625653911353,6.036715632172095,-3.3477694294101963,17.2201838515243
1760516573.3023772,-3.882586843884735,-0.16413938024665228,1.0362358554946076,-0.18289514011691768,4.765988569678121,-4.4835713793499465,15.350890935933489
1760516573.3125138,-3.904211681465824,-0.16734278339067804,1.0306453599841314,-0.18838572867099113,3.6405251447746716,-5.421459774291313,13.512042492535492
1760516573.3226042,-3.9418931337526564,-0.16351751684372745,1.0235698889954734,-0.193023148610798,2.704993819780106,-6.088934712086402,11.804031190179808
1760516573.3326259,-3.9840853275187897,-0.1537914419305153,1.0157009048628813,-0.19692678311201797,1.9891763572857821,-6.442315301929649,10.311580795877818
1760516573.3423483,-4.020710751800134,-0.1397796797167903,1.0076149989448173,-0.20018775318236476,1.5061446448379139,-6.467875855783697,9.097523322861187
1760516573.3523743,-4.044105080428428,-0.12343126806828869,0.9997303486058917,-0.20284598877093038,1.2518697098384433,-6.179200048866082,8.19906265040978
1760516573.3623483,-4.049787129619292,-0.10687016858027444,0.9923063726377185,-0.2048891705911498,1.2061542392068847,-5.611938216838096,7.626525575143408
1760516573.3723679,-4.036952791598772,-0.09222615408415062,0.9854761527295193,-0.20626760639546038,1.3347324636273337,-4.817471736318978,7.364421854212333
1760516573.3824077,-4.00859458214409,-0.08145179342662485,0.9792951697116694,-0.20691524890860924,1.5923349703695775,-3.85689837337837,7.374537043701655
1760516573.3924763,-3.9711780025890713,-0.07613011204235295,0.9737917853379503,-0.20676749919414544,1.926461294794798,-2.7963270072925837,7.600718145802926
1760516573.4023483,-3.933858558908101,-0.07728740467908009,0.9690112846385216,-0.2057698545002946,2.2815519545431187,-1.703880934882241,7.97493413061887
1760516573.4123423,-3.907288046980117,-0.08523268509095033,0.9650510567664983,-0.20387669570355826,2.6032212579345924,-0.6482340481265038,8.424078696755227
1760516573.422569,-3.90212388972634,-0.09944806806440483,0.9620860685119212,-0.201044844550734,2.842212777329279,0.3019331512992206,8.876856891305913
1760516573.4323602,-3.9274115156857237,-0.11855346164654898,0.9603810899851857,-0.19722964368788987,2.957770349697222,1.0784072390105663,9.270018906771831
1760516573.442349,-3.9890488081934277,-0.14036455553784769,0.9602827056039649,-0.192390887176196,2.9201705640063693,1.6147028312528156,9.553229365599078
1760516573.4523497,-4.088554994706712,-0.16205478880816387,0.9621848040922806,-0.18651234603536285,2.712226915734759,1.8487431923106525,9.692014033038037
1760516573.4623404,-4.2223464941779625,-0.18041952806292416,0.9664677790829458,-0.1796332657454875,2.32964341232702,1.727171462931862,9.668489944687265
1760516573.4725115,-4.381666548703891,-0.19222506269737785,0.9734206276569528,-0.17188484636196205,1.7801649730190678,1.2109888053698845,9.479908274765322
1760516573.4836996,-4.553229677926542,-0.19460891758075982,0.9831612145639329,-0.16352136805067036,1.0815457934142245,0.2817536985138012,9.135363487823792
1760516573.492607,-4.720540194556398,-0.18548497894866747,0.995571196635882,-0.15493557817299933,0.25843638750836806,-1.0527155188263806,8.651294945044771
1760516573.502393,-4.865743713753509,-0.16389946754031126,1.010259966496853,-0.14665070060611657,-0.661624781102242,-2.7542753664093773,8.046583050483877
1760516573.5125844,-4.971787074540257,-0.13028234977770428,1.0265677520643182,-0.13928524904145456,-1.6528361356269188,-4.753061180500754,7.338090263737487
1760516573.5223894,-5.024606812098066,-0.08654346807391468,1.0436115450147896,-0.13349030771394238,-2.6959906033729073,-6.949525245824878,6.537403342299281
1760516573.5326934,-5.015047613667921,-0.03597484550657533,1.0603694966554673,-0.12986151376567565,-3.7830698204180893,-9.220276443880296,5.649288759517957
1760516573.542378,-4.940234780512305,0.017057722601676317,1.0757922341513377,-0.12882995597433677,-4.9209776959611995,-11.427576183963943,4.671980542845187
1760516573.5523727,-4.804188736809661,0.06761869508948849,1.0889245853228515,-0.13053927026672218,-6.133762371371598,-13.43172292044613,3.598918439020819
1760516573.5623875,-4.617570496540922,0.11084716138855982,1.0990168335817556,-0.1347227509686822,-7.4627257387976185,-15.10486381082143,2.4210463234891892
1760516573.572385,-4.3965740615651585,0.1426457325690798,1.1056002904028146,-0.14060459586832,-8.964042997187187,-16.344139434331943,1.1284431297809363
1760516573.583295,-4.161116314109879,0.16029209577794323,1.108503212186326,-0.14685911571503757,-10.703943224242089,-17.08172289265225,-0.2898882578720885
1760516573.59243,-3.9325933627918777,0.16285518841814764,1.1077973529625302,-0.15166289022285237,-12.75205535026456,-17.28949591634477,-1.848676834921559
1760516573.6023543,-3.731552466512978,0.15133392971698992,1.103691087504152,-0.1528608711176059,-15.173991010588844,-16.976933794567156,-3.5711279316744147
1760516573.6123483,-3.5756525159291823,0.12849049731865214,1.0964079704541918,-0.14823887055242926,-18.024377094486077,-16.182146844085977,-5.494432444584058
1760516573.6223607,-3.4782392035045744,0.09840364285154311,1.0860935961163227,-0.13586066219979487,-21.341263238398163,-14.957613686536353,-7.674125281815002
1760516573.6323721,-3.447741148061102,0.06581074624490785,1.0727753181756894,-0.11440164145412121,-25.142225082772953,-13.353497727660708,-10.185335020560341
1760516573.6424732,-3.487922513223449,0.035341921517242345,1.0563735788522146,-0.08340561573565046,-29.421826881753205,-11.402162787676069,-13.119439928848292
1760516573.6523793,-3.598850064472061,0.010777924048784353,1.036749758574732,-0.04341173910744429,-34.14969652903433,-9.107290254408476,-16.57551509890989
1760516573.6623566,-3.778294776047646,-0.00552540540029024,1.0137772312048134,0.004064923033636034,-39.26852943506666,-6.439736431941446,-20.64705519139776
1760516573.67263,-4.023221778675318,-0.012930083827984109,0.9874272554195553,0.05668179636003336,-44.6918884243412,-3.3403213703075014,-25.405536136338835
1760516573.6823702,-4.331039115605505,-0.012480186231970858,0.9578610447223603,0.11150941239416186,-50.30241102827742,0.27195049453356646,-30.883147188313334
1760516573.6923587,-4.700368181101529,-0.006583623495695708,0.9255184559371831,0.16532284620179916,-55.951546475057114,4.488146233785486,-37.05732037021966
1760516573.702437,-5.131240999364105,0.00146642039354889,0.8911971250942676,0.21490777912692433,-61.46202738861185,9.394870505763214,-43.83956217230104
1760516573.712396,-5.624777544631137,0.007989608218926152,0.8561172824887159,0.2573540565970817,-66.63410010827191,15.05584019966665,-51.07069703047547
1760516573.722602,-6.182501735046992,0.009345471291914901,0.8219567203738131,0.2903157028398999,-71.25630582473906,21.487764154035577,-58.52404547805315
1760516573.7327743,-6.805492872409082,0.0022791566669881458,0.7908200419903241,0.3122162939606442,-75.12119712708537,28.63057522421923,-65.91729234130666
1760516573.742393,-7.493552084682605,-0.015773453438962366,0.7650946849011603,0.32237672862040057,-78.0453889471223,36.316324421957184,-72.93282727759194
1760516573.7523832,-8.244520357099132,-0.04638625172552707,0.7471615860891572,0.32104613796899056,-79.89159625770728,44.245966740338424,-79.24513358090606
1760516573.762365,-9.053838141698954,-0.08985917160057075,0.7389750656282434,0.30933068370582883,-80.58825463124536,51.98625663798471,-84.55244474851725
1760516573.7727337,-9.91439616507147,-0.14501580344229287,0.7415934017923791,0.28903906997606754,-80.14107698074926,58.997400744127546,-88.60868929563227
1760516573.7823727,-10.816696013265998,-0.20918500937985596,0.7548009937810346,0.2624846893290222,-78.63182304347956,64.69449812597998,-91.25114126785844
1760516573.7924855,-11.749312104329096,-0.2784496583711149,0.7769717630664714,0.23227816464407175,-76.20314581711612,68.53370814533098,-92.41948121880677
1760516573.8023765,-12.699611328467736,-0.34815158519318246,0.8052519102745197,0.2011117885339646,-73.03322296720413,70.10294765719343,-92.16309902410498
1760516573.812369,-13.65464010660642,-0.413528275052849,0.8360171049268128,0.17152382499219415,-69.30726435777633,69.19316760080278,-90.63511588366275
1760516573.8223684,-14.602049015638643,-0.4703150256085645,0.8654623619717562,0.14566224166646452,-65.19316619241508,65.83231742698335,-88.07348586848586
1760516573.8323708,-15.530915611505085,-0.5151972110832618,0.8901655751562693,0.1251030732109624,-60.826120598973986,60.27639580845447,-84.77154453806058
1760516573.842362,-16.43235237582371,-0.5460765240565705,0.9075136502655587,0.11076968171890549,-56.30363907539789,52.9641681219062,-81.04225489131413
1760516573.8524969,-17.29983615843597,-0.5621646851686218,0.9159454561135364,0.10295611936545271,-51.68956703604306,44.449684211884986,-77.18158155733342
1760516573.8623543,-18.1292508365767,-0.5639347017648351,0.9150151138284394,0.10142210881649547,-47.02391365390505,35.328585865132716,-73.4364241754758
1760516573.8723562,-18.918683505454347,-0.5529630887514883,0.9053051031496254,0.10551841800661578,-42.33484655117058,26.1716253344549,-69.98144662052535
1760516573.8823757,-19.668048865105856,-0.5316978545741741,0.8882282553756553,0.11431213618720977,-37.6496782385681,17.473908208765973,-66.90744429044805
1760516573.8923745,-20.378632308848246,-0.5031871888889077,0.8657602118543819,0.12669746180648833,-33.002594316800376,9.623096672991247,-64.22204932883636
1760516573.9023504,-21.05263797256201,-0.4707986693471389,0.8401437861952427,0.1414903614437096,-28.437948828881,2.8855583190081315,-61.861809027654935
1760516573.9123654,-21.69280521695991,-0.4379462096550327,0.8136033806129169,0.15751168155801104,-24.00907324877928,-2.593126357648398,-59.71309751931614
1760516573.9223647,-22.302121260935724,-0.40782740281308694,0.7881004578309129,0.17366268540979407,-19.773560795975666,-6.777775494644451,-57.638098784237116
1760516573.9325898,-22.883619246834854,-0.38316798144574943,0.7651516315147404,0.18899173482892037,-15.786660503507294,-9.72742932541518,-55.50146513159259
1760516573.9423974,-23.440222336005622,-0.36597808780679464,0.7457214864973714,0.20274542342722016,-12.094562881977069,-11.576398308637204,-53.193379325904054
1760516573.9523656,-23.97458462583314,-0.35734166835875203,0.7301937317167267,0.21439614770021193,-8.729002328713886,-12.514337326404467,-50.645622191968435
1760516573.9628072,-24.488891358495202,-0.35727554060587646,0.7184165456113595,0.22364205848120605,-5.703969562261821,-12.766200994905965,-47.83870694400455
1760516573.97251,-24.984610775780983,-0.364700625480938,0.7098110104367136,0.23038236742445284,-3.0146886361705683,-12.572432995171527,-44.79992695000079
1760516573.982666,-25.462229889323044,-0.37755966000054025,0.7035256263065718,0.23467746798734976,-0.6385400379649409,-12.169685571816235,-41.59392007770354
1760516573.9923716,-25.921043570746853,-0.39309189454009674,0.6986150456653389,0.2367062169964388,1.462624229529278,-11.772626977560654,-38.30864598411286
1760516574.0023756,-26.359085272822778,-0.40824055220082844,0.6942178423879538,0.23673058258260168,3.3393390539985996,-11.557768851893972,-35.0401443843931
1760516574.0125797,-26.77327571287744,-0.42013395488276767,0.6897078014917243,0.23507139295345722,5.050992316208305,-11.65051329736827,-31.879017280888302
1760516574.0223572,-27.15982043369173,-0.4265580377742947,0.6847971013015633,0.23209104943784467,6.662159195063578,-12.1166273892366,-28.900505699876636
1760516574.0323904,-27.51482043251547,-0.42633439733693995,0.6795777325097824,0.22817412430416367,8.238920426194065,-12.959071309687578,-26.158744548123195
1760516574.0423946,-27.8349954550764,-0.4195353856218032,0.6744981869106159,0.22369786026020508,9.845180595735027,-14.12061644406671,-23.6847137413317
1760516574.0523756,-28.11838067342405,-0.4075004155397583,0.6702833153726344,0.21899090940686938,11.538927430335807,-15.492115082392875,-21.48684520838245
1760516574.0623777,-28.364856629109436,-0.39265538324882227,0.6678132169465752,0.21428626723170843,13.36833327390643,-16.92573679382148,-19.553231682924352
1760516574.0724947,-28.5764066678384,-0.37816977304711297,0.6679800589917676,0.20967945161104948,15.367653010667654,-18.25204950453335,-17.854718978621435
1760516574.0825887,-28.757052201003745,-0.36750761060622367,0.6715399820478295,0.2051034472480853,17.553056684474935,-19.299529968721664,-16.34855948918463
1760516574.0923645,-28.91247820147396,-0.36393821493798345,0.6789729155748859,0.20032822006710285,19.91882954741734,-19.914927378152257,-14.982556142513095
1760516574.1025877,-29.04941632173203,-0.3700722204151519,0.6903591095877138,0.19498817626538079,22.434681623460914,-19.982829222208203,-13.699670189466923
1760516574.1123703,-29.174891034713077,-0.3874791181082708,0.7052794524574417,0.18863867486258312,25.045038528045787,-19.442699608550583,-12.442908736976747
1760516574.1223595,-29.295448428811266,-0.416427628863104,0.722748752992542,0.18084027260501695,27.670974654425724,-18.301487895045884,-11.159999950080909
1760516574.1323984,-29.416475575401993,-0.4557742627022451,0.7411984015359095,0.1712623704993447,30.21501432013967,-16.639705938683804,-9.807057519492341
1760516574.142387,-29.541684437931128,-0.5030107921278395,0.7585345192860893,0.15978730215657055,32.568685907429284,-14.608941548218825,-8.350342623870938
1760516574.1523843,-29.67278769282137,-0.554467309643897,0.7723013346992247,0.1465882491089561,34.62259253908001,-12.419453137516152,-6.765473870954414
1760516574.1623933,-29.80934919737239,-0.6056545022294385,0.7799683887667866,0.1321554321494515,36.27864584001901,-10.317874430357687,-5.033980407176492
1760516574.1723855,-29.948764486251406,-0.6517179354782878,0.7793323391188228,0.1172559993102208,37.46376007452905,-8.55689552580394,-3.1378036094882296
1760516574.1824002,-30.08632448858645,-0.6879649405923395,0.7689855509155048,0.102831268119133,38.143745245306356,-7.360575738350818,-1.0530345743699783
1760516574.1923912,-30.21533497843942,-0.7104067568010066,0.7487662838660907,0.08985453435144858,38.335584174263104,-6.89015151304211,1.255395453152514
1760516574.202362,-30.327293987904604,-0.7162414593258322,0.7200847209469189,0.07918500337953992,38.11595722700062,-7.215496570077032,3.836354015751035
1760516574.2123775,-30.412156073062075,-0.7042024660747618,0.6860273361569192,0.07145200809378455,37.623940230730874,-8.29675369388771,6.751234578413784
1760516574.222508,-30.458723425480578,-0.6747202938846212,0.6511783098915365,0.06699009478893078,37.05625610631278,-9.979333700051203,10.068369947434045
1760516574.2323883,-30.455193138286184,-0.6298821553816811,0.6211489541246739,0.06582919933914988,36.65416840953737,-12.003819311828018,13.853685248490295
1760516574.2424688,-30.389860674449093,-0.573208344076807,0.6018636044702451,0.06773409525552576,36.68191067892448,-14.030606188288536,18.15894837886267
1760516574.252717,-30.25194016888838,-0.509285204998146,0.5987079099960024,0.07228490032470777,37.3974212174488,-15.67747580232308,23.00946437742532
1760516574.2623966,-30.032422362586814,-0.44330128388469825,0.6156918633785058,0.07898995505359181,39.01719690308064,-16.5666919635453,28.39315019872242
1760516574.2724044,-29.724864370973084,-0.3805330983223062,0.654789853982618,0.08741743172393185,41.67839856290457,-16.37661404078764,34.25254738312697
1760516574.2823944,-29.326007742168425,-0.32582601075793205,0.7155741261460726,0.09732166874029723,45.4028363741926,-14.891399144605307,40.48053389461569
1760516574.2923794,-28.836156244042137,-0.2831134916344685,0.7951759257124419,0.10873050790178833,50.06866949035751,-12.041547228625374,46.919636245914184
1760516574.3023973,-28.259296787977988,-0.25501367204110986,0.8885390424135003,0.12195856727380756,55.39592955635355,-7.928270435014051,53.36442637074889
1760516574.3125536,-27.60299208111992,-0.24253901195261882,0.9889017424421283,0.1375213454180042,60.95098157587038,-2.8261174576173835,59.56675397169727
1760516574.322398,-26.878096449855,-0.24495490467160225,1.0884437635383517,0.1559444210477223,66.17292530152227,2.8391651007146606,65.24429872755663
1760516574.332687,-26.098344497480383,-0.25982204707760387,1.1790413060950145,0.17748714232602233,70.42212849130881,8.537164919882548,70.0936425120063
1760516574.3423932,-25.279843445965618,-0.2832495443888322,1.253073920791786,0.20182684588648228,73.04794657752079,13.699488749146175,73.80925082793092
1760516574.352415,-24.440476422911935,-0.3103660651140665,1.3042234764764336,0.22777390264323485,73.46947264666066,17.79847522107462,76.1090486549838
1760516574.3625631,-23.59920799066253,-0.3359831444169363,1.3281979823293095,0.2531053760784508,71.26005565214203,20.42649370245755,76.76559962816431
1760516574.372669,-22.775283894518186,-0.3553809199923401,1.3233001312439774,0.2746067181010656,66.22364906705728,21.362339619562192,75.6395708457277
1760516574.382479,-21.987335729318797,-0.3650977241174986,1.2907442077279139,0.28838398509829327,58.44956929145302,20.611333889037276,72.70992849069393
1760516574.392567,-21.25242939206184,-0.36356323642311283,1.2346209426581218,0.290448599082946,48.33307330120058,18.408787947823384,68.09414662756221
1760516574.4023864,-20.58511975467055,-0.3514060296602696,1.1614445098922255,0.2774955328625454,36.55316786632109,15.182703724753326,62.05243975234172
1760516574.4123924,-19.996582429740755,-0.33131654229223106,1.0793030360490505,0.24771997450899022,24.006126247744504,11.480065865511566,54.97279381453445
1760516574.422398,-19.493886231502444,-0.3074557737419556,0.9967488520697854,0.20147341612431327,11.701935759515312,7.869838958454932,47.33759317583363
1760516574.43241,-19.0794564120061,-0.2845324665601452,0.9216502701350265,0.1415671687932987,0.6390273611369357,4.842120305302859,39.676522419521255
1760516574.4423869,-18.75077144852731,-0.2667734348974235,0.860235663678378,0.0730973359242253,-8.322184559701713,2.724548375579681,32.512894485718185
1760516574.4525764,-18.50034026572217,-0.25704228594078077,0.8164918433755887,0.0027782663489401434,-14.565630390711174,1.6333044700210675,26.31113859815799
1760516574.462591,-18.31601497535827,-0.25631348915585106,0.791972539095044,-0.06210120179142471,-17.788246371144606,1.4679474849036631,21.432225240749666
1760516574.4725332,-18.18169023476056,-0.2636031324058635,0.7859763466265879,-0.11488250926818722,-18.020901971382266,1.949172539977336,18.10203186148525
1760516574.4824016,-18.078408107984853,-0.27633049641704294,0.7959927292548836,-0.15064101928458126,-15.600879295400027,2.6891058422051906,16.3956517872642
1760516574.4923737,-17.985822064925266,-0.29097594269106425,0.8182926160293955,-0.16694963905546867,-11.10409874092441,3.2773296140357986,16.23867487467861
1760516574.5024593,-17.88388977443674,-0.3038450997244589,0.8485493013920515,-0.1641497264604635,-5.2516208378439195,3.3638131261063013,17.42455174968981
1760516574.5124004,-17.754591839869782,-0.3117589981460021,0.8824043410030119,-0.1451002576183752,1.1924618821520419,2.7223489686662696,19.64532161611636
1760516574.5224667,-17.583443390879882,-0.31254608496987557,0.9159270188080803,-0.11449864953342764,7.515705621862381,1.2839345693814082,22.531383708916394
1760516574.5325353,-17.360592408031266,-0.30528231938726574,0.9459425109881465,-0.07795153864553257,13.132201863604681,-0.8629299488066867,25.694886980156717
1760516574.542487,-17.081375673519812,-0.29028711861759915,0.9702215959758493,-0.041003589750134566,17.63023161185246,-3.500841369961702,28.77099433355357
1760516574.5523963,-16.74630566505547,-0.26892681054273315,0.9875385128910051,-0.008310768576771623,20.790379536276845,-6.3315987643108285,31.451908143104244
1760516574.5623844,-16.360557601323606,-0.24329917919844374,0.997615083658586,0.01691266921901386,22.57641010469668,-9.032099186909658,33.510016886036
1760516574.5724022,-15.93308921892477,-0.2158726932279607,1.0009770094163708,0.033117407365407435,23.10475794266305,-11.30682719115858,34.808499830947284
1760516574.5824013,-15.475547413147343,-0.18913916853226131,0.9987517067420426,0.040327153937939474,22.600599919436235,-12.928428253262405,35.299787114358566
1760516574.5923867,-15.001103443233974,-0.16531864556222822,0.9924369253395369,0.03980138752742574,21.34901863069206,-13.761724719330145,35.01402797436822
1760516574.6023912,-14.523328488614085,-0.14613811898913903,0.9836676845269662,0.033556046486297765,19.648875072815184,-13.770527615419835,34.040880668239396
1760516574.6124542,-14.055188984642093,-0.13269511864541997,0.9740074136967871,0.023854900288080152,17.77507408589094,-13.00980545100645,32.5083681130334
1760516574.6224477,-13.608213073852685,-0.1254096262600136,0.9647856336412295,0.012770042614923786,15.952467793421041,-11.60762041015077,30.562276936900403
1760516574.63244,-13.191854524672276,-0.12405760291811518,0.9569958746173215,0.0018775374624457565,14.34223217163552,-9.741636619418324,28.348778682352812
1760516574.6423979,-12.813056278909167,-0.12786701388882626,0.9512552346751186,-0.007885214026838373,13.039571617251049,-7.614309962575081,26.001861385917955
1760516574.6524096,-12.475994404912658,-0.13564911716720793,0.9478163861701082,-0.016209501102629306,12.080269792830817,-5.429685937305091,23.63603689490438
1760516574.6624298,-12.181971615199226,-0.14593933005299878,0.9466176772253119,-0.02328792044285784,11.452954817207143,-3.3735795779307938,21.343844498406114
1760516574.6723926,-11.929435502376723,-0.15713336142868284,0.9473573470262338,-0.029619632691573854,11.113912033861206,-1.5980621417046026,19.197019637846477
1760516574.6824138,-11.71412000218246,-0.16761875199590548,0.949580975391608,-0.03580162684321623,11.00172386420503,-0.21069948434364102,17.249862162034848
1760516574.6925504,-11.529334327221557,-0.17590831634464799,0.9527727850043513,-0.042351678999508965,11.049776518273973,0.7312033132076249,15.54329836837408
1760516574.7026482,-11.366429889303546,-0.18077449798533318,0.9564393875058321,-0.04959253878700531,11.195566777769114,1.221196237196393,14.108347036127956
1760516574.7127213,-11.215451639149412,-0.18136911352237567,0.9601724192095187,-0.05760692130923091,11.386589007826482,1.2991866005813584,12.968127543494953
1760516574.7224324,-11.065933779956614,-0.17730376251103636,0.9636792449631123,-0.06625466674560909,11.583226857712969,1.0423505722688111,12.138137902029598
1760516574.732593,-10.907750775914478,-0.16866900747536615,0.9667790922318565,-0.07523147511680559,11.759416631869085,0.55251249720703,11.625201491267209
1760516574.7426922,-10.731904832167109,-0.15598415867552975,0.9693716497621393,-0.0841448300622193,11.90187758277,-0.0584325656240756,11.426033975384378
1760516574.7523994,-10.531136969111396,-0.14008866889700475,0.971392371440075,-0.09258613999366981,12.008499597288937,-0.6831563948318273,11.526479805202447
1760516574.7624087,-10.3002934546675,-0.1220032417578886,0.9727718206904622,-0.1001860708143165,12.086185351533207,-1.2316779104025817,11.901937019675852
1760516574.7724104,-10.036447228093815,-0.10279651441719803,0.9734150209604325,-0.10664929985078063,12.148206577372992,-1.640687208665242,12.518682436730108
1760516574.7824206,-9.73883561027498,-0.08348747063569963,0.973211061195905,-0.11177243743444615,12.211039417581206,-1.8784250670632108,13.335362075252979
1760516574.792403,-9.408702388648186,-0.06499581553849901,0.9720739162805939,-0.11545248710793114,12.290706399875695,-1.9448959200914742,14.304072579753594
1760516574.8024106,-9.049113357917031,-0.04812993415500258,0.9700041017286878,-0.11769225978449137,12.39883840186106,-1.8679203505460549,15.370943424990488
1760516574.8125656,-8.664763725063706,-0.03358604240001974,0.9671501341104436,-0.11860456971444777,12.53891996348291,-1.6960453936512565,16.476561344317723
1760516574.822406,-8.261744908948629,-0.021931500006490877,0.9638437525730793,-0.11841159462779202,12.703407296580448,-1.4895465238349448,17.556789182344037
1760516574.832412,-7.847218657058972,-0.01356098118597419,0.9605885805180986,-0.1174334290031702,12.87248877262749,-1.3107225467073178,18.544508128865143
1760516574.8424695,-7.428973114140399,-0.008638714914288576,0.9579975209787496,-0.1160626978509487,13.015086426236246,-1.2145338517557474,19.3725937543693
1760516574.8524058,-7.014898328235929,-0.007060100551004671,0.9566913338068141,-0.1147279168609855,13.092269968883988,-1.240490303837315,19.978086360822292
1760516574.8626332,-6.612483135958508,-0.00846810600576067,0.9571818313465315,-0.11385310084623738,13.062693937553723,-1.4066139039246413,20.30713599876258
1760516574.8723943,-6.228456699590302,-0.012337892886855132,0.9597669921640151,-0.11382300941589653,12.88914864626409,-1.7062481688503615,20.320024565978244
1760516574.882404,-5.868650678428415,-0.018106648837033192,0.9644633820481252,-0.11496167352492992,12.544984535946892,-2.1083481847432175,19.99549322647145
1760516574.892387,-5.538062326002909,-0.02529827856545017,0.9709928371903865,-0.11752562173417506,12.01912518538975,-2.56153719394678,19.333727813600976
1760516574.9024105,-5.2410116556456,-0.03359424231826906,0.9788259388004185,-0.12170463292063703,11.318662588566792,-3.0016203739085143,18.357571180666078
1760516574.912411,-4.98125628503016,-0.04282982588805467,0.9872692649867268,-0.1276181632754053,10.468570480237211,-3.3615208729924024,17.111733770687742
1760516574.9224164,-4.76196154495947,-0.05292801122708701,0.9955729185139891,-0.13529930786070227,9.50871351108412,-3.5819880010327063,15.659948526492556
1760516574.9324112,-4.58549044433572,-0.06380185384455148,1.003032645928966,-0.14466767375247777,8.48886190048415,-3.62116803982734,14.080218104642945
1760516574.9424086,-4.453043005189262,-0.07525773648696006,1.0090664148034485,-0.1555012370101867,7.46269488985641,-3.4613327530125826,12.458555003870998
1760516574.9526114,-4.3642195482335175,-0.08692428573756172,1.0132557927834607,-0.1674206461828698,6.481777602689231,-3.111641519358024,10.881864906361168
1760516574.9625106,-4.316607588887047,-0.09822355976967069,1.0153541931110246,-0.1798970557395046,5.59031686220768,-2.606561972026076,9.430784212121317
1760516574.972447,-4.3055027084595405,-0.10839495763182787,1.0152729989717455,-0.19228830072983005,4.8212535180606135,-2.000301703473787,8.173300841106075
1760516574.9824164,-4.323870080764425,-0.11657543866445977,1.0130595744269157,-0.20390061648312732,4.194000566352829,-1.358215472319609,7.15985851804052
1760516574.9927754,-4.362627495546714,-0.12192843759430025,1.0088776692558585,-0.21406645862674983,3.7139096361262856,-0.7466104071179895,6.42040192770365
1760516575.0026581,-4.41127702733716,-0.12379928883380445,1.002993435326929,-0.22222491470277958,3.3733458169078614,-0.22261327586304677,5.963529856077163
1760516575.012655,-4.458839744244205,-0.12186398219512316,0.9957635453410991,-0.2279905571114309,3.1540783847576113,0.17429837029094516,5.777667586437336
1760516575.0224197,-4.494978548275238,-0.1162375257777647,0.9876189970511727,-0.23119910528910534,3.0305657729490796,0.427880481818174,5.833995679648891
1760516575.0324035,-4.511149375270107,-0.10751783195770957,0.9790398114551778,-0.23192269944848543,2.973640125203797,0.5471844161782112,6.090761731157911
1760516575.0425274,-4.501608382633462,-0.09675485522394855,0.9705205902756782,-0.2304526604505837,2.95408968593631,0.5650599573677705,6.498506028502049
1760516575.0524554,-4.46412053251634,-0.085347996927162,0.9625321108181272,-0.22725267691887122,2.945701116853574,0.5335402581258915,7.005634294171076
1760516575.0625823,-4.4002580163717715,-0.07488599467160172,0.9554870904652134,-0.2228900961284055,2.9274504731818074,0.5168464843637365,7.563705566681331
1760516575.0724213,-4.3152354975259835,-0.06695091256173,0.9497177892510307,-0.21795664826504807,2.884694172295088,0.5828846116419741,8.131820270634531
1760516575.0824244,-4.217289696531284,-0.06291018259998625,0.9454696988687119,-0.21299132358511885,2.809372754161404,0.7941394655969578,8.679608161949886
1760516575.0926464,-4.116664886703417,-0.06371999630878407,0.9429104289771094,-0.20841676478632865,2.6993669423333184,1.1988597241823902,9.188499766096802
1760516575.1024013,-4.024312583270656,-0.06976273618126694,0.9421482450985467,-0.20449728475785064,2.557217037730513,1.8233942629981879,9.6511788078685
1760516575.1124103,-3.950452349499722,-0.08074041172604261,0.9432530186820756,-0.20132271976903918,2.3884334949563164,2.666476381178957,10.06933456411524
1760516575.1224003,-3.9031654298361045,-0.09564275041646546,0.9462740141248189,-0.19881841245646414,2.199610292797382,3.696144979453535,10.450050009137344
1760516575.1324048,-3.887196552107083,-0.11280129749341351,0.9512515761914465,-0.19677777773657354,1.9965285627716327,4.849832124626794,10.8013546075858
1760516575.1425388,-3.903118326601808,-0.13003037833470674,0.9582205076732397,-0.19491028785263675,1.7824124299329682,6.037923562807922,11.12761125650761
1760516575.1526794,-3.946969973829001,-0.14484417113494033,0.9672012268453982,-0.19289518009431278,1.5564634327623255,7.150800146472382,11.425467175513774
1760516575.1626592,-4.010426011396338,-0.15472896773757908,0.9781732990053132,-0.19043124647529516,1.3127545697359453,8.068996187442055,11.681057735788663
1760516575.1725497,-4.081492109683904,-0.15744300576801065,0.991028112446475,-0.18727645865984108,1.0395279066562444,8.67569774881824,11.869004671072423
1760516575.1824098,-4.145673486996028,-0.15131344306766534,1.0055045289124624,-0.18327663944951797,0.7189305542288166,8.870403830567756,11.95351446117748
1760516575.1923935,-4.187518518858288,-0.13549948700309256,1.0211213285067042,-0.17838707586578767,0.3272495535443325,8.582237932754184,11.89159680231007
1760516575.202478,-4.192402528123377,-0.11018978131066237,1.037129244904813,-0.1726920154296106,-0.16424264336302868,7.781173038897464,11.638123095042694
1760516575.2124152,-4.148377814765594,-0.07669991220902685,1.052509023217936,-0.1664229415473474,-0.7876703205844326,6.485383590050728,11.152152036810236
1760516575.2224193,-4.047876265419384,-0.037435663026288105,1.066036801131845,-0.1599683099640449,-1.5759928453634937,4.763153840818873,10.403679951795137
1760516575.2324493,-3.8890237932395553,0.00430340312819519,1.0764231940700064,-0.153858822174705,-2.5593949022318534,2.7283380264794483,9.37975847283276
1760516575.242668,-3.676334066285251,0.04468129951944955,1.0825106439640784,-0.1487095646214238,-3.7606890732556577,0.5292991555669262,8.088820004639857
1760516575.2524178,-3.42061054488943,0.07980686718005787,1.083491112823194,-0.14510936350491613,-5.190064780193159,-1.667564996423447,6.562145998759858
1760516575.26244,-3.1380009846348944,0.10626010770141155,1.079090943316941,-0.1434684178100397,-6.839898126811229,-3.6974260618183945,4.851780902003486
1760516575.2725306,-2.8482966190435377,0.12155767720376517,1.0696703186054397,-0.14385830708840125,-8.680770366533633,-5.4166706036153105,3.0248265285653817
1760516575.2824202,-2.572715415532297,0.12445599317659473,1.0562069255482793,-0.14589043119025494,-10.660180499350618,-6.719419255109654,1.1547907249878666
1760516575.2925587,-2.3315192526838473,0.11502917358181498,1.0401720061414583,-0.14867294664908015,-12.705459531938555,-7.548555899781092,-0.6887320601013847
1760516575.3029027,-2.1418577948270237,0.09451751714089063,1.0233437913377994,-0.15086637882689066,-14.731909486342786,-7.900339222383349,-2.4504708432460105
1760516575.3124156,-2.0161876099617495,0.06499919108190409,1.0076177376336695,-0.15083362024481922,-16.656166090540243,-7.823134377020396,-4.098414706807007
1760516575.3224244,-1.9614871085027072,0.028977151497302383,0.9948571894963038,-0.14685848191191797,-18.413415716029007,-7.411704536086486,-5.629949487294281
1760516575.332432,-1.9793119395662848,-0.01101426179393321,0.9867932563743699,-0.13739282331221592,-19.975768620551932,-6.798604729093713,-7.074239377996225
1760516575.3424425,-2.0665679977118194,-0.05269548138535013,0.9849502638667841,-0.12128821666547146,-21.368223775113325,-6.143697346918538,-8.490350666434137
1760516575.3524225,-2.2167655686199685,-0.09416992042719093,0.9905580700568428,-0.09797432401550117,-22.678538821285933,-5.622044527969783,-9.961135877478153
1760516575.3624067,-2.4214712737005524,-0.13388378713022278,1.0044156639957083,-0.06755987645477915,-24.058005234238045,-5.40979466346274,-11.583492122016455
1760516575.3724046,-2.6716848475818233,-0.1704416806720861,1.0266862635524439,-0.030849084728776247,-25.711489046289454,-5.667415944659295,-13.456237595039598
1760516575.3825088,-2.958923853007962,-0.20233324914116613,1.056629409781322,0.010717532285914074,-27.87684357435101,-6.519884719646269,-15.66737047915638
1760516575.3924658,-3.2758898472223805,-0.2276539227979306,1.092307898564865,0.0551771337707809,-30.79554748266298,-8.034270887845741,-18.282677297074223
1760516575.4024847,-3.6166952319396675,-0.24391825679680784,1.1303403439266795,0.10018807912003352,-34.67780135867045,-10.196476701483133,-21.337411446771906
1760516575.4125898,-3.9767265643886187,-0.24805815312882679,1.1657935465031974,0.1431812936746798,-39.666120932387265,-12.890345271499807,-24.832117773875694
1760516575.4224503,-4.352288023015979,-0.23666902877856852,1.1923128478720453,0.1815076989799145,-45.80171900631921,-15.883495193741581,-28.73283413874329
1760516575.432547,-4.740199438901025,-0.2065208117815825,1.2025673341443481,0.21258300520139112,-52.997881543193756,-18.824691824212554,-32.97509297655077
1760516575.4424307,-5.137516182696832,-0.15529256084324325,1.1890391372514368,0.23404354240876798,-61.02438372773906,-21.2571739154555,-37.470584347416036
1760516575.4524338,-5.541495308061261,-0.0824223582399123,1.1451164919061436,0.24393281484048276,-69.50686110508843,-22.651055146126684,-42.11515272675352
1760516575.462454,-5.949858742867478,0.01010172412313609,1.066369035675835,0.24093108100435687,-77.94463110123446,-22.455639402326597,-46.79693868731202
1760516575.47242,-6.361312420298888,0.11722403205399955,0.9518071523443232,0.22461647805912968,-85.74906102444119,-20.169214862163532,-51.40375544081424
1760516575.4826462,-6.776190957882279,0.23077762766175752,0.8048741048797918,0.19571266177966448,-92.30167100685826,-15.419851652458881,-55.82905133522058
1760516575.492429,-7.197034630867796,0.34003509058332326,0.6339081942484084,0.15624913148615524,-97.02694854355047,-8.046494034688049,-59.976030841753186
1760516575.5026662,-7.628886801517547,0.43284961263352756,0.45185337894251293,0.10955068994400875,-99.4703348573618,1.8338608867549615,-63.75974703676947
1760516575.5124269,-8.079132163526491,0.49725667429452786,0.27509394052841213,0.05999031546342962,-99.36843265635214,13.788655353767812,-67.10730053779186
1760516575.5224254,-8.556776412967976,0.5233113669510566,0.12144212504590994,0.012487597109914548,-96.69751202422853,27.076009186562274,-69.95667833148971
1760516575.5325284,-9.071188779486874,0.5048663351018965,0.007511882339586274,-0.028190240400285404,-91.68863145566078,40.70300026615654,-72.25509219940992
1760516575.5425036,-9.6304749947091,0.44093697413065064,-0.05406353897093693,-0.05817953307867562,-84.80308184294519,53.53458923076924,-73.95773757032701
1760516575.5524347,-10.23978632941351,0.3362832753925803,-0.056944191660663536,-0.07511375289358631,-76.66961439201867,64.43974550589033,-75.02770564714547
1760516575.5624487,-10.899946170973914,0.2009374374921045,-0.0023017374654470705,-0.07836855397040206,-67.99358068410841,72.44984271078616,-75.43754087451354
1760516575.5725348,-11.606737597724116,0.048668567880644706,0.10143112281814932,-0.06890041379004554,-59.45532219024065,76.89757527741982,-75.17263855677368
1760516575.5832667,-12.351038038701278,-0.10528071580544217,0.24021205790077207,-0.04879748688473843,-51.61807895220456,77.50669633774997,-74.23605406570353
1760516575.5924444,-13.119771154826589,-0.24661614354187034,0.3969453706651893,-0.02075011623976817,-44.862882386915764,74.41484593377653,-72.65335796915588
1760516575.6024244,-13.897459824932604,-0.3640104467744041,0.5542542639956435,0.012397931548839601,-39.36048820633595,68.12913980216523,-70.47554454771354
1760516575.612422,-14.668063059070544,-0.45036319493948834,0.6968745777242101,0.04796003548848983,-35.081214128611194,59.42959805808125,-67.77833955594873
1760516575.6224418,-15.416768107746389,-0.5032006902974603,0.8133234920815344,0.08359217170718983,-31.83542881867969,49.2439631311312,-64.6574827902041
1760516575.6324701,-16.131463214360625,-0.5243100131899736,0.8967367274379567,0.11738637810667149,-29.332407791598705,38.51859204863972,-61.22095648303093
1760516575.6424453,-16.80370792981122,-0.5188127243365054,0.9449328209333171,0.1479015554183376,-27.244068408581747,28.106049063086648,-57.57999493044163
1760516575.6524417,-17.429122204664605,-0.49392607489043505,0.9598605395422509,0.17415411839951556,-25.262058483746515,18.683213494511712,-53.840801086225795
1760516575.6624641,-18.007213657421463,-0.4576525261732132,0.9466337424229861,0.19558649086006302,-23.140371683069922,10.706150619754894,-50.09836048658976
1760516575.672719,-18.540741255944592,-0.4175994768101176,0.9123666050834283,0.2120276946452442,-20.719792213182515,4.401110386199102,-46.432904505654584
1760516575.6827419,-19.034765702793322,-0.3800743317135711,0.8649988607359952,0.22365491123010725,-17.934188130253307,-0.2142834780240403,-42.908783622180174
1760516575.6925125,-19.495559685487255,-0.34953428590264596,0.812256868384134,0.23095697412546332,-14.801481614492356,-3.288855846206185,-39.5750293606271
1760516575.7025,-19.92954594668468,-0.3284022750591168,0.760845244201537,0.23469196631196115,-11.403806970739993,-5.0850333707685005,-36.46678632994022
1760516575.712573,-20.342402121832677,-0.31720090921197946,0.7159156165396902,0.23582562778260177,-7.861986824620832,-5.924819883435228,-33.60696607185049
1760516575.7224476,-20.738426904339846,-0.31491757874133297,0.6808181799321655,0.23543910601606902,-4.309229005592252,-6.141822702803504,-31.00771505934367
1760516575.7327075,-21.120214153046767,-0.3195024479633254,0.6571096376782194,0.2346041564743437,-0.8680604583816517,-6.0436248659296234,-28.67148778053188
1760516575.742432,-21.488640211640163,-0.32841069536220563,0.6447687882135263,0.23423795294296904,2.3668346741136737,-5.886003406820456,-26.591697855128032
1760516575.7525132,-21.84313683990753,-0.3391172472738104,0.6425576683784494,0.23496262941678567,5.338673065319189,-5.858408826198594,-24.753107528203735
1760516575.7624238,-22.1821913708302,-0.34954553376736064,0.6484593621860729,0.2370000850392723,8.031514720928415,-6.078931034641721,-23.13221530189023
1760516575.7725496,-22.50398215896045,-0.3583617469478747,0.6601224903944025,0.24012703800104362,10.466852555012501,-6.596559996457318,-21.69782794753675
1760516575.7824564,-22.807027214518214,-0.36510089626989534,0.6752491074489668,0.24370193340970922,12.695150817936632,-7.398646149332063,-20.411835737522065
1760516575.792544,-23.09071147193661,-0.37011554638968297,0.6918786925518224,0.2467606211402462,14.784091176280354,-8.421797941270166,-19.230110749650038
1760516575.802458,-23.35557459947435,-0.3743686597542409,0.7085438211577647,0.24816581643268437,16.80557168242654,-9.564791771808094,-18.10347714045748
1760516575.8124495,-23.60328753335387,-0.3791205720231255,0.7242983246625481,0.24678710923117764,18.82348403255925,-10.70229295486517,-16.978799388668175
1760516575.8224359,-23.836312999975995,-0.38557990867360703,0.7386418651660447,0.24168406524329525,20.884000879747994,-11.698307651791708,-15.800332017401162
1760516575.8324437,-24.057316865133497,-0.3945935876518755,0.7513816143729173,0.23226505058894945,23.00965359010968,-12.418405313379496,-14.511536241054662
1760516575.8425138,-24.268454198130588,-0.4064389903568557,0.7624781444101849,0.2183979160066706,25.197918415192028,-12.739974222755476,-13.057558264667229
1760516575.8524222,-24.470682019100924,-0.4207551068785245,0.7719175379069592,0.20045455186916683,27.424372683222973,-12.560143340730148,-11.388441433758738
1760516575.862529,-24.663244908458584,-0.4366174503324511,0.7796381144412108,0.17927988511858456,29.649793628591574,-11.801467038492135,-9.462900651969779
1760516575.8726494,-24.84344351530472,-0.45273205083818757,0.7855229766988009,0.1560877164153403,31.829903419162438,-10.41586473665318,-7.2521633186311565
1760516575.8825455,-25.006737413655024,-0.4677013513029241,0.7894529146791801,0.13229970730296894,33.92584813871861,-8.387443706734576,-4.743062119749164
1760516575.8925838,-25.147163313164068,-0.4803016176313558,0.7914009018462091,0.10935640428121796,35.91307631500311,-5.734649724917535,-1.9393714646789253
1760516575.9024284,-25.257981641780553,-0.4897104104027269,0.7915417136382321,0.08853619676424682,37.78634800694119,-2.511851634212744,1.139529375476859
1760516575.9125264,-25.332415867379986,-0.49563576647008095,0.7903493246245874,0.07081694618994543,39.559395902593344,1.1897641858094286,4.463062514207693
1760516575.9224303,-25.364333465843774,-0.4983234308238968,0.7886594651932279,0.05680581388045151,41.2591421302402,5.24213068410277,7.996404441920961
1760516575.9324374,-25.348739906060114,-0.49844735122755957,0.787681659637334,0.04674770900876701,42.91580354586295,9.481168016799824,11.70844610850072
1760516575.942427,-25.282010502221237,-0.49691292045647195,0.7889511359371189,0.04060574411390655,44.551105533529814,13.708797387989751,15.57851895836509
1760516575.9525292,-25.16185323813768,-0.49461608007717955,0.7942150624191905,0.03819292355191499,46.16693939458401,17.696626113458766,19.599550026208696
1760516575.9625154,-24.987059892428633,-0.4922040548312616,0.8052506694043939,0.03932542319109912,47.73631341694692,21.19221479087429,23.775895952974484
1760516575.9727907,-24.757148741216113,-0.48987921967601294,0.8236178383484398,0.043963176832832754,49.197714656800265,23.929167680880518,28.11525616414858
1760516575.9825187,-24.4720221390334,-0.4872791001639639,0.8503587399236512,0.052301605960891236,50.453343084785246,25.642406566556932,32.61551036345906
1760516575.9924386,-24.131753379034958,-0.48345175217817093,0.8856728521689178,0.06478038811741754,51.371305525399194,26.08964277479283,37.24874950282473
1760516576.0024245,-23.73658098540871,-0.47692788334797376,0.928615395518958,0.08198475952846086,51.79182851898138,25.07901460866606,41.94589026078333
1760516576.012573,-23.287133404166394,-0.4658776022176128,0.9768882356724778,0.10443481308315675,51.53781484396241,22.501112456826338,46.58581364572347
1760516576.022447,-22.784847277834853,-0.44833954919637764,1.0268091364865521,0.13228683351653417,50.43042667295331,18.36151865441451,50.992721439808165
1760516576.0324645,-22.232493066556167,-0.42251937794314937,1.0735436175420026,0.16500139034616385,48.31038407669244,12.808132136885943,54.94429312419859
1760516576.0424397,-21.63469335992653,-0.3871558085787941,1.1116450884177185,0.2010578729010592,45.06474264103618,6.146540128579071,58.19138201832071
1760516576.0524778,-20.998316058627957,-0.34193060899324773,1.1358701436693877,0.23780767972491887,40.656837534630945,-1.1630045758781071,60.4876613976689
1760516576.0624614,-20.33264437599342,-0.2878564909020589,1.1421388121679255,0.271551451290574,35.15443582570418,-8.531620192821366,61.62518883266777
1760516576.0726662,-19.649261663589222,-0.22753738028657394,1.1284287139871938,0.2978915164111798,28.749139681953956,-15.292167189743484,61.46987800117123
1760516576.0824456,-18.961633367026568,-0.1651870761090882,1.0953615628832816,0.31234711775738433,21.75988934313521,-20.770859034154658,59.99003085841704
1760516576.0924842,-18.284412164473256,-0.10632630746807907,1.0462884195498428,0.31114140052976336,14.615511631164695,-24.37220393114151,57.27182885938646
1760516576.1024528,-17.63252691470865,-0.05714658131837114,0.9868100807445461,0.2920027422197296,7.815293711538057,-25.665216206114312,53.51794642448476
1760516576.1124516,-17.020136575005534,-0.023613094738086343,0.9238363698457842,0.2547933335229984,1.8715667158061204,-24.45647659451459,49.0286796142639
1760516576.1226249,-16.459537859610887,-0.010452409846479592,0.8644182558998472,0.20179786283593276,-2.756992624431842,-20.835887030805456,44.16837931469359
1760516576.1324687,-15.9601169007888,-0.02021437346253301,0.8146312904203838,0.13757340810504248,-5.729464320499888,-15.184199075861782,39.32278411312624
1760516576.1424718,-15.527440144776456,-0.05261021065723173,0.7787500523763271,0.06836146059155368,-6.871715677000788,-8.13734273433857,34.85445546272079
1760516576.1524897,-15.162591275886756,-0.10430420396200069,0.7588568098210793,0.0011667678958435096,-6.200332241931216,-0.5102752507298748,31.063498368395322
1760516576.1624346,-14.86186708670925,-0.16925478005350186,0.7549019382961035,-0.05731414022908457,-3.9165956163207025,6.8090535687025024,28.159098969054167
1760516576.1724467,-14.616926276122637,-0.23956678726386735,0.7651167497589497,-0.10170140899884075,-0.3722711544298692,12.978762833232006,26.24476351798643
1760516576.1824658,-14.415432608565066,-0.30668326045622857,0.7866124332162641,-0.12868649438642865,3.985000533047946,17.315287120869087,25.317483472072016
1760516576.192459,-14.2421580768159,-0.3626701065440169,0.8159982629053141,-0.13740503728813458,8.675346544726487,19.380197972413953,25.279079232095853
1760516576.202445,-14.080433573973812,-0.4013466027236325,0.8498990923475412,-0.1293834625712384,13.24762440546052,19.02810223125939,25.956822933530958
1760516576.2124665,-13.913773638801631,-0.4190687724915908,0.8853132042893528,-0.1081005837326165,17.32832201468544,16.4096601613729,27.12989800239486
1760516576.2225828,-13.727470287930556,-0.41505679327020034,0.919803928168564,-0.07827674514466743,20.65281489292676,11.931940291224125,28.55810094906166
1760516576.2325065,-13.509953973681359,-0.39125262104189124,0.9515536834299155,-0.04504493584904895,23.077419788608267,6.185530396138522,30.009326793853624
1760516576.2424397,-13.253757419212436,-0.35178213517192536,0.9793257044132891,-0.013163490809092054,24.5740102948884,-0.14722495568942578,31.282782948455697
1760516576.2524433,-12.95598447188887,-0.3021594006903861,1.0023790007835927,0.013598508326133437,25.211174526404086,-6.386619608326254,32.22556523563353
1760516576.2624593,-12.618267252512153,-0.24839838730374353,1.020373215255594,0.03282296589425112,25.126976725926397,-11.937772497807225,32.741218677423234
1760516576.2725058,-12.246271410230442,-0.19618954040298042,1.0332886317359884,0.04353035360364034,24.498506137420037,-16.349878762304424,32.79012430048623
1760516576.2827187,-11.848862952990533,-0.1502602197645639,1.0413726173590767,0.04602545860777184,23.51278884945772,-19.347416717713962,32.38279763409075
1760516576.2925947,-11.437070758806744,-0.11397896890941045,1.0451054390166115,0.04157228995395093,22.342559014695492,-20.833833627768644,31.568189266506682
1760516576.3026865,-11.022968708784676,-0.08920229462956758,1.0451623389520246,0.031987651798687664,21.129092421094455,-20.872629620890763,30.419640330379902
1760516576.3125787,-10.61857387622433,-0.07632037033409571,1.042348249318236,0.01924081571488363,19.973007246819833,-19.653244474515418,29.02117850672523
1760516576.322759,-10.234830000979972,-0.07444427654998033,1.0375008744033491,0.005127869699265798,18.93276773489273,-17.449658715596424,27.456350567555845
1760516576.332469,-9.880729677808628,-0.08168361141514556,1.0313830117868545,-0.008939578358542012,18.0296617267891,-14.578569492136415,25.80088508366352
1760516576.3425467,-9.562622182752932,-0.09547327055475734,1.0245963830908937,-0.022022675884527703,17.25732148169893,-11.362080854082992,24.11940802365301
1760516576.3525395,-9.283747670768786,-0.11291375260111003,1.0175416842713918,-0.03363792457621132,16.593479503129927,-8.09773860053553,22.465509586705014
1760516576.362594,-9.044029257438975,-0.13109433638637724,1.0104322480396721,-0.04366786896552816,16.011628594175814,-5.036937032561614,20.883902352754525
1760516576.3724718,-8.840145571499647,-0.1473774284552668,1.003351222120242,-0.05223900106985031,15.490562588049315,-2.3714991751428833,19.41325599548178
1760516576.3825874,-8.665897591491992,-0.15963199793163715,0.9963294940029264,-0.0596015986126012,15.020348519494329,-0.22763292945643757,18.08847161749927
1760516576.392436,-8.512866407251048,-0.16640786916838196,0.9894175762075248,-0.06603526630583077,14.60404725941478,1.3336708976483895,16.941582057090184
1760516576.4024506,-8.371322256503172,-0.16703884281713238,0.9827305293504717,-0.07179043735675292,14.25535605302236,2.3107107265818283,16.001024160592674
1760516576.412458,-8.231289103083004,-0.16165664003757302,0.9764564629501463,-0.07706362653349803,13.993146823950852,2.750618791353637,15.289566943892074
1760516576.4224465,-8.083612014269288,-0.15110029484207263,0.9708307521776601,-0.08199575774094968,13.834451994528479,2.7356568881248813,14.821533040656503
1760516576.4324682,-7.92084955798749,-0.1367242576821611,0.9660877975230276,-0.08668043441720075,13.787672107913242,2.3678838759460623,14.600035407547846
1760516576.442585,-7.737846079849789,-0.12013823757647109,0.9624085193669726,-0.0911725883331653,13.847597286888774,1.7540467185334596,14.61480868798244
1760516576.4524682,-7.531926968823125,-0.10293729465826117,0.9598816904048143,-0.09549486775108681,13.993307346136465,0.9925345473526216,14.840985638586814
1760516576.4624548,-7.302768678051576,-0.0864859492015042,0.9584900008652075,-0.09964511584079999,14.189299813650852,0.16390609634902786,15.238995285645387
1760516576.4724681,-7.052072850588163,-0.07179920082669403,0.958121961241697,-0.10360990908787537,14.389488106709287,-0.6741322792519363,15.755691143287924
1760516576.4824562,-6.783186386185177,-0.059526505775510684,0.9586039392881877,-0.10738599522820953,14.543177523740031,-1.4872275334149487,16.326805887942793
1760516576.4924788,-6.500762784688476,-0.05001167904530843,0.9597441649902037,-0.11100606881293637,14.601848875185079,-2.2610645289710796,16.88078660691762
1760516576.502454,-6.210489216109821,-0.04338564284940114,0.9613793542504281,-0.11456078584368992,14.525562011066098,-2.9954964775457205,17.343935389015943
1760516576.5126295,-5.9188424812892455,-0.03964980325418211,0.9634121370307751,-0.1182075400719757,14.287986620900542,-3.6976179217273684,17.646570593370644
1760516576.5226138,-5.632805284740765,-0.0387207775222286,0.965826631527818,-0.12215959955249761,13.879404855153846,-4.375179357978471,17.729683883564498
1760516576.5324893,-5.359481529773284,-0.04042919939648457,0.9686756370720991,-0.12665621480428116,13.307424354965462,-5.031393816456223,17.551341657390303
1760516576.5424604,-5.105593685188449,-0.044489608878076736,0.9720446832102676,-0.1319217044742899,12.595502903144185,-5.6617261639805765,17.091906293867773
1760516576.552492,-4.876907008291983,-0.05047226942927305,0.9760066613268655,-0.13812464555439155,11.779657064698116,-6.252822658062606,16.357109379671545
1760516576.5626059,-4.67767311808126,-0.05780280001065302,0.9805799609850769,-0.14534590952121404,10.903896750810953,-6.783406702326274,15.378201733357898
1760516576.5725,-4.510195494982914,-0.0657967645580581,0.9856962510127059,-0.15355954265329594,10.015022297331043,-7.226737666722751,14.208878560865259
1760516576.5841007,-4.374592794231594,-0.07371851940242466,0.9911789417405433,-0.16262700952273948,9.157465803286804,-7.554067080890871,12.919334408243575
1760516576.5933757,-4.268795357987178,-0.08084875610326095,0.9967342609008859,-0.17230416757281217,8.368842070919417,-7.738421817640611,11.588420247791449
1760516576.602482,-4.188778939360975,-0.08655236202505368,1.001961596638386,-0.182260560146957,7.6767541344989745,-7.758046092581614,10.295226357234844
1760516576.6125982,-4.129018748616977,-0.09034500989344817,1.0063916024065405,-0.1921105025563584,7.097160626872507,-7.5989950281805605,9.111397283697347
1760516576.6225586,-4.083120100981136,-0.09195322026940589,1.0095540435759103,-0.20145340363450956,6.634314617128499,-7.256658971796314,8.095166359503562
1760516576.6325624,-4.044541785943303,-0.0913527009122202,1.0110636311245014,-0.20991707345216565,6.2820228889073295,-6.7362826991094344,7.287639706638441
1760516576.642505,-4.007292243437035,-0.08876678812410982,1.0106993640513549,-0.2171953179726631,6.02582328237147,-6.052693566831019,6.711413391597531
1760516576.6525435,-3.9664732974186077,-0.08461722371868968,1.0084512505932353,-0.2230727038494753,5.845651115730466,-5.229419888093818,6.371261054817482
1760516576.6625593,-3.9185823343182347,-0.07943728173637081,1.0045210897652115,-0.22743436287392163,5.718628805864647,-4.297229189010552,6.256416429461112
1760516576.6725576,-3.8615501119638544,-0.07377211141911134,0.9992832735749325,-0.23026367333688832,5.62170742213439,-3.291981894065609,6.343884693515677
1760516576.6824849,-3.7945632497523976,-0.06809597298948104,0.9932242717067837,-0.23163279534775721,5.533968730605633,-2.2517059926946867,6.602208740529901
1760516576.6924746,-3.717771821432974,-0.0627689770762223,0.9868795236191873,-0.23169008357242596,5.438449184148624,-1.2129819078739317,6.995162113119633
1760516576.7024682,-3.631997377292441,-0.05804088935542509,0.9807783765026047,-0.23064575943970547,5.323386083223466,-0.20699632217107977,7.484945853294342
1760516576.7124646,-3.538534773880819,-0.054093548450224085,0.9753993514631886,-0.22875460504875456,5.1828225910634345,0.7441548666566183,8.034639432067724
1760516576.722469,-3.4390947980330115,-0.05110244432112085,0.9711337599730632,-0.22629345417783842,5.016543978926347,1.6302542929611084,8.609859317055903
1760516576.732477,-3.3358828116656394,-0.04929513160049594,0.9682558184118534,-0.22353274183780236,4.829354951479777,2.4542641479196217,9.179745788455895
1760516576.742469,-3.2317686354093764,-0.04898876110179657,0.9669001577583958,-0.2207045169294355,4.629756929155457,3.231774110862645,9.717484625741202
1760516576.7525647,-3.1304813887748173,-0.050596837911568986,0.9670503326394665,-0.21797223098334564,4.428149508246891,3.988508322023647,10.200573184743124
1760516576.7625523,-3.0367563233443975,-0.054601876629916196,0.9685423036276921,-0.2154088211400919,4.234748332968687,4.756086548163849,10.61098123903386
1760516576.7725496,-2.9563627618634745,-0.06149476864100454,0.9710846621492388,-0.21298879563592982,4.057457232121755,5.566474868697587,10.935262320091933
1760516576.78264,-2.895951572707482,-0.0716852805079579,0.9742944133501958,-0.21059780935923822,3.8999402736614353,6.445739517875626,11.164574583199618
1760516576.7927976,-2.862680141944066,-0.08539312011984773,0.9777452641949169,-0.20806035565898898,3.760115020955479,7.4078382045897255,11.294509718449593
1760516576.8024726,-2.8636049838260087,-0.1025351909934925,0.9810246737933633,-0.20518296541224493,3.6292510493762062,8.449250095204276,11.324630088236177
1760516576.812488,-2.904874491346657,-0.1226297174745359,0.9837950139213674,-0.20180665939337872,3.4918233731253165,9.5452481698466,11.257678329564458
1760516576.8224678,-2.990799488506002,-0.1447393501326222,0.9858518176593909,-0.19785889825852337,3.3262372581184603,10.648535643049788,11.098525741947654
1760516576.8324833,-3.1229179335860695,-0.16747192730607538,0.9871686368915654,-0.19339331798360904,3.106489586073096,11.690777703024184,10.853025651324677
1760516576.842595,-3.2991941327938408,-0.18904978062899885,0.9879158338661329,-0.1886064924052952,2.8047386137848576,12.587244487185469,10.52699473532066
1760516576.8525665,-3.5134964388679806,-0.20744812647463226,0.9884428358860448,-0.18382527351144518,2.394610711044177,13.244358352127737,10.125537795713173
1760516576.8626215,-3.7554778272064024,-0.22059223542452924,0.989221178851108,-0.17946529400845698,1.8549022786779057,13.569478710682715,9.652868970567841
1760516576.8726063,-4.010941942484838,-0.2265933160247158,0.9907562428238239,-0.17596914329010943,1.1731866038204128,13.481864073185234,9.11269418075601
1760516576.8825505,-4.262718722365346,-0.22399555140898725,0.993483900742797,-0.17373852619815647,0.34876128636347403,12.92350914355961,8.509129971041395
1760516576.8926103,-4.4920065769162125,-0.2120020673251344,0.9976714191026607,-0.17307557072390448,-0.6055954308565421,11.868502724391082,7.848047542128779
1760516576.9024878,-4.68006915152871,-0.19064575191038355,1.003340798690731,-0.174143962932238,-1.6634497728709632,10.329685474502643,7.138644706463502
1760516576.912574,-4.810109302143624,-0.1608722194984986,1.0102298089066455,-0.17695327371825123,-2.786290442651874,8.361673297831619,6.394969589027809
1760516576.9224672,-4.869088783225131,-0.1245083698689797,1.0178022814937673,-0.18136308453058184,-3.926788844631989,6.059703251468615,5.637061799439025
1760516576.9325044,-4.849231835678232,-0.08410250587420942,1.025313601066107,-0.18709911278470656,-5.0334512791018255,3.554207366111236,4.891349772191228
1760516576.9424796,-4.748960129134514,-0.04264132465119727,1.0319278304184363,-0.19377160249136102,-6.056185591145036,1.0015040532080035,4.189956713443253
1760516576.9524932,-4.5730687457671,-0.003174214078709578,1.0368691552369695,-0.20088727874457638,-6.95214671892224,-1.428482580264906,3.568637092429889
1760516576.9625587,-4.332068801655574,0.03159833732093461,1.0395752641540548,-0.20785152542583182,-7.691136890650802,-3.566038937907912,3.0632102284491434
1760516576.9726079,-4.04077126058872,0.059696650335676484,1.039810682027482,-0.2139663326556316,-8.25990073428533,-5.255180568607222,2.704593566573053
1760516576.9825563,-3.716332616057804,0.08011633360305674,1.0377024769028078,-0.21843700390266474,-8.66490910773382,-6.365001348456536,2.512853298274437
1760516576.9926019,-3.37609241267109,0.09290560885622506,1.0336828210280107,-0.22040115603830987,-8.933565846466669,-6.797466244770295,2.49101099586451
1760516577.00262,-3.035581420257472,0.09904163345606785,1.028354522856097,-0.21898649879017004,-9.113996876619026,-6.491196715302252,2.6195537568366682
1760516577.0125008,-2.70705370316383,0.10012754096490505,1.0223205698896762,-0.21339323362260254,-9.273543673029332,-5.421852975026092,2.852599856278191
1760516577.0225613,-2.39879585208088,0.0979738711622519,1.0160259500500517,-0.2029872288582636,-9.495818629122386,-3.6004676065718297,3.1164591676059548
1760516577.0326424,-2.1153100063616055,0.0941547823665525,1.0096513581535784,-0.18738430504481274,-9.875905670881142,-1.0712483506611825,3.3109593189980333
1760516577.0427547,-1.8582843376842204,0.08963706711026596,1.003082021443994,-0.1665058656981241,-10.51327979048366,2.0900561800174344,3.3134992924305156
1760516577.0526779,-1.628094144360776,0.08456810902601834,0.9959561204545194,-0.14059255700769605,-11.502441751950096,5.7769095685102245,2.9854845753511148
1760516577.062554,-1.425461667932979,0.07827686281206435,0.9877781320391248,-0.11017382985048414,-12.922061493679708,9.852374589588704,2.180698129471723
1760516577.0726874,-1.2528745069473521,0.06949439663650131,0.9780668844745468,-0.07600306400071906,-14.824288848628795,14.150348188997494,0.7552576963842246
1760516577.0825891,-1.1154264407438093,0.056748806968041084,0.9665027668265213,-0.038976693001643255,-17.226383396515594,18.47932405178395,-1.421039568907818
1760516577.0926733,-1.0208870292534435,0.038842981777500604,0.9530459219697283,-5.958562349130081e-05,-20.10663307378324,22.630444938592902,-4.45218238830607
1760516577.1025655,-0.979003175041701,0.015290513747815085,0.938010968715213,0.03976388217761066,-23.405733212756097,26.391048903808215,-8.402736932156243
1760516577.1125212,-1.0002387843322478,-0.013419217472324262,0.9220932740935757,0.07950397680137015,-27.03370262346285,29.563538449820125,-13.285143588328605
1760516577.1225066,-1.0942951055952086,-0.045814557310926915,0.9063435267163507,0.11815085432230987,-30.881277138425986,31.987403915778394,-19.04945897456044
1760516577.132497,-1.2687714694390186,-0.07970183186665974,0.8920882634338835,0.15464933796724925,-34.833674146639645,33.56028402792946,-25.577901826346586
1760516577.1424794,-1.5282337198931195,-0.11261626846714086,0.8807999073773265,0.18788570217190503,-38.78390586792311,34.25297009347192,-32.686293769629614
1760516577.15249,-1.8738118460074098,-0.14233304006523473,0.8739262745954098,0.2167042423068004,-42.642803170306784,34.113926073550694,-40.13351522663606
1760516577.1624799,-2.3033056768818607,-0.16730030400084242,0.8726906949525404,0.2399623967397493,-46.343744804960565,33.26119379780571,-47.63871572439178
1760516577.1724916,-2.8116733647154284,-0.1868947762067003,0.8778752167275001,0.256624258231088,-49.84149553627801,31.862792795093725,-54.90465355949362
1760516577.1825452,-3.3917292905677976,-0.20146603362249543,0.8896122545731763,0.26588508209678235,-53.10604789827531,30.109838468635754,-61.64453236373492
1760516577.1924865,-4.034888994325084,-0.2121969142273583,0.9072367198540737,0.2673123485345991,-56.113520344519465,28.188421397253155,-67.60914727828222
1760516577.2024856,-4.731854294446028,-0.22084017122851704,0.9292720108389595,0.2609794584231227,-58.8367692682509,26.255982889814412,-72.61091851902472
1760516577.212527,-5.473198080751406,-0.22939140365173274,0.9536029934641526,0.24755800057163055,-61.23836500610521,24.42569044684649,-76.54135514744497
1760516577.222502,-6.249846525207493,-0.23973949067666292,0.9778140852287542,0.22833261615402542,-63.26795744453396,22.75954866561924,-79.37886773377586
1760516577.2327874,-7.053453838355566,-0.25332382106048723,0.9995889196099271,0.20511642644111838,-64.86483911840752,21.269168027063316,-81.18509830673759
1760516577.2424777,-7.876645507362826,-0.27083652037861605,1.0170472006477402,0.18007056251836379,-65.96494354982637,19.922587395567756,-82.09013362359472
1760516577.2525518,-8.7131027311533,-0.2920236007932812,1.028941363011033,0.15545668538113502,-66.51016988290536,18.65558172738731,-82.2693804906134
1760516577.262489,-9.557483049853388,-0.31563908770102633,1.034701054814177,0.1333688186407548,-66.45740239241722,17.385815073902567,-81.91647107446262
1760516577.2725425,-10.405207133577601,-0.33958482653318,1.0343573182607553,0.1154974970380891,-65.7850533072484,16.027987360703708,-81.21682606017849
1760516577.282491,-11.25217164629563,-0.36123204692681266,1.0283948671549517,0.10297183524094625,-64.49603532061595,14.508071733038085,-80.3256740626829
1760516577.2924874,-12.094461387241093,-0.3778768216233397,1.0175790064394243,0.09630293688932519,-62.617206658595535,12.775028262535049,-79.35297914869557
1760516577.3024697,-12.928127662553923,-0.38724259041580483,1.0027931814153812,0.09542295048130821,-60.19612923284416,10.8089049458366,-78.35634897799777
1760516577.3125057,-13.749078666215901,-0.38792424767746253,0.9849109103185077,0.09979094415785374,-57.296342653818556,8.624727611968936,-77.34184093994566
1760516577.3224847,-14.553099692691694,-0.37967857229697066,0.9647144624034347,0.10852827297043259,-53.99237677826676,6.271884749855816,-76.27170734861272
1760516577.332498,-15.335993783609045,-0.36350226353540216,0.942861805457454,0.12055223700110441,-50.36548161413913,3.8289518338867636,-75.07745372087861
1760516577.3426118,-16.09381185989909,-0.3414897545540316,0.9198934151351368,0.13469096520870533,-46.50056766039429,1.3942971528686805,-73.67606080333022
1760516577.3526642,-16.823127851243484,-0.3165119058310899,0.8962633477343515,0.14977590102827942,-42.484224687884755,-0.9265647213008562,-71.98689387118574
1760516577.362725,-17.521309112622586,-0.29178880251786754,0.8723765176955831,0.16471517698146998,-38.40317324233636,-3.035205947104856,-69.94683063961314
1760516577.3725266,-18.18673428426429,-0.2704383396467283,0.8486168220711922,0.17855170935593564,-34.34235942726975,-4.853920961200444,-67.52154454702126
1760516577.3825736,-18.81891767421184,-0.2550703265216125,0.8253568860848081,0.19050808494780425,-30.38217538383899,-6.336482259395866,-64.71157921700257
1760516577.3926077,-19.418509583297293,-0.24747370788294454,0.8029474397851666,0.2000190075316505,-26.59474710558182,-7.474170258574042,-61.552661594447734
1760516577.4025612,-19.98715572271509,-0.2484236950197919,0.7816914684729768,0.2067510160776543,-23.039578567109967,-8.296108573021487,-58.1105048552342
1760516577.4124882,-20.527217562976915,-0.2576225981662514,0.7618146258240543,0.21060811986670547,-19.75895790026574,-8.86398170465165,-54.471122753670706
1760516577.4225874,-21.0413800301379,-0.2737802712649576,0.7434470467803734,0.2117222781118633,-16.773520485223944,-9.262132430287508,-50.72841723085533
1760516577.432475,-21.532200574128996,-0.29482887260887575,0.7266295682464939,0.21043009629053336,-14.078404533746587,-9.584662747828197,-46.97141393146945
1760516577.442482,-22.00167672971304,-0.3182477669843268,0.711348159385774,0.20723980568966485,-11.640603165237682,-9.921477391649272,-43.27373365407073
1760516577.4525673,-22.45091865435445,-0.34145324993929493,0.6975875992571436,0.20279221839604714,-9.398296556630722,-10.345274275371517,-39.68742159612059
1760516577.4625876,-22.880002659562006,-0.36219411847134153,0.685386208999691,0.19781499675505387,-7.262930929971722,-10.901344050241661,-36.24213957260465
1760516577.4725058,-23.288051219102098,-0.37889263314452365,0.6748728530245622,0.19306480761423106,-5.124528668141267,-11.60166992334086,-32.94934735192042
1760516577.4824955,-23.673539932928744,-0.39087903235757104,0.666274362590579,0.1892517545765476,-2.860327577414024,-12.424190312560965,-29.809905571159753
1760516577.4925349,-24.03478291883754,-0.3984835291888538,0.6598906406683219,0.18694644061660462,-0.34655222324200863,-13.31725789816816,-26.822794692963644
1760516577.5026088,-24.37050814336975,-0.4029713850419385,0.6560420240341707,0.18647975317302407,2.527104446717466,-14.208461105412207,-23.992489507265276
1760516577.512556,-24.68041406454237,-0.4063313188136435,0.6549986224239246,0.18785558297758792,5.841048242717436,-15.016266406518234,-21.332992659702825
1760516577.5224955,-24.965602310014322,-0.41094969353859534,0.6569044948705833,0.19070345419453452,9.628694942320507,-15.662547076788607,-18.86747458608024
1760516577.5325117,-25.22880345599357,-0.4192178196937663,0.6617096536417393,0.19429703419530564,13.860667827831197,-16.084050016910613,-16.623573352275184
1760516577.5425422,-25.474344889534784,-0.4331255898023048,0.6691202583868916,0.19765283537729753,18.432847353498023,-16.241177195892465,-14.625365332808776
1760516577.5525758,-25.70784247725271,-0.45389307763548586,0.6785744189739451,0.1997028814898578,23.16131057779336,-16.123008673593187,-12.88367448285818
1760516577.5626416,-25.93562799793906,-0.4816865212391084,0.689249492823233,0.19951208417508873,27.787303305191916,-15.748127397757964,-11.386728472123076
1760516577.572638,-26.163954212956593,-0.5154592166224592,0.7001059245349841,0.19649337639460912,31.994798181810626,-15.161382083929547,-10.093223485613327
1760516577.582508,-26.398051706416418,-0.5529500944820972,0.7099706292499423,0.1905673303083266,35.44162328234823,-14.427155160174468,-8.929631101077781
1760516577.5926495,-26.641144583691023,-0.5908588965581172,0.7176581623066308,0.182221297735012,37.802589073157186,-13.61999617480693,-7.793024239472656
1760516577.60265,-26.893559441641397,-0.6251939938825835,0.7221203299168605,0.17244588719066611,38.81990121072806,-12.813692607478808,-6.559764645342403
1760516577.6126032,-27.152074995154855,-0.6517582513334388,0.7226061121695803,0.16255821818513957,38.35320373041127,-12.069975039685191,-5.099134243138672
1760516577.6225386,-27.409650267567926,-0.6667068163484603,0.7188072404006359,0.1539505497025168,36.41982534868084,-11.428023392354055,-3.289656308699337
1760516577.6325164,-27.65563241742874,-0.6670907718976269,0.7109654606301118,0.14781840788558478,33.21608456005143,-10.895757625429312,-1.034875147768633
1760516577.6425092,-27.876479813744204,-0.6513032571287402,0.6999281238128189,0.14492132116906234,29.113234044714936,-10.443732174765112,1.7248148586502405
1760516577.6525142,-28.056945761375914,-0.6193682266471078,0.6871540226062253,0.1454179018946602,24.626308570358333,-10.002529928653534,5.006892814033832
1760516577.6625297,-28.181568508045064,-0.5730423439894985,0.6746801987611198,0.1488031311080061,20.359512895157042,-9.464865325817431,8.788984823273704
1760516577.6725757,-28.236233306914603,-0.5157251797356969,0.6650564980188447,0.15396204292218976,16.93634361787398,-8.693805542692932,13.017761232692914
1760516577.6825233,-28.20954462653719,-0.45218970210804327,0.6612422157842819,0.15933858727998307,14.92519348308553,-7.538118257121634,17.62188281256769
1760516577.6925058,-28.09378623423582,-0.38815627644939327,0.666446900223882,0.16319970772049905,14.771222720430359,-5.854519468906692,22.525524640897377
1760516577.7026691,-27.885342049224047,-0.3297406012347396,0.6838916098225665,0.16395537387325979,16.743135419887622,-3.5347633795582154,27.659017082858256
1760516577.7127004,-27.584570004420566,-0.28281258085924205,0.7164725882496402,0.1604815505976305,20.900141074979484,-0.5336917496011527,32.963913095448184
