timestamp,angle,linear_acceleration_x,linear_acceleration_y,linear_acceleration_z,angular_velocity_x,angular_velocity_y,angular_velocity_z
1760680823.9849286,-6.213264098798821,-0.06752358281271784,0.9712159000651253,-0.24970912287242505,5.612878640081329,6.238987481776376,7.10207411703337
1760680823.995167,-6.055928996243623,-0.06863435032750609,0.974653825783079,-0.2523826926654417,5.422949472166636,5.913024655671642,7.35811993021291
1760680824.0048504,-5.904218387273162,-0.06963175163395739,0.9766335168149466,-0.2534553049845233,5.197038187997755,5.3480902988152375,7.68745646463982
1760680824.0150642,-5.756313538851711,-0.0703266705416109,0.9768354324776873,-0.2530686072701104,4.932353000773242,4.505372589476034,8.121070947098339
1760680824.0248988,-5.6100652036482925,-0.07066497715496455,0.9752091612485444,-0.2515259243869214,4.628877733848655,3.3684307099420545,8.679942858176155
1760680824.0348074,-5.463459290635213,-0.07073810351875746,0.9719842046544542,-0.24925885175214701,4.289674734817756,1.9491766410014366,9.369802429447153
1760680824.0449846,-5.315063994924182,-0.07075916993878266,0.9676254037678762,-0.24677783728841896,3.920657744594908,0.29044513371336006,10.17768214722752
1760680824.0549958,-5.164361380201926,-0.07100526133443842,0.9627437695139053,-0.24461474674706635,3.5297801915253344,-1.5355345654473258,11.071034876950614
1760680824.0649045,-5.011886778621287,-0.07173729444598739,0.9579848609909218,-0.24326548873468462,3.1257537053011304,-3.4327816402355973,11.99979674599936
1760680824.0749817,-4.859146079301914,-0.07311874607954054,0.9539212344081079,-0.24313900733535612,2.7165808938881795,-5.290629361576592,12.901277172947816
1760680824.0850828,-4.708339293249427,-0.07515767539500522,0.9509716176513504,-0.24451681788886032,2.308285986309765,-6.994938495148095,13.707251383096857
1760680824.0948086,-4.561966706006139,-0.07769018571837293,0.9493596091093455,-0.2475259639197082,1.9042008173417904,-8.439873617269598,14.352225879725685
1760680824.1048539,-4.422415211745591,-0.08041040047790403,0.9491131437486372,-0.2521276305109012,1.5050017508216942,-9.53869068210302,14.781655466895064
1760680824.1147983,-4.291612107181206,-0.08293699936723815,0.9500962366653167,-0.2581225802982391,1.1094509906066718,-10.232300661102872,14.958953974693049
1760680824.1248188,-4.170797135130835,-0.08489407419223538,0.9520585116704826,-0.26517257265960525,0.7155724961214832,-10.494813203505252,14.8704063560686
1760680824.135054,-4.0604172732758625,-0.08598018780616587,0.9546870925185437,-0.2728347897749432,0.32187713198587037,-10.335669141686555,14.527453686551791
1760680824.145151,-3.960115130879309,-0.08600751519959604,0.9576498045129512,-0.28060519981484766,-0.0717213442746188,-9.798275520958029,13.966189546336222
1760680824.1547892,-3.8687746460552335,-0.08490834791157834,0.9606258897231488,-0.28796678028114203,-0.46351531710165483,-8.955297025270097,13.244216337679898
1760680824.165014,-3.784602667377027,-0.08271927026120453,0.963326714094438,-0.29443848350779633,-0.8501642839732404,-7.901010338789539,12.435244247665473
1760680824.1749194,-3.7052459103535282,-0.0795576823473542,0.9655117135874721,-0.29961995626694893,-1.2272771643008362,-6.74143013550394,11.621987919959194
1760680824.185097,-3.6279549468691754,-0.07560173646525628,0.9670037361468212,-0.3032259221963133,-1.5902100381658504,-5.583223379656659,10.888050993131392
1760680824.1948152,-3.5498043661344845,-0.07107766174342525,0.9677041769774501,-0.30510432112842506,-1.9348841016239495,-4.522643009233135,10.309594619812383
1760680824.2049928,-3.4679643396182467,-0.06625238479643782,0.9676042054522083,-0.30523486951770423,-2.2584918278859822,-3.635736263646479,9.947642653821784
1760680824.2148457,-3.380002057178121,-0.0614268298834742,0.9667865075959029,-0.3037093281646559,-2.560029937822867,-2.9708831642192335,9.841848819685728
1760680824.2249815,-3.2841803381115957,-0.056926396616605014,0.9654134982982022,-0.3006997154161275,-2.8406401578328664,-2.544356677914738,10.006418405772141
1760680824.2354395,-3.179719532246228,-0.053088177713064656,0.9637018996690426,-0.29642375138895916,-3.1037408659938794,-2.339187311777722,10.428646002489767
1760680824.2449162,-3.066996050833296,-0.050247017991206754,0.9618876880728326,-0.29111641344292183,-3.354912548452196,-2.3072669529869554,11.070234032607644
1760680824.2552898,-2.9476602524866085,-0.04872260393932594,0.9601879426127219,-0.2850127490493558,-3.6014941392866544,-2.3743882442409934,11.871238591443545
1760680824.264962,-2.8246615321802526,-0.048807348783387994,0.958766731556559,-0.27834190959829885,-3.8518835572352477,-2.4477803555080846,12.756189949316331
1760680824.2749333,-2.702167675948969,-0.05075182650497286,0.9577111826157305,-0.27132823493732666,-4.114610583800097,-2.4256224522527896,13.641687258253633
1760680824.2849638,-2.5853634751481644,-0.054743504957045414,0.9570214761477626,-0.26419365382072535,-4.39733222215013,-2.2079217406143643,14.444602923966336
1760680824.2951066,-2.4801181636720253,-0.060877089188245526,0.9566151506049199,-0.25715668817121456,-4.705952164769284,-1.7079751215503036,15.089981754442153
1760680824.3050046,-2.3925280155670645,-0.06912020967207368,0.9563432122133192,-0.25042619333398036,-5.044060259673393,-0.8633908633210364,15.517792539071817
1760680824.3153124,-2.3283664580010037,-0.07928297239612969,0.9560143991975174,-0.24419147697339497,-5.412816482193546,0.3545933574479652,15.687864400359159
1760680824.32481,-2.292496353137851,-0.09099953888443092,0.9554242525575506,-0.23861299694834268,-5.81128200959115,1.934863686455832,15.582573827197672
1760680824.3348577,-2.2883054505726563,-0.10372447891378887,0.954386123033371,-0.23381818438639038,-6.237067108562158,3.824459072028799,15.207093568752486
1760680824.3449082,-2.3172198908280617,-0.11674291233471695,0.9527614768444105,-0.22990514456087438,-6.687072915196304,5.931593193794954,14.587251056204071
1760680824.3549333,-2.378346781129557,-0.1291962297056755,0.9504869994901674,-0.22695396540171756,-7.158090599463805,8.133644735596707,13.76528648061775
1760680824.3648183,-2.4682991722450995,-0.14012926305695017,0.947595625349981,-0.22504205062012075,-7.647093385665818,10.289280351949543,12.79405582186268
1760680824.3750665,-2.5812523804003233,-0.14856232868816635,0.9442276950381746,-0.22425744575007886,-8.151184944564118,12.253205742797645,11.73045008096585
1760680824.3850183,-2.709258586031327,-0.15358330896059547,0.94062834888008,-0.22470375193251876,-8.667299668986278,13.891653371791016,10.62892807790534
1760680824.3950465,-2.842811457054469,-0.15444784665835315,0.9371294882677121,-0.2264921222182952,-9.19183573564005,15.09665680957156,9.536033066689857
1760680824.404819,-2.971616700658857,-0.15067362102434267,0.9341189473599549,-0.22971894441541485,-9.720412201144226,15.797406067067985,8.486571327291612
1760680824.4149172,-3.0854959117482945,-0.1421158147514814,0.932003993287611,-0.2344308815116633,-10.24787794024447,15.96743743947955,7.501810919859147
1760680824.4250717,-3.175330523264766,-0.12901234049155924,0.9311785841871074,-0.24058132880348226,-10.768591987446895,15.626963933919262,6.589688906011552
1760680824.4349666,-3.2339392527529034,-0.11198892248960886,0.9320025551763537,-0.24798375084035473,-11.276888929052305,14.840205572222922,5.746679779062181
1760680824.4449728,-3.256779691686193,-0.09201799009800699,0.9347963622756494,-0.25626757185361027,-11.76758549912745,13.70809618199345,4.960726664606935
1760680824.455027,-3.242379900390167,-0.07033319625340309,0.9398487585877721,-0.264841912278216,-12.23639850391765,12.357216386313409,4.214480756420249
1760680824.4649642,-3.1924433874442566,-0.04831154029936425,0.9474284710306984,-0.2728732496421372,-12.680222675617857,10.926209934029487,3.4880405602667572
1760680824.4749908,-3.11162534881708,-0.02734298284732707,0.9577862853045666,-0.2792862259049049,-13.097335869823462,9.551227917105395,2.760466996942684
1760680824.4849951,-3.007034133315226,-0.00870874251396735,0.9711335234601868,-0.2828005739802705,-13.487723386933883,8.352044618823863,2.0096241583157517
1760680824.4950879,-2.887551585615003,0.006516640340900775,0.9875891801790869,-0.2820172214689434,-13.853786318802673,7.420359070280707,1.2103637890381858
1760680824.505073,-2.7630793283797286,0.017534052186072385,1.0071004037043336,-0.275559736414056,-14.201649318573734,6.811449796684902,0.33163837237633254
1760680824.5151334,-2.6438076346499506,0.023861768492843334,1.0293549366312715,-0.26226384952084614,-14.543070692423854,6.539859256778458,-0.6663842965417788
1760680824.5249639,-2.5395779143573534,0.02535656588491816,1.0537131317991726,-0.24139170735010848,-14.897613583068336,6.579275059785907,-1.8338864646505113
1760680824.5348501,-2.459376730604618,0.022219886282938694,1.0791863573054583,-0.21283404660516836,-15.29436456677264,6.866371997656845,-3.2303997173522956
1760680824.545331,-2.4109659189397457,0.014991966775099242,1.1044775314451463,-0.1772572989385589,-15.772233743017619,7.308126769250947,-4.92038094617179
1760680824.5548756,-2.4006292045558206,0.004530692092360823,1.128082802836397,-0.13615642313192639,-16.37788556369259,7.791959555916632,-6.96517439167533
1760680824.565288,-2.433009059549434,-0.00803566702664869,1.1484377123018756,-0.09178811832179923,-17.16070445438173,8.197895005435019,-9.412036613993491
1760680824.575099,-2.5110188451859714,-0.021396765085334345,1.1640811592055498,-0.04698060922175973,-18.164833953292828,8.411707773102481,-12.281806721844818
1760680824.585042,-2.6358352643448044,-0.03420012164471763,1.173807605221794,-0.0048407906845198126,-19.419073949007206,8.337738826827568,-15.557499194430031
1760680824.5950022,-2.806991643437034,-0.045239432431563927,1.1767820333346326,0.03159908489163797,-20.92608443550788,7.909821933030837,-19.17634381652621
1760680824.604787,-3.022593818337924,-0.05366830633627564,1.1726022281644795,0.059740870074872936,-22.6527781905591,7.098673952517699,-23.02748818823869
1760680824.615052,-3.2796649210089486,-0.05919797267900248,1.161306159316925,0.07773198695703637,-24.523906923822874,5.914321999205705,-26.95676777735796
1760680824.6250892,-3.5745980894545486,-0.06222865087682264,1.1433340524630664,0.084685622615301,-26.4206285978301,4.4027619765933865,-30.778800933091333
1760680824.635067,-3.9036663801423424,-0.06387059734504447,1.1194614891803196,0.0807834953245041,-28.18530190087365,2.637031297151185,-34.29539044682657
1760680824.6448393,-4.2635158092863445,-0.06583047569939303,1.0907213026204432,0.06725363336961555,-29.632935083240255,0.7040384237203331,-37.31802875735947
1760680824.655096,-4.651556038802315,-0.07016441996260779,1.0583297626373298,0.04623185960118609,-30.56869996486423,-1.3104770926596134,-39.69142324881046
1760680824.6649148,-5.066167282922816,-0.07892537150622894,1.023627256586627,0.020527427822727335,-30.809834888236875,-3.3358969770360503,-41.31456803409962
1760680824.6747851,-5.506664778649206,-0.09375683246709426,0.9880351907973004,-0.0066792995479999125,-30.2092962984606,-5.32672379189458,-42.15610249172938
1760680824.6848607,-5.973004349431198,-0.11550459216966526,0.9530206792779121,-0.03217508331438814,-28.67790405201766,-7.266544625359358,-42.26148028945805
1760680824.694985,-6.465268712998485,-0.14392598550663363,0.9200531363454533,-0.053054998490092264,-26.201625409036904,-9.165126030705942,-41.75064170639453
1760680824.7051127,-6.9830326945158925,-0.1775686249588363,0.890537128894029,-0.06703566842570766,-22.851077747391063,-11.049192022254188,-40.80620168817452
1760680824.7150197,-7.524752171574332,-0.21386772160991535,0.8657153953003704,-0.0727118867903782,-18.78119543427386,-12.948674055281177,-39.653439377033955
1760680824.7248888,-8.087341948129321,-0.24947509656729253,0.8465511210153355,-0.0697274196144293,-14.22018942357169,-14.881150276056673,-38.534471395402434
1760680824.7352805,-8.666087947998554,-0.28078501345059786,0.8336124732321544,-0.0588289843766297,-9.44837784452943,-16.837717086274335,-37.679824634818495
1760680824.7449682,-9.254970142536623,-0.3045673501257256,0.8269889741283103,-0.04177651328902448,-4.769094149231565,-18.773543947146702,-37.28108415704547
1760680824.7549684,-9.84736284634023,-0.31857507206154856,0.8262655808306121,-0.021099757621373793,-0.475429490549973,-20.605732260341536,-37.46823209596469
1760680824.7649286,-10.43696366592956,-0.32198564778355443,0.8305668060730491,0.0002787683707080452,3.182364858607001,-22.219837926824574,-38.294658698918035
1760680824.7751427,-11.018729925945214,-0.3155757490344248,0.8386642325258349,0.019499208651766277,6.0238018736934675,-23.48473215849773,-39.73175215421818
1760680824.784916,-11.58960176525233,-0.30159868277009405,0.8491240931724457,0.03421434990075845,7.955305146919039,-24.273689564909905,-41.673702041999455
1760680824.7952075,-12.148857673565319,-0.2834042323416078,0.8604646015247832,0.04294132800485015,8.975332235861911,-24.48804784990773,-43.951884608225164
1760680824.8050945,-12.698048243492948,-0.26488860791666846,0.871297696402716,0.04524083294500836,9.16752879333342,-24.07885034064814,-46.3570470864265
1760680824.8151166,-13.240550363010206,-0.2498808247777192,0.8804422429215567,0.04169370086870814,8.684044969541313,-23.061923222767224,-48.666516037723106
1760680824.8250105,-13.780851178174785,-0.2415652527495967,0.8870072336132435,0.03369968362777165,7.722475971174624,-21.522987249039662,-50.67286428375069
1760680824.8350112,-14.323700090599592,-0.24201934043484163,0.8904481502536473,0.02316679321835026,6.500261103583111,-19.61137999583663,-52.21002475306752
1760680824.8450382,-14.873264258948511,-0.25192267123171386,0.890597344835218,0.0121738636154982,5.229935252287028,-17.523186843227936,-53.17298311219222
1760680824.8550012,-15.432402510287847,-0.2704738412383937,0.8876649365559426,0.002671400760429385,4.0977613147700245,-15.476464397147227,-53.52808936772519
1760680824.8652174,-16.00214601165823,-0.29553048186575304,0.882205685305653,-0.003748280793989314,3.2473908746821762,-13.682434315750863,-53.312612007867834
1760680824.875078,-16.581445606372306,-0.3239575656819298,0.8750509429814355,-0.006009315888505928,2.7695312818563123,-12.316938415083257,-52.62404370009721
1760680824.8851056,-17.16721345078006,-0.35213100931940067,0.8672101467536607,-0.0036468165240069973,2.6981150722229414,-11.496172306035703,-51.60136973327513
1760680824.8949883,-17.754648516340403,-0.37650980032751763,0.8597507289409004,0.003160115448130009,3.012990867293687,-11.259942230023979,-50.40166435980711
1760680824.9049234,-18.337794546869617,-0.39417483646261825,0.8536687547084255,0.0136233615869891,3.6485435182683044,-11.56462205558919,-49.17585199613839
1760680824.9148397,-18.910243279478955,-0.4032426548285505,0.8497649104244958,0.026455615879072344,4.506944019513814,-12.28676978739284,-48.047288517851115
1760680824.9251587,-19.465874953523635,-0.4030930497209287,0.8485401692920985,0.04005133289094822,5.474111449787364,-13.237055739113673,-47.09608884218277
1760680824.9349356,-19.99952951300008,-0.3943909893721826,0.8501223611148367,0.05271793290813246,6.436134634274522,-14.182816306585549,-46.35103173195057
1760680824.9449897,-20.507525716932893,-0.37892334984262444,0.854230626050782,0.0629205095322441,7.293948301750278,-14.876349477363291,-45.789637837919706
1760680824.9555385,-20.987982312676163,-0.3592988659517569,0.8601806686790724,0.06949665488101668,7.974461444946133,-15.08527648729126,-45.345819854807075
1760680824.9650333,-21.44093052931499,-0.33856994349459,0.8669305735872892,0.07180479401865236,8.43698138525473,-14.621105701512176,-44.923441301965944
1760680824.97504,-21.86822948051218,-0.319831285620613,0.8731655777584046,0.06978650079089777,8.674530159201284,-13.362548021875822,-44.413280411232726
1760680824.984865,-22.27330483402905,-0.3058417362697987,0.8774202896847605,0.06394251037811541,8.710393062138138,-11.270967983043107,-43.710413055448555
1760680824.994827,-22.66073329225628,-0.29870901721087095,0.878235839672178,0.055236428236400015,8.590872153445744,-8.396379292582354,-42.729053164792695
1760680825.0049567,-23.03569957677695,-0.29967203535442577,0.8743448250369157,0.04494726062147743,8.375652942498537,-4.873451938623616,-41.412492284926095
1760680825.0148227,-23.403363375149866,-0.3090064779962708,0.8648691651974597,0.03449394779286534,8.12737588920389,-0.908046888310026,-39.73686976360924
1760680825.0248792,-23.768188968500493,-0.32606132286995837,0.8495083770592003,0.025255159916668067,7.901935496574253,3.244178336234576,-37.708817794938476
1760680825.0348048,-24.133302838121633,-0.3494089062175175,0.8286914280813525,0.018406841549674695,7.740762610958667,7.304621992218569,-35.35822687043937
1760680825.044836,-24.499948011953844,-0.37706920162587393,0.8036651404162916,0.01479708303078105,7.665964177182071,11.000894653444975,-32.72820447111646
1760680825.054863,-24.867096877463513,-0.40675959234108794,0.7764955739409245,0.014871339621177445,7.678773133975871,14.094835327552984,-29.864638054421032
1760680825.0650551,-25.231268781759344,-0.4361262602724346,0.7499654682793621,0.018651370403886217,7.761334082020208,16.40612669778698,-26.80762568540806
1760680825.0751748,-25.586576642496492,-0.4629266630219787,0.7273605385101173,0.02576116329187666,7.881425226615246,17.828907069656967,-23.586452252006403
1760680825.0848851,-25.92499942658568,-0.4851487209699837,0.7121500630269962,0.035485600554853856,7.9993171951778965,18.33982363710946,-20.218847557339476
1760680825.0951645,-26.236849174120877,-0.5010696030664272,0.7075829337075047,0.04684502447546921,8.075661302721805,17.99723532508311,-16.714140873325203
1760680825.1052976,-26.51137965042922,-0.509274547959718,0.7162390171226591,0.058672125443933985,8.0791724537374,16.93250761429098,-13.0789161595509
1760680825.1150048,-26.737475052295018,-0.5086701865956758,0.7395946286886004,0.06968517422795971,7.992975252801075,15.335282617932977,-9.323192194013535
1760680825.1250358,-26.904363637758742,-0.49853145550848615,0.7776742236079387,0.07855940049305526,7.818773271031679,13.43504297367433,-5.465205794557384
1760680825.1351242,-27.002319911753325,-0.47861164459432437,0.8288617219586232,0.08400184893831317,7.578354476039705,11.481125637044714,-1.533534830892379
1760680825.1450903,-27.023342000119197,-0.44931914164977727,0.8899305302842716,0.08483287572379777,7.312235976572286,9.722681180876195,2.4337102766716687
1760680825.155117,-26.961803819610843,-0.4119223959126327,0.9563207552610112,0.08007195178172771,7.075451752001261,8.389227128918197,6.391968274245099
1760680825.1648297,-26.81506788526564,-0.36869579102752487,1.022648291036795,0.06902078968137842,6.930689899730648,7.671840012653412,10.294419404594478
1760680825.1751196,-26.583999519071515,-0.3228920762902495,1.0833810001332658,0.051336080806409126,6.939318204215968,7.705043340494664,14.096223983149672
1760680825.1850724,-26.273268719254972,-0.278458768256695,1.1335724329664099,0.027086220240242667,7.151323832657791,8.550214629152812,17.758280624442822
1760680825.1950474,-25.891301479879477,-0.23951088706986495,1.169514313117963,-0.0032144535589215114,7.595688719253376,10.182633855113407,21.250446984738684
1760680825.20484,-25.44977580977165,-0.20967942000826048,1.1891700519828126,-0.03860688606544205,8.273006485430058,12.48553474442596,24.554086982244403
1760680825.2151685,-24.962647211738098,-0.19150729194105245,1.192298518366435,-0.07773991552846397,9.152089428085777,15.254856808584378,27.663263535068864
1760680825.2251952,-24.444808025500322,-0.18604171243662915,1.180265956708754,-0.11897755707659798,10.171881271963102,18.217085573744814,30.583545889080543
1760680825.235136,-23.91059557168722,-0.19270519445271722,1.1556360940790813,-0.16054209451021437,11.249132023232699,21.059559079972573,33.32781647679677
1760680825.2450707,-23.37242083896216,-0.20945458480405701,1.1216757693483144,-0.2006633023876903,12.29100539051389,23.468955672926235,35.90955418700313
1760680825.2548246,-22.83976250413574,-0.233173604707845,1.0818985889221249,-0.2377125006863548,13.21036217402482,25.171041435325517,38.33523219268179
1760680825.2651174,-22.318669475720803,-0.26019787230237534,1.0397156432072594,-0.27031338545007744,13.94045598758868,25.964304371852545,40.59809116011482
1760680825.2749183,-21.811784525257533,-0.2868546522003506,0.9982065958442871,-0.2974257684930991,14.445670515996007,25.74176851511545,42.67535037197396
1760680825.2852073,-21.31879242027973,-0.30991765621088324,0.9599883844383524,-0.31839668667868837,14.725809098907613,24.498132716278864,44.52999743211082
1760680825.2951097,-20.83713596320568,-0.32691819879899514,0.9271463052086429,-0.3329756276440299,14.813025364204076,22.32242034944284,46.11703352378103
1760680825.3051846,-20.362833444779916,-0.336297610730319,0.9011978579116358,-0.3412977102886351,14.762275722861443,19.37891206036275,47.39290371515624
1760680825.315037,-19.89125705603585,-0.33741768609545814,0.8830736845023783,-0.3438433820096417,14.637678654049934,15.880895366496794,48.326119505711546
1760680825.325125,-19.417776287301017,-0.33046272964637957,0.873112368662802,-0.3413812833253946,14.497983109993216,12.062440119058879,48.9068685818182
1760680825.3351855,-18.938218649070425,-0.31627176294621046,0.8710723318580337,-0.33489583526400646,14.38430147600984,8.152899040038703,49.153639950823944
1760680825.34486,-18.4491424197628,-0.2961373998601888,0.8761665825960873,-0.32549921189327047,14.312457984928256,4.357383093644281,49.115440752500724
1760680825.3548756,-17.94794760478232,-0.27160245136598826,0.887127433223681,-0.3143312891300091,14.271062463084386,0.8446185350304364,48.86890500881646
1760680825.3651576,-17.43287040997239,-0.24427800692413967,0.9023075244913362,-0.30245795961601685,14.225116294131226,-2.2580806177520762,48.51040008069526
1760680825.375098,-16.90291383324851,-0.21569819284931716,0.9198181093532236,-0.29078268992596096,14.123889590385215,-4.864135456590981,48.14407196079478
1760680825.38509,-16.35776368537556,-0.18721816508403688,0.9376963562500715,-0.27998539536330264,13.91114990026457,-6.923228721970352,47.86755687039713
1760680825.3948362,-15.797726685083896,-0.15995432957831868,0.9540849867618191,-0.27049735275976017,13.535633517403845,-8.41487546940161,47.75766930886632
1760680825.4051101,-15.223707948944798,-0.13476046305583392,0.9674035806252941,-0.26251334135299886,12.959896563352064,-9.34146554510278,47.85856331227906
1760680825.4152822,-14.637224936305003,-0.11223168726096658,0.9764910687577179,-0.2560343552208576,12.16624997516472,-9.721698840145752,48.17452892629066
1760680825.4252212,-14.040439920046415,-0.09272972401644103,0.9807014089402316,-0.2509277785577606,11.15919467792759,-9.584902233703007,48.668765996258124
1760680825.4350724,-13.436186167315451,-0.07642479321174181,0.979939076263221,-0.24698906521263556,9.964440597180825,-8.96642200239644,49.26837097836677
1760680825.4448645,-12.827963795197403,-0.06334980761090012,0.974628421864223,-0.24399121189110448,8.625079178512806,-7.904131523559471,49.87464707363752
1760680825.4554167,-12.219888243580208,-0.05346116695338281,0.9656201185273872,-0.24171504090014198,7.19574235600839,-6.436054230059085,50.37694209008536
1760680825.4648707,-11.616585257190671,-0.046698263280527154,0.9540468169576123,-0.23996157513070335,5.7356614000559265,-4.599116982125309,50.66770246343003
1760680825.4751318,-11.023037549377174,-0.04303180855073558,0.9411476626280927,-0.23855366775983353,4.301514491995028,-2.429043397127265,50.65639633737547
1760680825.4849353,-10.444395868144335,-0.0424907647770451,0.9280869972838547,-0.23733551353991894,2.9408969862714196,0.03869345069303968,50.28038722712511
1760680825.4949985,-9.885769138958896,-0.045160753519990667,0.915795445143371,-0.23617707639603405,1.6871999667551658,2.7671230437917482,49.51158959865325
1760680825.5049107,-9.352006784870953,-0.051154420031634305,0.9048602642802427,-0.234988101961083,0.5566116588678393,5.715694031582385,48.3585736203951
1760680825.5152266,-8.847485184576502,-0.06056409505472144,0.8954853841978915,-0.23374342408497525,-0.4522284741718733,8.838389993340794,46.86447916426142
1760680825.5250874,-8.375910616468754,-0.07341241454796704,0.8875303568443177,-0.23251652448668975,-1.3557731093575986,12.082449931024984,45.10153122792856
1760680825.535217,-7.940149531766541,-0.08961138385515113,0.8806233828570749,-0.2315120212368992,-2.1807008595326303,15.38781345674114,43.16313663659136
1760680825.5449502,-7.5420907073352375,-0.10892825069365723,0.874329312247712,-0.23108256330210872,-2.957569930257556,18.687135172349603,41.1545595631289
1760680825.5549288,-7.182536189450061,-0.13094950886222606,0.8683420312253398,-0.2317148571024301,-3.7142488069190795,21.906126536563395,39.18308295617867
1760680825.5649312,-6.861116234477437,-0.15503957097967866,0.862664435745433,-0.23397491823616562,-4.470389053305325,24.96414368394047,37.34841423977745
1760680825.5750573,-6.576230432340721,-0.18030212314242813,0.8577393631180561,-0.23841268681745095,-5.2339145867121895,27.775241664328785,35.73393677247217
1760680825.5851681,-6.32502848812762,-0.20555965744396085,0.8545015746702848,-0.24543726446944802,-6.000029860012883,30.250170499225312,34.399276537833074
1760680825.594858,-6.103453402638998,-0.2293669606376148,0.8543338198874225,-0.25518269687101247,-6.752750407026147,32.299833014803916,33.37455731135941
1760680825.6051264,-5.906372733509964,-0.2500694937965078,0.8589268856822629,-0.2673882421645747,-7.468560097042006,33.840496834672074,32.65666469476391
1760680825.6150646,-5.727817867166305,-0.26590934032038444,0.8700598894245688,-0.28131602907741327,-8.12155021905139,34.80061439259828,32.20783100627829
1760680825.6250122,-5.561336468873219,-0.2751716257496002,0.8893291676961947,-0.29572458557667436,-8.689276447549549,35.128606430186885,31.956854343073893
1760680825.6348736,-5.4004420830061335,-0.2763560586764089,0.9178611397730219,-0.30891138046892525,-9.158544665951009,34.80056800204582,31.803207294956543
1760680825.6451557,-5.239122223010303,-0.26835336836235796,0.9560477754482788,-0.31883220455746936,-9.530383611711967,33.826653027017066,31.624119958959803
1760680825.6550379,-5.072347984953793,-0.25060443610443356,1.0033441538078898,-0.3232988311590565,-9.823559210892455,32.254896758250226,31.284436580732102
1760680825.6648498,-4.896518852071044,-0.22321950267781981,1.0581659611875471,-0.3202473306838767,-10.076094745363768,30.171436536622778,30.648687019233485
1760680825.6750433,-4.709778666994268,-0.1870360633992822,1.1179182322499508,-0.30805671816957875,-10.344350021982054,27.696490131582266,29.59444051854565
1760680825.684844,-4.512154572941246,-0.14359929351618902,1.1791715148029984,-0.28588147478567627,-10.69929732839464,24.976031050179127,28.025671990162103
1760680825.6950848,-4.30550043327053,-0.09506059332832782,1.237976542329816,-0.25394412709574976,-11.219795347501938,22.16978912597266,25.884614613771085
1760680825.7048378,-4.093265355933763,-0.04400743137896562,1.2902780167423582,-0.21372074083310844,-11.983007149462447,19.43686244451074,23.160451746030912
1760680825.7149076,-3.880145957393666,0.006744193112836778,1.3323624744939084,-0.1679510651074162,-13.052660335130076,16.920684239705608,19.89328535310674
1760680825.7252228,-3.6717055317936995,0.05435330513641832,1.3612646453489077,-0.12042470762946025,-14.466494504370091,14.735220380582223,16.17215830819986
1760680825.7350047,-3.474045843565684,0.096117932433878,1.37506526188544,-0.07553816244369937,-16.22477801700462,12.954045954420193,12.126514169514062
1760680825.7452047,-3.2935958928694977,0.12958590438639772,1.373038053309836,-0.0376759457182271,-18.282007556024322,11.603431275071166,7.911342206345376
1760680825.7552695,-3.1370414514187472,0.15262719257037602,1.3556376145730982,-0.010522645472848572,-20.543723958464838,10.659911819979556,3.6873227249637788
1760680825.7649596,-3.011370341797011,0.16350174658480468,1.3243530881721886,0.00355897200827549,-22.869799725871136,10.05221550595029,-0.40164546551467845
1760680825.7748964,-2.923966077491602,0.1609561316153864,1.28147462872538,0.0039547816002867605,-25.084697335440836,9.667037890724561,-4.250410266420711
1760680825.784873,-2.882659775342787,0.1443632655551741,1.229825201145251,-0.008061298629235205,-26.994215910281895,9.35804730355488,-7.810691781082666
1760680825.7950084,-2.8956533616817977,0.11389351512775324,1.1725022136330767,-0.029511633467971927,-28.40724184682481,8.957564634396604,-11.102330173970083
1760680825.8049915,-2.97125335552689,0.07068372212075151,1.1126579665584735,-0.05619660079330911,-29.16005811233814,8.290402235635202,-14.215264850338855
1760680825.814946,-3.1173953486940986,0.016958186519546843,1.0533293964053514,-0.08339010162996068,-29.139943675646364,7.189248221832748,-17.30077512227849
1760680825.8250935,-3.3409865564779655,-0.04394955167407979,0.9973096649294476,-0.10662336943985848,-28.3042892786858,5.510798591895373,-20.551734535822437
1760680825.835031,-3.6471438302415393,-0.10772605482279708,0.9470416187184374,-0.1224122691333462,-26.69151660727913,3.151670818935492,-24.173213512035332
1760680825.8448968,-4.038453217072529,-0.16940211869813787,0.9045108665549372,-0.12879025463442043,-24.42095671211411,0.0629434437503453,-28.346688303882253
1760680825.8549385,-4.514409305228348,-0.22388436993199257,0.8711261976030283,-0.12554416239718977,-21.68058362350852,-3.7381943510919196,-33.193096414058985
1760680825.8649874,-5.071181616176971,-0.26664529740653137,0.8475951662270882,-0.1141112565976325,-18.703812317401496,-8.161738023264283,-38.741359893128035
1760680825.8750007,-5.701785812757866,-0.29444793605501235,0.8338259906022214,-0.09717204964269399,-15.73884517435886,-13.045560543340116,-44.90899181816128
1760680825.8849092,-6.396631988110889,-0.3059345678973143,0.8289015460040922,-0.0780420583927911,-13.015652375167532,-18.165720851699092,-51.49966099019057
1760680825.8952494,-7.14433229825811,-0.30192117898819715,0.8311651329833233,-0.06000411162000188,-10.716192924490512,-23.257408145711512,-58.21952979150724
1760680825.9051151,-7.932613107015572,-0.2853054907796245,0.8384288303351307,-0.0457214002270737,-8.952830363881699,-28.04542879493499,-64.71066762811364
1760680825.9150965,-8.749190435215157,-0.26058546187528936,0.8482761278224108,-0.036836225353493006,-7.758269902934483,-32.28057820996346,-70.5966578762947
1760680825.9252172,-9.58250649091,-0.2330698260113781,0.858400045978934,-0.03380532808869113,-7.088139333403292,-35.77600239303064,-75.53317811105367
1760680825.9348738,-10.422267473537463,-0.20792746546042082,0.8669087859558507,-0.03596677830432953,-6.835024956825748,-38.436524484319136,-79.25521636124897
1760680825.945119,-11.259759167076483,-0.18925870418966184,0.8725438558860279,-0.04179017648138057,-6.850820419646768,-40.27431884232037,-81.6129536916871
1760680825.9551337,-12.0879460173842,-0.17937153631047706,0.8747817908098822,-0.049238608980082754,-6.973036077058532,-41.40627509696729,-82.59025898196231
1760680825.9651053,-12.90138337552003,-0.178407396879069,0.8738181245909992,-0.05616525598452235,-7.050435938798079,-42.03165178476218,-82.30293985933248
1760680825.975028,-13.695992957312718,-0.1843917193993189,0.8704523620419147,-0.06067341334792795,-6.963952104799158,-42.39263096452039,-80.97769917396104
1760680825.9848635,-14.468768026856843,-0.1937002706514947,0.8659028416702943,-0.06138285418705069,-6.640043613455013,-42.72426059221387,-78.91625369090337
1760680825.9951348,-15.217484448475592,-0.20185171726830786,0.8615835281189536,-0.05756853923964604,-6.05524162977256,-43.20298162283842,-76.45150805767717
1760680826.0051193,-15.940491293566364,-0.20447460655912797,0.8588745138909791,-0.04916763620483172,-5.232268777873315,-43.90371550709581,-73.90359829560522
1760680826.0151384,-16.636635154411113,-0.1982615735490395,0.8589146482363295,-0.03667990066592489,-4.22954963615969,-44.77412310991395,-71.54292041242566
1760680826.0252228,-17.305335583590615,-0.18172081962165576,0.8624373733092665,-0.021006075228972413,-3.126888069600457,-45.63150282775723,-69.56519591413353
1760680826.0348742,-17.946782940228058,-0.155569531349438,0.8696615750107416,-0.0032746123441891395,-2.010395991451644,-46.18360825409334,-68.08077870033624
1760680826.0452507,-18.56218819871415,-0.12268529209618545,0.880241980824201,0.015301692998938023,-0.9593757649677536,-46.07029907387157,-67.1174936535999
1760680826.055124,-19.153990420642202,-0.0876266668701036,0.8932798334811202,0.03351795716435888,-0.036936349015362344,-44.91924544746346,-66.63392667342484
1760680826.0652158,-19.72592855503407,-0.05582803698927518,0.9073921468989746,0.050222177054635,0.7150388697427136,-42.40659707362127,-66.53863005762746
1760680826.075411,-20.282909117214867,-0.0326400115481509,0.9208341427964333,0.06433622843339051,1.2770317852425264,-38.312981040488516,-66.71030910427656
1760680826.0848787,-20.83064429887004,-0.022410252392197374,0.9316640618827932,0.07488218145082609,1.650330030835876,-32.56632430299248,-67.01470725345386
1760680826.0949264,-21.37508741949382,-0.027780626046524145,0.9379346011626193,0.08103462268237399,1.8542109445193025,-25.265365149013345,-67.31546695880229
1760680826.104895,-21.92174176270696,-0.049324761023643846,0.9378938508383298,0.08220222340683242,1.9230855993671832,-16.680779647953475,-67.47837676962965
1760680826.1150334,-22.474950250089798,-0.08557696973376197,0.930181634331851,0.0781243840761307,1.9042554033862023,-7.234133006813177,-67.37057244725084
1760680826.1251943,-23.03727763014985,-0.13342111771939377,0.9140109178061789,0.06895917255659309,1.856227388707498,2.542030713125615,-66.85780373611394
1760680826.135089,-23.609074288509415,-0.1887311748481495,0.8893234877000199,0.055340018003258856,1.846891465919798,12.057145296298003,-65.8033245150589
1760680826.1451733,-24.18826986149936,-0.24710332145326133,0.8569041534657372,0.038387419772721934,1.9504905847090914,20.721352340221692,-64.07121279627053
1760680826.1551635,-24.770398162975525,-0.30451135205814545,0.8184334232166882,0.019670662733445896,2.242381458509041,28.002587262965807,-61.535327669712814
1760680826.1651604,-25.348816186950067,-0.3577580862129284,0.7764601167572653,0.0011170146254937733,2.7911354183951675,33.47565884064204,-58.093271277446846
1760680826.1750498,-25.915059684905174,-0.40466958962617766,0.734283304218106,-0.0151370478591849,3.6484380748705116,36.85878356274968,-53.68319160436499
1760680826.1850555,-26.45927891098793,-0.44405555034278094,0.6957433101990823,-0.026958531301645595,4.838243763168473,38.03513613068854,-48.30032199870018
1760680826.195144,-26.970714888200686,-0.47551049678386864,0.6649301280675859,-0.03249044052557499,6.347403848289747,37.05892302572827,-42.00986144190037
1760680826.2050807,-27.438198787992068,-0.4991467239718823,0.6458239884705232,-0.030458428119107452,8.120236393028033,34.14694647025913,-34.95311638799169
1760680826.2149858,-27.850675090338296,-0.5153379917118439,0.6418893644085275,-0.020460300768192177,10.059089337943842,29.657457560427357,-27.344684417934978
1760680826.2251177,-28.19775586133644,-0.5245262314073215,0.6556522418748678,-0.003170023209185236,12.031917635758395,24.05840567774806,-19.459743391323535
1760680826.235143,-28.4703042241001,-0.5271125428388034,0.6883012295952593,0.019609173836217002,13.886486942105524,17.887290521522303,-11.61203167250307
1760680826.2450962,-28.661020706517306,-0.5234273696667926,0.7393647288112142,0.04508131361660315,15.469388393591556,11.705078039730518,-4.124631236118714
1760680826.255256,-28.764975830431887,-0.5137596293480852,0.8065258920411728,0.06977971408214953,16.646966604039246,6.047244425814218,2.7030827967560977
1760680826.2648814,-28.780011874660527,-0.4984225829020145,0.8856394564507593,0.09002576557495694,17.3247887326403,1.3758678263213764,8.628229643613093
1760680826.2749667,-28.706940565239275,-0.47784045212389936,0.9710031857134445,0.10244256695168638,17.462483513805044,-1.9625091719061247,13.492690243240613
1760680826.284894,-28.54949378419382,-0.4526446973415077,1.0559051936772161,0.10442812759024539,17.081527323282803,-3.7681486044074464,17.242894198198254
1760680826.2949038,-28.314027354908795,-0.42376506920583806,1.1334137755681535,0.09450204564966717,16.264614208510828,-4.003838531431932,19.937870693292925
1760680826.3050013,-28.009014338575913,-0.39249093157920134,1.1973029518325187,0.07247035919499054,15.14637543570146,-2.7918796445982688,21.74354001127318
1760680826.3150446,-27.64438490853322,-0.36047357603962094,1.2429335390519802,0.03939845665441565,13.896257024881603,-0.39176798781099875,22.913062253838756
1760680826.3252819,-27.230776997634994,-0.3296456617626674,1.2678741318903526,-0.0025751330747214676,12.695340014731942,2.8386440622578326,23.75528095808171
1760680826.3351495,-26.77876176841446,-0.3020480605817489,1.2720896167258862,-0.05052987472095517,11.709948340105333,6.49253488465027,24.595369734741556
1760680826.3450086,-26.298109489249278,-0.2795789504147308,1.257651241871587,-0.10110987373397949,11.066050816789797,10.166070986899562,25.73314798642044
1760680826.35517,-25.797171954503693,-0.2637136586255043,1.2280797453044874,-0.1508918585756538,10.829315820546507,13.5047405427329,27.404866357861383
1760680826.3652775,-25.282468569744317,-0.2552681482192746,1.1875442719149183,-0.19674704916725622,10.995471915273177,16.237386372053916,29.75360941419385
1760680826.3749871,-24.758550176845517,-0.2542716231951382,1.1401558919421324,-0.236163244653694,11.493857280203834,18.193994500675178,32.81210629817965
1760680826.3849452,-24.22816354080935,-0.259975070458422,1.0895193252259412,-0.26748400280250484,12.203965012462858,19.30652312895574,36.500007888288465
1760680826.3949249,-23.69266576646435,-0.27097695335216426,1.0385834956199036,-0.290022274358566,12.981381084500498,19.59506059366962,40.635794907381836
1760680826.4048808,-23.15257412725659,-0.28541881178845796,0.9897173515962615,-0.3040237891742071,13.686964483479342,19.14383992388471,44.96155208227945
1760680826.4148772,-22.60810784796767,-0.30119973507242,0.9448765604283855,-0.31048820101855507,14.212370174822839,18.07283326908896,49.17707324848866
1760680826.4249709,-22.059591889495376,-0.31617263672922674,0.9057338137445926,-0.3108921414294878,14.496350137273394,16.510733261342246,52.978463116807006
1760680826.4349391,-21.507641123245634,-0.32830550597087577,0.8737025975482615,-0.3068835996504423,14.529132266884615,14.574181623152052,56.095864953088565
1760680826.4450371,-20.953109011818995,-0.33580798267732864,0.8498556415285173,-0.3000203041495581,14.345447795610953,12.356348471699032,58.3252891783354
1760680826.4553492,-20.39684789741042,-0.3372321653271592,0.8347920986070746,-0.2916033944366198,14.00937413401382,9.925752526454154,59.5506481731419
1760680826.4649646,-19.839373086597444,-0.3315565123466867,0.8285250780062389,-0.28262037101929105,13.595495703448023,7.333983790036739,59.75373639830129
1760680826.474924,-19.280543663198806,-0.31825809726725546,0.8304448333050007,-0.2737746861520594,13.170908607291151,4.629178978686041,59.01167563031941
1760680826.4849336,-18.719369213885642,-0.2973746168544088,0.8393773078216944,-0.26555843864429735,12.78160090201208,1.8710327091506491,57.48298296916435
1760680826.4951568,-18.15402534543139,-0.26955139353708885,0.8537223206365151,-0.25832490319433693,12.445180760136335,-0.8570201031455467,55.38475087634664
1760680826.504915,-17.58211504614635,-0.23605908548866683,0.8716354176403608,-0.2523338076860563,12.15026543219773,-3.442028125501742,52.96437295288817
1760680826.5152657,-17.001153885706294,-0.19875979463300436,0.8912164457003203,-0.24776339278459691,11.86146437803078,-5.74417594169341,50.46974705167586
1760680826.5248675,-16.409196587922757,-0.15999986580158643,0.9106794723063952,-0.24469939756355347,11.528036104775724,-7.60791223957079,48.12187717973156
1760680826.5348716,-15.805477016085852,-0.1224201388225179,0.9284916858993179,-0.24311768509032347,11.094053311796337,-8.879653430727608,46.093249335883826
1760680826.5449853,-15.190918133528069,-0.08869552090556222,0.9434763353495319,-0.24287517984420337,10.508178742647358,-9.428657001817099,44.49434124586821
1760680826.5550654,-14.568390130753446,-0.06123804265871866,0.9548767604378853,-0.24371687693468813,9.731707755152213,-9.166911986463273,43.36930467350559
1760680826.5649374,-13.942649837451084,-0.04191372575159602,0.9623789748364385,-0.24529916722042594,8.74413121052804,-8.064079255407957,42.700435285052016
1760680826.5751019,-13.319968172994642,-0.031827833218005294,0.9660918009585892,-0.24722493002501578,7.545954205863486,-6.1545791091127215,42.419745497448744
1760680826.5849469,-12.707522497455187,-0.031221394345440405,0.966486474981831,-0.24908467392411165,6.158818276220828,-3.5355579160579023,42.42502506995111
1760680826.59507,-12.11267562921479,-0.039495613926910124,0.9643011606326028,-0.2504986826455687,4.6231475779340085,-0.35622120707630406,42.59740595083767
1760680826.6052203,-11.542271462196492,-0.05534877824802419,0.9604192187221208,-0.25115551090337784,2.993654798709974,3.1995092037999675,42.81769631588322
1760680826.6149786,-11.002051564451731,-0.07698521157770227,0.9557330330375313,-0.2508422176368387,1.3331808895786856,6.934126377743688,42.97950260459577
1760680826.6251383,-10.496253079919672,-0.1023477140717312,0.9510080873997452,-0.24946296940396734,-0.29447024528146,10.658263428881117,42.99816805760052
1760680826.6350522,-10.027405162534247,-0.12933549173190276,0.9467654145077885,-0.2470458809814306,-1.8318492844497034,14.210077082970345,42.81550233264307
1760680826.6452038,-9.596312438072495,-0.15599042202302726,0.9432035507576857,-0.24374203327176355,-3.2343593507536377,17.470005386809138,42.40089983633396
1760680826.65511,-9.20220116805416,-0.1806520914985836,0.9401806335426366,-0.23982318164005087,-4.474983786003282,20.369421397989072,41.74966953292953
1760680826.665133,-8.842999413911556,-0.2020867681251435,0.9372698410431581,-0.23568356293075232,-5.546501337729152,22.89247464726913,40.87933843393126
1760680826.6753018,-8.515717482832262,-0.21958676675636407,0.9338864380953672,-0.2318455421621386,-6.4608460574380135,25.07109488279831,39.82453288383682
1760680826.685049,-8.21688481451527,-0.23302242362937606,0.9294665591177315,-0.2289600572511921,-7.2457845296060714,26.97378001321773,38.630931380096584
1760680826.6951387,-7.942986774138902,-0.24282043509875526,0.9236635607815196,-0.22778513092023422,-7.9395625383704465,28.689454808465218,37.348762467854236
1760680826.705296,-7.690837108629282,-0.249847618229493,0.916522115771701,-0.22912438434819046,-8.584475345511017,30.3083559394616,36.026343442910566
1760680826.7153826,-7.457826917493866,-0.25519901273524204,0.9085935812370509,-0.23371540521432574,-9.220386987196129,31.90247628454405,34.704146798012445
1760680826.7252374,-7.242012571882074,-0.2599178944503719,0.9009664087235443,-0.24207350124650634,-9.879105641502372,33.50843631297809,33.40980464886174
1760680826.735126,-7.042040710897074,-0.26470267488056753,0.8951996609527783,-0.25431461780255826,-10.58030538322442,35.11559883790283,32.1543367570494
1760680826.7451048,-6.856949866893915,-0.2696703776965221,0.8931631282786742,-0.2699953451895038,-11.329453941007358,36.661719357014675,30.92977535170025
1760680826.7552583,-6.685922103277476,-0.274239916030956,0.8968018162281275,-0.2880127470147271,-12.117996941272493,38.03743030537036,29.70832375680819
1760680826.7651687,-6.528069697211751,-0.27717012552487097,0.907854588009438,-0.3066005360014593,-12.925845564645623,39.099512596836185,28.44324871040183
1760680826.7749531,-6.382323373448533,-0.2767470639638569,0.9275657689160469,-0.3234425239246251,-13.725979848222927,39.691445917066176,27.071813636288194
1760680826.785142,-6.2474459283509844,-0.2710784550269523,0.9564334269063683,-0.3359026313417502,-14.490684704573754,39.668434860660525,25.52058913889435
1760680826.7951062,-6.122146849261652,-0.25843295199781396,0.9940371947105255,-0.3413473307383788,-15.198580807201031,38.923222905627924,23.713300068006383
1760680826.8049204,-6.005240006748047,-0.2375601957782922,1.0389800365044977,-0.3375159878024369,-15.841261865964618,37.408682878374464,21.580928615068018
1760680826.8151581,-5.8957792665435464,-0.20793889705451726,1.0889613304704764,-0.3228815507824173,-16.42813664832037,35.15346922872248,19.073153262491548
1760680826.8253374,-5.793126221021008,-0.169919223190855,1.140974818351895,-0.2969413120905584,-16.98814184060409,32.26789134320471,16.16954633006059
1760680826.835148,-5.696941631448259,-0.1247498322454609,1.191600371272409,-0.26038575774275635,-17.56741055310581,28.938483290486904,12.888510231140117
1760680826.8450556,-5.607133334982542,-0.0745039711310833,1.2373422853593745,-0.2151114000553952,-18.222695327171248,25.41130632674223,9.291889150853537
1760680826.855133,-5.523822538249952,-0.021934390172959627,1.2749652188039626,-0.16406773133807467,-19.011179769569427,21.96559442952074,5.483626868878921
1760680826.8651183,-5.447395984779024,0.029713100811262782,1.3017888944846239,-0.11095450056865869,-19.978056725029163,18.880726446457434,1.6017138137190714
1760680826.8749506,-5.378689993983301,0.07691062010087682,1.315914818382294,-0.05980852000472918,-21.14376030054722,16.400538860656447,-2.196170060666803
1760680826.8852222,-5.319309103282885,0.11608291681529606,1.3163668456939066,-0.014535473407041916,-22.492979357478468,14.69958305146526,-5.751694491440932
1760680826.895128,-5.2720293420226225,0.14387255306207353,1.3031351263550783,0.021549893938043782,-23.967557172610185,13.855980853512596,-8.926988980893709
1760680826.9051244,-5.24119016381217,0.15743548975404525,1.2771245800521096,0.046112535573247085,-25.465056272402336,13.834978028968559,-11.624680153108088
1760680826.9151227,-5.232954750908794,0.15474818500709317,1.2400239210358535,0.05806133812849311,-26.844074425511216,14.486150590347306,-13.803757967354718
1760680826.9253118,-5.255324539408897,0.13488639689883017,1.1941231212802113,0.05765236403906533,-27.93637866968467,15.555545868251766,-15.488780324793776
1760680826.9349942,-5.317830051844371,0.09822542127493092,1.1421103686682714,0.0464177464193215,-28.564793910092114,16.711944044704733,-16.77093692512738
1760680826.9452074,-5.430877121766366,0.04651997477475383,1.086873385572793,0.026932953321063574,-28.5648028772042,17.584145524633765,-17.800642288995405
1760680826.9548936,-5.6047908094197965,-0.017153293500748835,1.0313178672431715,0.0024596099449836362,-27.807120117793783,17.80419228327188,-18.7723512027047
1760680826.9651718,-5.848657010307423,-0.08858222228846604,0.9782031870169084,-0.023481264011127122,-26.21811045767249,17.050341877444318,-19.903060137556416
1760680826.975186,-6.169110956369895,-0.16271708537724952,0.9299885687104277,-0.04754384070883699,-23.794876934231628,15.083893445262149,-21.406550844030146
1760680826.9851596,-6.569261942894942,-0.23407028754127193,0.8886854349792803,-0.0669425269920858,-20.612277860412092,11.77553552445216,-23.466022350232855
1760680826.9951434,-7.047962324586575,-0.29721188204213633,0.8557219597209875,-0.07974247382851064,-16.820150844621864,7.119072806071407,-26.20837024864864
1760680827.0052023,-7.599600647560246,-0.34733513571635605,0.8318384638017877,-0.08502650377840833,-12.630529306478872,1.2323488063355477,-29.68372484747702
1760680827.014865,-8.214506716763907,-0.3808264341105192,0.8170406902455601,-0.08292635053391202,-8.296316995135088,-5.65356147368595,-33.853531222136816
1760680827.0249214,-8.879916727288917,-0.3957397472267022,0.810635422890964,-0.07452266319934758,-4.084344741976812,-13.215176691218815,-38.58927848979144
1760680827.035131,-9.581309210487577,-0.392073290128812,0.8113555655865824,-0.061632344509971584,-0.24665368661494894,-21.065331017229404,-43.68228115918391
1760680827.045183,-10.303843614721188,-0.3717810342882032,0.8175549197083166,-0.04651193480716119,3.005959663346508,-28.787206015822914,-48.863293498429215
1760680827.0551748,-11.033642164532093,-0.3385097154040728,0.8274304902171349,-0.03151266098583685,5.5246565309237115,-35.9705987043711,-53.82964478987977
1760680827.0651662,-11.75873914015117,-0.29710870621869606,0.8392251190087874,-0.018728223659508332,7.235136994183365,-42.247108434672576,-58.277018915876724
1760680827.0752265,-12.469635448930436,-0.2529958141079626,0.8513773815888034,-0.009681168833697743,8.140975249633694,-47.3211510792072,-61.93268008199854
1760680827.0849125,-13.159492975553356,-0.21147167031254874,0.8626089176790507,-0.005096446640641534,8.317801937733353,-50.99432776164914,-64.58665621806634
1760680827.094975,-13.824056636067718,-0.17706846960748276,0.8719585977765477,-0.004806955208619854,7.8995092033180425,-53.181286231912644,-66.11717562441609
1760680827.1051893,-14.461402065207821,-0.15300832844279558,0.8787820777533115,-0.007819070987677403,7.0586373896728425,-53.91547526782398,-66.50675914793592
1760680827.1151114,-15.071588145575422,-0.14083631056063867,0.8827363651498429,-0.012534228192396272,5.983894325014628,-53.343290437804654,-65.84609380941232
1760680827.1254187,-15.656263861288984,-0.1402775610147111,0.8837649738824892,-0.0170832212607713,4.858109864184202,-51.7056901957862,-64.32429145210078
1760680827.1351151,-16.21825309597538,-0.14934290115847101,0.8820902658433584,-0.01969853848566328,3.8396224025895305,-49.307902179034286,-62.206202824975215
1760680827.1451938,-16.76112852017082,-0.16467620569846075,0.8782069146287836,-0.019041158513462837,3.0491728663025475,-46.480101186771186,-59.79966581632618
1760680827.155075,-17.288788540315107,-0.1821051829272381,0.8728595418164428,-0.014416093081283594,2.563158319469127,-43.534077378911654,-57.417365061270765
1760680827.1651986,-17.80506357034944,-0.1973271341250845,0.8669851496979047,-0.005846505635592702,2.4129567265693703,-40.72210424561787,-55.33894430156567
1760680827.175185,-18.313389774440914,-0.20663540179779827,0.8616096943831918,0.005986603076169921,2.5892348472273663,-38.20415373379785,-53.77896815375904
1760680827.1850748,-18.81659110085828,-0.2075756506414439,0.8577046616335747,0.019906014897035168,3.0497622981330927,-36.02845898065962,-52.86531186088756
1760680827.1949944,-19.31679957962355,-0.1994200545998015,0.8560266875816952,0.03445654987442992,3.729208055848795,-34.12852991196741,-52.630742017402675
1760680827.2050974,-19.81552081532546,-0.18336706588894405,0.8569741211096162,0.04813508400409429,4.549562573413338,-32.33741399314493,-53.01815665436805
1760680827.215166,-20.31382203427787,-0.1624154332296393,0.8604945412154577,0.05959406509269795,5.430083097586439,-30.417570812848176,-53.8976219374242
1760680827.225261,-20.812591509004903,-0.1409170368067149,0.8660657910293846,0.06779120736923401,6.295928068399815,-28.10247877749221,-55.0914378553521
1760680827.235208,-21.312798518173587,-0.12387271606564947,0.8727537275374082,0.07207218224361192,7.084922239405094,-25.144279900379647,-56.40235812581557
1760680827.2449682,-21.815678708403308,-0.11608648093078638,0.8793300323396944,0.07218825428783815,7.752189971277199,-21.36065091776737,-57.639978457047725
1760680827.255193,-22.322783390774045,-0.12132531079182682,0.8844210686400936,0.06826316941069765,8.272683843207608,-16.673886268717506,-58.64116533452897
1760680827.265316,-22.83586040550763,-0.14163759612810153,0.8866587006998815,0.06072981387694132,8.641859384173166,-11.136016512396996,-59.28199515363047
1760680827.2749763,-23.356572567301967,-0.17696219373280278,0.8848151042792274,0.050256162605805794,8.874852807107978,-4.935644663614584,-59.48065125417564
1760680827.2848988,-23.886098883129097,-0.22511219910858699,0.8779188402154477,0.037673402144848066,9.004482708164524,1.615145052503717,-59.19264095208176
1760680827.2950637,-24.42469309917514,-0.2821444492128432,0.8653598066761226,0.023910627922286463,9.078230354088847,8.112384704560581,-58.40108251804618
1760680827.3051162,-24.971283611428778,-0.34303945735283564,0.8469906909158331,0.00993485538700499,9.154130044776682,14.106000319313658,-57.10534435741688
1760680827.3151007,-25.523184748967573,-0.40254157010867164,0.823223361426005,-0.00330511086289827,9.295362169960168,19.15323175298533,-55.3109612238035
1760680827.3249714,-26.07595831437623,-0.45597155520073723,0.7951067246960561,-0.014928951662103417,9.563434903597065,22.872020978259222,-53.0227735124957
1760680827.3349652,-26.623429573095684,-0.49983888467104554,0.7643651836271601,-0.024164938976186268,10.010216380152666,24.986841720496408,-50.24205066152407
1760680827.345107,-27.157837305972084,-0.5321464525457343,0.7333772534958364,-0.03037776256419365,10.669624135461088,25.3608729513423,-46.96734310935887
1760680827.3549914,-27.670090506366577,-0.5523731294744109,0.70507993035893,-0.033087840539545665,11.55025631861948,24.010854202596544,-43.19817126781036
1760680827.3650815,-28.150112944675318,-0.5612030725317674,0.6827915295611848,-0.03199123508276949,12.630431016135443,21.103839173993734,-38.940407530587
1760680827.375303,-28.587271183118723,-0.5601162383140957,0.6699516347663281,-0.02698973634097682,13.856885675317459,16.937712398500015,-34.212185043574266
1760680827.3851578,-28.970888881691923,-0.5509562157083904,0.669783649356523,-0.01823472605555197,15.147835545032518,11.909253249047675,-29.04922524006407
1760680827.3952236,-29.290841509902073,-0.535563194848804,0.6848976088344897,-0.006178666162626604,16.400359742214256,6.474547444532366,-23.508588070506185
1760680827.4049513,-29.538200262088523,-0.5155208571656558,0.7168695507345321,0.00838078142502909,17.501365298449624,1.1067314000373034,-17.6700468612779
1760680827.4148862,-29.705860761358203,-0.49203059302980606,0.7658536116599575,0.024283228459510954,18.340823975886234,-3.744409055966807,-11.634568472334193
1760680827.4251914,-29.78906806763433,-0.4659030506799211,0.830296374715014,0.0400323122036159,18.82565000357801,-7.687367478784863,-5.519740396580587
1760680827.4350731,-29.785753476701807,-0.4376478798713736,0.9068253932224758,0.05387744579287952,18.89247561900496,-10.41590662976377,0.5475233449110126
1760680827.4450457,-29.69663737097544,-0.40764125017803265,0.9903740291877039,0.06394993961264556,18.51764803271316,-11.72688143545434,6.4400771348815535
1760680827.4551594,-29.5251103064916,-0.3763443936933773,1.0745805465880052,0.06843969555099874,17.723004183970506,-11.528824104896907,12.040046992564159
1760680827.46504,-29.276950664175835,-0.34452717610805117,1.1524575206168832,0.065787993827709,16.57638671367246,-9.842095726585722,17.247267622231156
1760680827.475075,-28.95994728762793,-0.3134279869334744,1.2172690114600009,0.054868258935499056,15.186430876000843,-6.7918367289766985,21.985586796170253
1760680827.485052,-28.583470561160507,-0.284779805040317,1.2634868925534914,0.03513216037216137,13.691808999996686,-2.5949353188798194,26.206693594595713
1760680827.495418,-28.157999474623278,-0.2606687191756535,1.287642820591713,0.006708543938722177,12.245772063090062,2.4579901901779992,29.89177443940776
1760680827.5052547,-27.694591527638213,-0.24324908514517177,1.288875791524266,-0.02955244245297359,10.99744312929675,8.024743625955557,33.0514717914525
1760680827.5152018,-27.20428697910885,-0.23438086204928882,1.2690225826897932,-0.0721017235565441,10.071969365379786,13.736922384344998,35.72424368080217
1760680827.5253112,-26.69746402351475,-0.2352626871345922,1.2322103533823296,-0.11879418431013149,9.552362023306005,19.227309108894513,37.972694727195574
1760680827.5351052,-26.183196653778264,-0.24612750227338634,1.1840494636509549,-0.16707465632087834,9.466368156401888,24.157529695302905,39.877293687556026
1760680827.5455806,-25.668698432934903,-0.2660634884374904,1.1306317757926805,-0.21422811331107972,9.781462861690533,28.24344666251775,41.527315040896
1760680827.555587,-25.158945502342444,-0.2930116787551486,1.077572804144799,-0.2576574034529502,10.409690601309192,31.27519636163749,43.00966512515276
1760680827.565155,-24.65654964178538,-0.3239579431859509,1.029291530876101,-0.2951446515783029,11.221926860157552,33.1290764878796,44.39711784456616
1760680827.5752037,-24.161903309828784,-0.3552889237339471,0.9886295723155974,-0.32505429564808846,12.068932747181679,33.7698505186629,45.73803677476302
1760680827.5851777,-23.673562954122527,-0.3832428352684866,0.9568123346124319,-0.3464459308083884,12.805047198831245,33.243929892637276,47.04967473364358
1760680827.5951893,-23.188793740566236,-0.4043730800323196,0.9336800797623045,-0.359084890254607,13.309918086241732,31.665513980907306,48.31659276100872
1760680827.6052713,-22.7041781988863,-0.41595282870329797,0.9180805247513945,-0.3633638634462605,13.504383316511845,29.198634262196848,49.49478070131123
1760680827.6151977,-22.216193258342177,-0.41626922480865397,0.9083147149246287,-0.36016943849696487,13.35818055920413,26.038149557501605,50.52094295842209
1760680827.6252055,-21.721679179529445,-0.4047782313737996,0.9025518336272642,-0.35073357215303336,12.889038347372042,22.392271815106263,51.32540651501493
1760680827.6350896,-21.218153209059928,-0.382113883845554,0.8991603868434762,-0.33650016727462956,12.154342944314825,18.468369653884555,51.84643274416489
1760680827.645358,-20.70395413945989,-0.3499662124093784,0.8969301480783355,-0.3190185103298857,11.237672606616519,14.462799324604523,52.043483161761635
1760680827.6551628,-20.178235339882125,-0.31085521214850154,0.8951765268665485,-0.29985857278456024,10.232976883938237,10.554578837411022,51.907206007703536
1760680827.665154,-19.640847792631682,-0.2678329780697963,0.8937300397382975,-0.28053506908889225,9.229127770555532,6.902051086804623,51.46449871129446
1760680827.6751637,-19.09216768145121,-0.22414737158742953,0.8928248339164732,-0.26242915432527075,8.297104958796707,3.641360894051749,50.777826700071856
1760680827.685165,-18.53292434898111,-0.18290332174624638,0.8929146386693707,-0.24670570846395723,7.481342865177675,0.8855688426366497,49.93887673518866
1760680827.695084,-17.964075378362168,-0.14676157909598475,0.894458640156704,-0.23423470324442855,6.795926967663612,-1.2765276742132527,49.0574396173181
1760680827.7051196,-17.386758684322253,-0.11771344818085995,0.8977264796734155,-0.22553168203360138,6.225541834702304,-2.782361711844701,48.247044974426025
1760680827.7150993,-16.802330327592518,-0.09695796426559962,0.9026656069183493,-0.22073201895798908,5.730459101104589,-3.598300057067309,47.609259927001794
1760680827.725125,-16.21247620325397,-0.0848869930679857,0.9088564080045282,-0.21960687554055583,5.254465961264075,-3.7224742268186852,47.21871521466733
1760680827.7349367,-15.619371128726085,-0.08116381791240825,0.9155575320924861,-0.2216189631819565,4.734471791809604,-3.1867086638942372,47.11086165883563
1760680827.7451785,-15.025852654605973,-0.084870158633239,0.9218236786948449,-0.2260078944352181,4.110536306121144,-2.056382509733522,47.274199881288204
1760680827.7549603,-14.435576352177653,-0.09469350388715475,0.9266654402435195,-0.23189081515075058,3.335149613317191,-0.42732052400230774,47.64826765654444
1760680827.7652562,-13.853118871369002,-0.10912500246754311,0.9292160500525947,-0.23836340963452163,2.3807020049757774,1.5805703452393083,48.1280326327926
1760680827.7749205,-13.28399224073146,-0.12663731136186634,0.9288718607651301,-0.244587526610065,1.2442235104773114,3.832418060952679,48.57457677334182
1760680827.7851899,-12.734531044095222,-0.14581606194456057,0.9253811512686785,-0.24985489147546577,-0.05127851459704175,6.18910429280941,48.83113503945606
1760680827.7951922,-12.211619915001606,-0.16543011420104375,0.9188681341119117,-0.2536226882299636,-1.459143654653986,8.518145817477679,48.74272611088661
1760680827.8051612,-11.722247745937807,-0.18444210300691913,0.9097932575126304,-0.2555248114775563,-2.9147495930336493,10.703415969999071,48.176890664469816
1760680827.815048,-11.272907871869782,-0.20197722008186406,0.8988639148745231,-0.25536884132601856,-4.343692399177588,12.652773436881713,47.0426185085386
1760680827.8251328,-10.868904446106107,-0.21727925559959443,0.8869189043537777,-0.2531309165092449,-5.671130455878759,14.30313918942229,45.3046081442676
1760680827.835177,-10.513663155214665,-0.22968412731782695,0.8748140333117775,-0.24895853008165394,-6.830785574390165,15.622950952357636,42.990645979480625
1760680827.845152,-10.208166781073439,-0.23863157737523966,0.8633348546647109,-0.24318555355862195,-7.772230193339369,16.61212507203589,40.190993780649414
1760680827.855154,-9.950632644387474,-0.2437184211106613,0.8531556132701749,-0.23635549598886818,-8.46550539659957,17.29967045575489,37.04995821422999
1760680827.865111,-9.736514205285445,-0.24477649637627727,0.8448510744077611,-0.22924000397642655,-8.902704196504763,17.739042063404586,33.75098696956235
1760680827.8751283,-9.5588460007673,-0.2419417543835771,0.8389519483572253,-0.22283261027114762,-9.096762035351148,18.001348926929637,30.497471801105476
1760680827.8852282,-9.408875423342348,-0.23567633663365511,0.8360204640664443,-0.21829577521548169,-9.078157611951237,18.166736529329732,27.49183755326569
1760680827.89519,-9.276863534276245,-0.22671891814986003,0.8367163817385829,-0.2168453778703286,-8.890428541089577,18.314619830439995,24.915444642328662
1760680827.9051862,-9.152914934705692,-0.215965901895428,0.8418273487625235,-0.2195723859083963,-8.5853370723145,18.51383524296401,22.911388224964796
1760680827.9152205,-9.02771977897905,-0.20431347773240774,0.8522476567034069,-0.22722321779846982,-8.218286172882678,18.814049227045114,21.57159667535309
1760680827.9252431,-8.893142784211587,-0.1925044581785847,0.868901189688865,-0.23998005364212852,-7.844355571486635,19.239749128532516,20.928937985076466
1760680827.9351652,-8.742646771307268,-0.18101887522062005,0.8926146012222214,-0.25729127867316237,-7.5152277985067055,19.787766073451692,20.954508849834408
1760680827.9451022,-8.571568952161474,-0.1700278191779521,0.9239545788112259,-0.2777965057597377,-7.277297754876046,20.42862152905482,21.559955723273088
1760680827.9549599,-8.377270190537201,-0.15940664075682512,0.9630489199228365,-0.2993728664546846,-7.171269514455525,21.111283238991223,22.60449792942044
1760680827.9650013,-8.15916201150793,-0.148788113329312,1.0094166093634993,-0.3193063771615669,-7.233378329922923,21.77041818025814,23.906175393474363
1760680827.9752545,-7.918603322297278,-0.1376345270220004,1.0618380056339936,-0.33457143758812335,-7.497960840961519,22.335069855528634,25.256624824691034
1760680827.985014,-7.658663477557686,-0.12531694044651,1.118300038937501,-0.3421868056030781,-8.000511865680116,22.737805321394696,26.438359496266852
1760680827.9953203,-7.383770514373337,-0.1112010439327328,1.1760474419193698,-0.3396073790320983,-8.779836459500357,22.923571236143587,27.243144693854028
1760680828.0052998,-7.099290756962072,-0.09474493885183918,1.2317555693395266,-0.32510585894721483,-9.8777144960914,22.85756372529441,27.489763437339462
1760680828.015193,-6.811104776354626,-0.07561256890464342,1.2818156467859776,-0.29809586415688566,-11.334840258883064,22.531294712883465,27.039402919202704
1760680828.0252185,-6.525247522667838,-0.053798274408690124,1.3226976747355128,-0.25934836858677857,-13.182672982520357,21.965839355239268,25.80711683929132
1760680828.034996,-6.247666578667808,-0.029745388607277636,1.3513384970087448,-0.21105741190245303,-15.432008956423383,21.21116573675062,23.768265977690564
1760680828.0450184,-5.984125782050062,-0.0044311899955407595,1.3654960512098442,-0.15672167449961194,-18.060220458098776,20.340652085009097,20.959374037653333
1760680828.0551577,-5.7402488939812235,0.020610974393136073,1.36401368416323,-0.1008295557656218,-20.99988380643495,19.440495377006872,17.47333619345079
1760680828.0649772,-5.521667071082178,0.043352277300488046,1.3469493248905846,-0.0483673478134586,-24.131731852748413,18.594695570442624,13.449339474508605
1760680828.0751195,-5.334210401711255,0.06141596946539666,1.3155450394117008,-0.00420616190369762,-27.284444990390348,17.86746094470068,9.058231685435343
1760680828.085112,-5.18407145122553,0.07230088936922419,1.2720430055554446,0.02754774045336191,-30.242802214313418,17.28585571142095,4.484456286283947
1760680828.095164,-5.077869918761305,0.07365999495578299,1.219387112871488,0.04414042581766379,-32.7643273867501,16.82594525633741,-0.09393607802966844
1760680828.10494,-5.0225628326878065,0.06360858094864057,1.160873109270228,0.044598725837578575,-34.60304374829544,16.40542865592588,-4.525309836934115
1760680828.1152306,-5.025172587117248,0.0410335351889706,1.0998152247027997,0.029919253301901674,-35.53759025557017,15.884843672235379,-8.70230811157127
1760680828.1252267,-5.0923412384539635,0.005869137779301844,1.0392827519365486,0.0029681156792269302,-35.400022247402795,15.078078750003801,-12.57522293768743
1760680828.1352015,-5.229757723773299,-0.040702763175851,0.9819327445568965,-0.031914207214785044,-34.10125419755046,13.771401436640458,-16.15863523402182
1760680828.1454167,-5.441539059103173,-0.09617611620777398,0.9299344158837785,-0.06955358064725664,-31.649297367213634,11.748830729045949,-19.52952448944516
1760680828.1552024,-5.729671891173853,-0.15681380107161869,0.8849571022334588,-0.10472435874814043,-28.157132176483962,8.820710227282047,-22.815952917759255
1760680828.1649969,-6.093630521889886,-0.2179408762772664,0.8481846355311844,-0.13293034044004573,-23.838187639437095,4.851893539058638,-26.17684570262303
1760680828.1749947,-6.530272364093463,-0.2744337827755629,0.8203260013670812,-0.15103589438747922,-18.988958405252603,-0.21401461038826539,-29.775131811096465
1760680828.1852016,-7.034062687062546,-0.3213514467207253,0.801609993154267,-0.15763105666044916,-13.960179262407546,-6.337527636937511,-33.74812809994714
1760680828.1950302,-7.59759934724384,-0.35460354137377814,0.7917727747670107,-0.15307724682226492,-9.119897017442028,-13.37576071706264,-38.179957726891715
1760680828.2054183,-8.212320375582696,-0.37152422447849903,0.7900637673210489,-0.13925383528372762,-4.813269592304799,-21.086110164840385,-43.08059970938458
1760680828.2154026,-8.869226558711592,-0.37123654101094533,0.7952979683185201,-0.11908661011695805,-1.3245972460392597,-29.14151681952604,-48.37500176193327
1760680828.2253304,-9.559467633103978,-0.3547483746336836,0.8059669458165166,-0.09597029435112926,1.1531932702132561,-37.156308691722266,-53.904122827705976
1760680828.2350783,-10.274713362626388,-0.32478541214146195,0.820393746819686,-0.0731959497589921,2.5375450722177293,-44.72020130827,-59.438283207224124
1760680828.2452254,-11.00731808201293,-0.28541140129541487,0.8368962640283075,-0.05347057626627207,2.8614352787477007,-51.436823904405664,-64.70179929051992
1760680828.2551708,-11.750350187242026,-0.24150380673899366,0.8539228741297414,-0.038584728649334085,2.264382052622388,-56.96236860627576,-69.4063243952861
1760680828.2652721,-12.497578774781992,-0.1981536348262719,0.8701414918225776,-0.029254382696974977,0.9708683755777748,-61.03977861507457,-73.28861908430169
1760680828.2752662,-13.243491099137888,-0.16005516428084682,0.8844844789877103,-0.02513849381593437,-0.7406472399086429,-63.52428847524727,-76.14710326380364
1760680828.285276,-13.983372888764954,-0.13095219675365757,0.8961646629180876,-0.025012643470847674,-2.57380550482596,-64.39697728048331,-77.87112950348104
1760680828.295336,-14.713438902370152,-0.11320918999299487,0.9046792244685415,-0.02706099659847235,-4.250571737544597,-63.76417828979726,-78.45780357942665
1760680828.3050547,-15.430968949887173,-0.10756826777706598,0.9098120197654855,-0.029234218342457943,-5.542742888123056,-61.84208319960638,-78.01324296845402
1760680828.3150878,-16.134392664769493,-0.11313091326664894,0.9116358068835574,-0.02961232640173739,-6.294707014755235,-58.92771550401475,-76.73794207660706
1760680828.3252022,-16.8232753436362,-0.12757053581607095,0.9105079196617676,-0.026712735300933516,-6.434966161209878,-55.35951989431899,-74.8987603280062
1760680828.3353627,-17.49818223074137,-0.14754776607338174,0.9070484700446391,-0.019698153596769814,-5.975830046980191,-51.47272828260061,-72.79230616705368
1760680828.3452244,-18.160430712223334,-0.1692698798398293,0.902089795571537,-0.00846392247689164,-5.002472867821615,-47.55585846103431,-70.70569122713489
1760680828.3553789,-18.811768704749355,-0.18911149276012237,0.8965902387228315,0.006389180715732059,-3.6538774602880655,-43.814790056548716,-68.88064321951666
1760680828.3651464,-19.454034679277818,-0.20419888157385382,0.8915148566841904,0.023672315147337343,-2.0989565348016197,-40.349825729870865,-67.48595990011606
1760680828.375103,-20.088856377571624,-0.21286061895951164,0.8876976054391754,0.0417853894817746,-0.5113757336774952,-37.149242398183375,-66.60158796423063
1760680828.3853385,-20.717432919526285,-0.21486691115506834,0.8857076836447276,0.05892543376437407,0.9536202492600089,-34.1004017709197,-66.21559033385067
1760680828.395289,-21.34042416842142,-0.211417650559913,0.8857422865811448,0.07330519266502965,2.177684058566075,-31.016856039194348,-66.23327151418938
1760680828.4051654,-21.957948612037658,-0.20488681667047234,0.8875609817291354,0.08336578877208009,3.0913284470260787,-27.677440164042956,-66.4960703937367
1760680828.4151819,-22.569671970870402,-0.1983764252713922,0.8904700915530771,0.08796796447429164,3.678564153193338,-23.871508486829942,-66.80673643061496
1760680828.425171,-23.17495576622706,-0.19516558178858825,0.8933629330770935,0.08654274910750127,3.974406607827447,-19.443551917721116,-66.95686955969613
1760680828.4351995,-23.773028303026656,-0.19815416537169545,0.8948207679611435,0.07917876631425153,4.056351763268122,-14.330493434937232,-66.75305646458769
1760680828.4450839,-24.363139467957033,-0.2093968336243285,0.8932735982288643,0.06662573915471455,4.031616831277802,-8.585909201923974,-66.038427434677
1760680828.4551358,-24.944664920515976,-0.2298032121668539,0.8872068003599162,0.050205184102044165,4.022299307373127,-2.387139648394156,-64.70734887442025
1760680828.464969,-25.517133125744266,-0.25904591502802876,0.8753849685117436,0.03163789214446497,4.150555776159652,3.9763677921985354,-62.71203883607932
1760680828.4751115,-26.080157802233263,-0.29567478953110876,0.8570591809982315,0.012817719147605704,4.525486174409299,10.13230572888177,-60.06102863848098
1760680828.4852555,-26.633267678164543,-0.337394758961911,0.8321324357742265,-0.004424813413814549,5.232786881308611,15.668302707087097,-56.810465744373055
1760680828.495141,-27.17563673560828,-0.38143776858710937,0.8012722418468833,-0.018523489874000005,6.327610936197886,20.181986297041515,-53.05014080449487
1760680828.5052874,-27.705734583423666,-0.4249526399329033,0.765968225120605,-0.0283080464499834,7.830602059880114,23.330986820929066,-48.88674353923923
1760680828.515217,-28.220939624672273,-0.46534842240741253,0.7285324799964803,-0.03305468477912493,9.726795671220055,24.875869901871745,-44.42716385122725
1760680828.525478,-28.71718360452833,-0.500549103404063,0.6920346033584365,-0.032468133881945895,11.966957990261077,24.71039957076271,-39.76459058433882
1760680828.5352142,-29.188715452663907,-0.5291400793431794,0.6601569337180796,-0.026625875033380993,14.470901020148462,22.87563337271006,-34.969633392382285
1760680828.545102,-29.6280730884302,-0.5504029464954165,0.6369531820611601,-0.01592038883801233,17.13234217289828,19.55675574339726,-30.087702919849132
1760680828.5553927,-30.026325260393747,-0.5642445326888105,0.626499286797467,-0.0010265469852870355,19.82498057907207,15.06391731565352,-25.14258101387678
1760680828.5652392,-30.37359173147181,-0.5710331315482837,0.6324416063689479,0.01709720796210871,22.409625234832202,9.80034703404501,-20.14475266397475
1760680828.5752528,-30.659782167729908,-0.5713656002083507,0.657474511737264,0.03718534925027729,24.742361063437077,4.222398325778484,-15.101967870805133
1760680828.5850396,-30.875435425203126,-0.5658061684501603,0.7028114696529146,0.057645458359025126,26.683782656370962,-1.2031534193376836,-10.028967943360906
1760680828.5950787,-31.012515043913556,-0.554657689846242,0.7677400397991078,0.07657423375141541,28.109212701805404,-6.03936301545953,-4.953550596969391
1760680828.6052139,-31.065034368002873,-0.537838717801279,0.8493620867434073,0.09183810221695861,28.91956371420831,-9.912583142372046,0.08283249030269835
1760680828.6155562,-31.029438243967267,-0.5149328686403313,0.9426112790824492,0.1012336425634043,29.052134498229407,-12.536312753008325,5.030150114402878
1760680828.625096,-30.904736700727202,-0.4854411936734214,1.040608820744691,0.10272015882201825,28.490201224840504,-13.724455458995875,9.838946679561204
1760680828.6351776,-30.692444491303444,-0.4492042285118865,1.1353645469582925,0.09469026655557779,27.269841341032382,-13.394835386210229,14.470573301208214
1760680828.6452663,-30.396408104129737,-0.40688395607965994,1.2187573460617986,0.07622529259300533,25.48215571681629,-11.565174672508824,18.905065552300563
1760680828.6552796,-30.022589360726553,-0.36033920045814627,1.283647963326663,0.047282289651197996,23.26912993662704,-8.34433489681389,23.14407678458268
1760680828.6652036,-29.57883063949013,-0.31272769255649047,1.3249103463494756,0.008779982730180486,20.811992293256406,-3.921357510850544,27.20803724088527
1760680828.6754212,-29.074576418224357,-0.2682392467229185,1.3401456189834489,-0.037423700104040676,18.312175996784685,1.4461802436331628,31.12856083100826
1760680828.6852882,-28.520498016806325,-0.23148167037186052,1.3298952315912755,-0.08865926628146657,15.966793407112165,7.444428253322365,34.93824979576903
1760680828.6950927,-27.927980935594412,-0.20665440849367103,1.2973006701977172,-0.14167793185875052,13.9425328620404,13.717432571492104,38.66018168845798
1760680828.7050142,-27.308485448814267,-0.19671401025218022,1.2473231863552028,-0.19298229445298576,12.353376706570605,19.88505153247454,42.29885259307633
1760680828.7155569,-26.672856592422082,-0.20274199201989662,1.1857632472508053,-0.23922424805905076,11.247578122366225,25.565699654296548,45.83375614570976
1760680828.725302,-26.03070110929955,-0.2236701486063635,1.1183482750738947,-0.27760970845972605,10.607393492867896,30.4031258419593,49.21641243385026
1760680828.7350326,-25.389941259258684,-0.25642115189982856,1.05008660128076,-0.3062359522209224,10.361627299704478,34.094381921939096,52.37145938498465
1760680828.745048,-24.756606189369123,-0.2964183833492419,0.9849613463385809,-0.3242951115110979,10.407448949939651,36.41492987318803,55.20213441714068
1760680828.7550187,-24.134859033617378,-0.33833942930898014,0.9259186717715238,-0.33210308512630726,10.635560180441713,37.23691303340008,57.599945681414326
1760680828.765277,-23.527206653050897,-0.376946398617171,0.8750316205381381,-0.33095149523128314,10.952342194649045,36.537771121845196,59.45761730984249
1760680828.775186,-22.934810215215233,-0.40782430858921714,0.8337063588370434,-0.3228221265426174,11.294022204222468,34.39812769880318,60.683706932352315
1760680828.784966,-22.357810420055998,-0.42789404290127425,0.8028313705662686,-0.3100340136124453,11.630533555733736,30.98976029590595,61.21684114696956
1760680828.7953694,-21.795598327842633,-0.43563242881805486,0.7828288091699883,-0.29490076184590436,11.959690290287167,26.5560642441253,61.03737400783498
1760680828.8050253,-21.246995972499846,-0.4310106428328317,0.7736244714371449,-0.2794588943753281,12.294680631748353,21.38837408529203,60.17443682720488
1760680828.8150642,-20.710351621232444,-0.41522595342959945,0.7745877246841362,-0.2652975677050897,12.64914323150589,15.801610789066425,58.7068178609536
1760680828.8251424,-20.183590848690695,-0.39032983409205363,0.7844976396657717,-0.253489939462533,13.024081860725225,10.112035427216174,56.75691203735933
1760680828.8353937,-19.66428464369756,-0.35884616668104735,0.8015740265362777,-0.24460652615340844,13.39980819268603,4.6187073611906655,54.47808297559337
1760680828.8453672,-19.149792311044433,-0.32344165515871226,0.8235866612324212,-0.2387838050642545,13.734420745657419,-0.41098650205753245,52.03702172251321
1760680828.8551795,-18.63751004997674,-0.28667523922456467,0.8480344758562313,-0.23582409679421437,13.968563363735505,-4.752231311256272,49.59377991989218
1760680828.865305,-18.12521354925182,-0.2508259779113078,0.8723729923490668,-0.23530930488020002,14.03481300581384,-8.230915455671536,47.282785013444304
1760680828.875028,-17.611439394169032,-0.217783996437595,0.894260953173724,-0.23671578373449872,13.869279395228173,-10.729579952691262,45.198105990310125
1760680828.8850532,-17.09582273577385,-0.1889868852717445,0.911793287155966,-0.23951873438051613,13.422897192528914,-12.191236635627662,43.38549774340637
1760680828.8953025,-16.57930852489322,-0.16539017835475303,0.923687257101053,-0.2432744020491981,12.67032274043903,-12.620524464616263,41.842450805275455
1760680828.9052026,-16.064179506410188,-0.14746789553474177,0.9293934380841561,-0.2476700310983922,11.615076599673465,-12.081334969200107,40.52589805932106
1760680828.915198,-15.553885312722963,-0.13524259218768028,0.9291134191646877,-0.2525359179000035,10.290358767891494,-10.69014721600629,39.36574757102504
1760680828.9251583,-15.052699712773949,-0.12834341602034893,0.9237202362341476,-0.2578199994502697,8.755651300457593,-8.604885397923457,38.28136614668173
1760680828.9354143,-14.565265961248086,-0.12608723405930208,0.9145931029280531,-0.26353207726094674,7.089764610273602,-6.009961607549299,37.19776656445216
1760680828.944982,-14.096106482918236,-0.12757434055932004,0.9033924183625597,-0.269670997090704,5.38138979689113,-3.0990101331936732,36.058613068444636
1760680828.955278,-13.64917108814721,-0.13178832450313696,0.8918114333616276,-0.2761522778074943,3.718503333548324,-0.05739431208740384,34.83411799721852
1760680828.965234,-13.227480709797815,-0.13769008056988416,0.8813446151048098,-0.2827539513579789,2.1781111648482145,2.9533135852497243,33.52316600308525
1760680828.9753258,-12.83289826235121,-0.14429854304222298,0.873108407468152,-0.2890941601777446,0.8177679913106971,5.8070638997586865,32.15022546032596
1760680828.9852126,-12.4660323992085,-0.1507543716705415,0.8677387945305401,-0.2946468288799115,-0.32996321865571854,8.420207814714495,30.758510378097856
1760680828.9952056,-12.12625982058507,-0.15636634879324904,0.8653746346784256,-0.2987940373729238,-1.2594100079762547,10.753310861866149,29.401302529309966
1760680829.005278,-11.811841461025574,-0.16064338997515146,0.8657197285871733,-0.30090766818991993,-1.9899342358440433,12.808408371052826,28.1333225975965
1760680829.015323,-11.520107701550712,-0.16331684569567545,0.8681636935015232,-0.3004492734638031,-2.56083314962389,14.622673602224678,27.003628325139488
1760680829.0250409,-11.247692646975372,-0.16435609235404489,0.8719348674234119,-0.2970753076737945,-3.0240668315132586,16.25966713631917,26.05087546280142
1760680829.035293,-10.9908005467469,-0.16397540844870998,0.8762587876784842,-0.290733706365974,-3.436239065896661,17.799311944694914,25.301116812204764
1760680829.045066,-10.74548576237825,-0.16262531384412027,0.8805018550122968,-0.2817368177021229,-3.8512948248129644,19.327564951674564,24.767808138404575
1760680829.0551007,-10.507923732387411,-0.16096023072491022,0.8842880449730143,-0.2707955345400388,-4.315070670025802,20.926518015287876,24.45339502889327
1760680829.0650012,-10.274647867861717,-0.15977665355696005,0.8875830965353955,-0.2590009187188244,-4.862236749181207,22.665433091846882,24.351743820356496
1760680829.075102,-10.042727638031756,-0.15992000590791958,0.8907432696930485,-0.24774322861029058,-5.515502052839339,24.593049721378712,24.450703500798422
1760680829.0850143,-9.809866464016824,-0.16216311019944551,0.8945247508241244,-0.2385647779051015,-6.286441539794611,26.731430415655776,24.734193116862585
1760680829.0952353,-9.5744067838086,-0.1670661995582971,0.9000474783929403,-0.23295319425061126,-7.177094443886271,29.071630023144806,25.18334444773106
1760680829.105307,-9.335247312976755,-0.1748382755770802,0.9087067654868278,-0.23209505902594066,-8.18160389138269,31.571536817468715,25.776353637927325
1760680829.1152368,-9.091702413039984,-0.18522808074739835,0.9220297280353056,-0.2366239760378244,-9.287534663242061,34.15625540273626,26.48682364513637
1760680829.1253037,-8.843355466904118,-0.19747318063147531,0.9414812437040415,-0.2464072162733171,-10.476966385449046,36.721329419553676,27.280585785828844
1760680829.1353204,-8.589964917122519,-0.21032537961566583,0.96823459932359,-0.2604169709379859,-11.72783074731215,39.13893651499903,28.111349490405825
1760680829.145324,-8.331467830212091,-0.22215454453818237,1.0029332506938995,-0.2767245451597502,-13.016070947468103,41.266966296118504,28.9160344359768
1760680829.1553707,-8.068095922936706,-0.23111761577223286,1.045479622661653,-0.2926399090266541,-14.3189546485801,42.96064679781425,29.611144817221547
1760680829.1651766,-7.800583426038785,-0.23536942049190354,1.0948908207317887,-0.30499693722468557,-15.619321268328536,44.08611387983964,30.091820108807266
1760680829.1750891,-7.530416636102917,-0.23328803438589749,1.1492557529474048,-0.31055887804961013,-16.909906193946593,44.53498422945629,30.235033791671803
1760680829.185627,-7.260060286459583,-0.22368882137936838,1.2058127907482423,-0.30649367730793764,-18.196457987560027,44.23858250895635,29.90773502247242
1760680829.1951287,-6.993099219864666,-0.20600558786964396,1.2611460531380618,-0.29085074229843333,-19.498373391515635,43.18005460512628,28.979641971806426
1760680829.2050626,-6.734252747109275,-0.180422154714425,1.3114790896637742,-0.2629633898428285,-20.846032051541165,41.402302270162885,27.339167221614286
1760680829.2153099,-6.48924725253533,-0.147941845061223,1.3530325122588034,-0.22370464730567857,-22.274741638699776,39.00964664335629,24.909926451712217
1760680829.225167,-6.2645629649481105,-0.1103859748944024,1.3824064350874823,-0.1755370772464775,-23.81598199726654,36.16153635474385,21.664734251472222
1760680829.235305,-6.067097120111067,-0.07031602056157682,1.396944914095691,-0.12232043758731154,-25.487296434651164,33.0576219120209,17.634069210335625
1760680829.2453127,-5.903802648360883,-0.030877998504007968,1.395035663694829,-0.06887602008930055,-27.28260207449736,29.915125716373964,12.906710266703168
1760680829.2550867,-5.7813647893350435,0.0044283860913586276,1.3762982481334702,-0.020352104245112183,-29.16479598276305,26.94130604743635,7.621518475325393
1760680829.2652454,-5.7059660693494285,0.03204833709658285,1.3416254064504878,0.01851730129327864,-31.06230034116093,24.305279022954206,1.9509544821402756
1760680829.2749777,-5.683165391159313,0.048722897436091206,1.2930682850737223,0.044132940978077156,-32.8706772371644,22.11388442101682,-3.921432045137456
1760680829.285451,-5.717885893666742,0.05186481993489831,1.233589857638588,0.05459330652239229,-34.459738714616236,20.395480328921153,-9.825964764596579
1760680829.2952614,-5.814476799230624,0.03991838807297795,1.166737621272662,0.04998555017524243,-35.68574913262725,19.093917056947003,-15.629913831805862
1760680829.3052456,-5.976794191168568,0.012651618670883458,1.096295760461602,0.032339160487611936,-36.40743696729821,18.073131600351573,-21.254324044793822
1760680829.3150258,-6.208239832096151,-0.02867420310903345,1.0259676306697565,0.005244934891232147,-36.503721485560185,17.13136566080976,-26.68105709033476
1760680829.3253634,-6.511707199435449,-0.0813063271666568,0.9591200383458612,-0.026785245424400944,-35.89047893134018,16.02316809607754,-31.948096642772953
1760680829.335246,-6.889406831358615,-0.14120445951108404,0.8986011908403356,-0.0590828696724829,-34.5335029247539,14.486994543083092,-37.13329184033561
1760680829.3452096,-7.342573161053955,-0.20344784522678983,0.8466290825970383,-0.08755086446880951,-32.455235491774545,12.276064094483539,-42.32900701193608
1760680829.3553767,-7.871086121164681,-0.2628063544130307,0.8047369914675828,-0.10921277106836709,-29.733947143835202,9.189877808553499,-47.61216611527862
1760680829.3652973,-8.473066488293531,-0.31439290670815034,0.7737589719038639,-0.12249448416602732,-26.495625159221426,5.103330590787261,-53.01543540444584
1760680829.3752007,-9.144518849180953,-0.3542851501776103,0.7538431279528963,-0.12721953827122764,-22.90034552553056,-0.010188991196232788,-58.5053673424177
1760680829.3852088,-9.87909861586215,-0.38000608677597525,0.7444916516267451,-0.1243631996107809,-19.125785603754892,-6.065530103724551,-63.97218584280417
1760680829.3950057,-10.668070180249005,-0.39078352806346184,0.7446349754428302,-0.11565474865910394,-15.350589704359793,-12.865600017593117,-69.2338629488108
1760680829.4052138,-11.500500696959914,-0.3875474038509831,0.7527451597432492,-0.1031330788973977,-11.739747058294288,-20.115941220229175,-74.05462906863234
1760680829.4152534,-12.363697818128704,-0.37266207853058203,0.7669828083750296,-0.08874791543978452,-8.433305389737125,-27.453288958731473,-78.17541086311292
1760680829.4251251,-13.243858136549772,-0.34943528259597195,0.7853610670653656,-0.07406714078281457,-5.5388629542645,-34.48462241745617,-81.351349754701
1760680829.43529,-14.12686093089007,-0.321497262004431,0.8059058250869733,-0.060114747894458254,-3.127578091622426,-40.83093621150084,-83.39009612812677
1760680829.4453,-14.999127648984816,-0.2921822183602709,0.8267937839623689,-0.047335274985836596,-1.2331113896819648,-46.168625485374314,-84.18435663416567
1760680829.4552906,-15.84846659524902,-0.26404367246856475,0.8464576594882286,-0.035663187299535624,0.1470301499805602,-50.26142711075395,-83.73311047117666
1760680829.4652648,-16.664824947267366,-0.23859389967385733,0.8636568779874074,-0.024668061486793638,1.048085212247532,-52.97761993316634,-82.14769779941456
1760680829.4753587,-17.4408742877203,-0.21629722034786156,0.8775171356583602,-0.013744635631012157,1.5328066199130321,-54.290453541047206,-79.64136008214096
1760680829.4852588,-18.17236707884394,-0.19679197497543716,0.8875400036031678,-0.0023166127675713637,1.6847060884035474,-54.26351408606847,-76.50353531311056
1760680829.4949796,-18.85822541710104,-0.17927652561812119,0.8935787665728265,0.009977712581972602,1.6002572696916038,-53.025604556684584,-73.06289639843389
1760680829.505298,-19.50035819484474,-0.1629686195158246,0.8957774376425454,0.02315061503958881,1.3807586706078383,-50.740983881028505,-69.64523032457306
1760680829.5149763,-20.103239087842244,-0.14753263721092777,0.8944799763369549,0.036810619637836044,1.1246715010234953,-47.580701228121356,-66.53324457879827
1760680829.5251596,-20.67330452386518,-0.13337030527136223,0.8901298409499453,0.05020717265049222,0.9211285835812407,-43.69993942224257,-63.934904467893986
1760680829.5353756,-21.21824219679552,-0.12169512404975352,0.8831849663230775,0.06237025502857133,0.8449718867768609,-39.22507542469769,-61.96497432283567
1760680829.5454264,-21.7462386785439,-0.11436030920063263,0.8740649520377524,0.07231156304652578,0.9532941581595986,-34.252401624399646,-60.64154617366586
1760680829.5550318,-22.265246146817155,-0.11347423968228713,0.8631313973893657,0.07923064873836436,1.2832680914922878,-28.85797506054036,-59.89632084636599
1760680829.5653322,-22.782320158052908,-0.12089757797810052,0.850689336589922,0.08266606936380312,1.851166467188265,-23.115284951390557,-59.59506742009358
1760680829.5752423,-23.30307498854423,-0.13775244934257022,0.8369943318417299,0.08255216751936255,2.6528002466513,-17.115279227014508,-59.56346623675325
1760680829.5854158,-23.83129638666938,-0.1640722462437893,0.8222560381136786,0.0791775823088464,3.665825996012151,-10.982652833292693,-59.613439958992636
1760680829.5953894,-24.36873779172344,-0.19867966896172023,0.8066396422423926,0.07307609327174737,4.8542124462149285,-4.8834642982800105,-59.565838740171316
1760680829.605303,-24.915103928013114,-0.23931624010490146,0.7902740208252557,0.06489961738032424,6.1745770794719155,0.9783498806185849,-59.26664796976112
1760680829.6150076,-25.46820009407643,-0.2829830556742629,0.7732745995478744,0.05532030501873157,7.583372497106815,6.375082121334418,-58.59543736144528
1760680829.6250882,-26.024203256956756,-0.32640773882013285,0.7557809862779034,0.04498730399372802,9.043387015565962,11.077099233190571,-57.466316751616155
1760680829.635397,-26.577996982515646,-0.36653319198974604,0.7380020711487998,0.03453561603611886,10.527978971801103,14.878191400743846,-55.82299439061665
1760680829.6453238,-27.123508910269106,-0.4009304708664265,0.7202615737747009,0.024622127233815926,12.021942717854312,17.619968406108445,-53.63048033252484
1760680829.6552963,-27.653998250076697,-0.4280657332548763,0.7030437781228764,0.015954686571986988,13.518760168418371,19.211515559982512,-50.86641737805889
1760680829.6652586,-28.16226113474517,-0.4473889094057736,0.687043481752704,0.009285373922321673,15.014936969372984,19.64169686674434,-47.514869708376565
1760680829.6753058,-28.640750907200168,-0.45925057384501483,0.6732187497537672,0.005355398481942121,16.502854136383263,18.98280616498036,-43.564638677348654
1760680829.6851041,-29.081643654676057,-0.4646887538442421,0.6628321394651603,0.004798694750537997,17.963902110865437,17.38547793662228,-39.012929760274275
1760680829.695101,-29.47690881637537,-0.4651519740443964,0.6574546549016675,0.008025221989012087,19.36358682682637,15.065782495057398,-33.87374202430588
1760680829.7052207,-29.81846068114157,-0.46222962566499703,0.6589037137557847,0.015108763762509088,20.64989937299993,12.286226219381993,-28.189025544699803
1760680829.7152877,-30.098460646894882,-0.45744353518805175,0.6690927760145642,0.0257002308528226,21.75564415041413,9.332923530785338,-22.039729074814367
1760680829.7252493,-30.309809045324734,-0.4521229144712027,0.6897840844444042,0.03898175048110975,22.604728929677098,6.491417020608747,-15.553519089439506
1760680829.7352343,-30.446813142175746,-0.44735138509780953,0.722256181588899,0.05367244115240573,23.121720277957785,4.023431807641333,-8.906279629381784
1760680829.7451334,-30.505955700215296,-0.44395222895940367,0.7669241213025614,0.06809307365244775,23.243355163658304,2.1463448769079023,-2.3154771902207645
1760680829.755277,-30.486632007579693,-0.4424742576303503,0.8229794771399361,0.08029190881945882,22.93029527591751,1.01656919907262,3.975078639941436
1760680829.765433,-30.391689438186898,-0.44315560340133114,0.8881412559132118,0.08822717700749269,22.177323977383974,0.7176463651864493,9.717921629656873
1760680829.7754233,-30.227607512026182,-0.4458702675995666,0.9586167680833135,0.08999278243784835,21.02043042026716,1.2537130441975841,14.689387345567274
1760680829.7853358,-30.004206640012388,-0.4500922179200304,1.029353879560635,0.08406244519554201,19.539676009449547,2.549045898681097,18.717985514058025
1760680829.795194,-29.733864597808875,-0.4549279323041863,1.0946166980100287,0.06951518241188659,17.857193180893482,4.454342667452079,21.709177141169885
1760680829.8050606,-29.430327098456385,-0.4592526692623305,1.148835196367711,0.04619846845664975,16.12997326322282,6.76002577623022,23.662121812150477
1760680829.8152583,-29.10728731633135,-0.4619362884266376,1.1875784536330867,0.01479372655790737,14.537268238118724,9.216072581708824,24.674922716081404
