timestamp,angle,linear_acceleration_x,linear_acceleration_y,linear_acceleration_z,angular_velocity_x,angular_velocity_y,angular_velocity_z
1761283378.1824296,-6.439172228887351,-0.1715984507116782,0.9693995169162475,-0.29712559301040736,11.640335168372186,8.732912248441464,20.81142699864055
1761283378.1927874,-6.353571435790863,-0.13528947820460432,0.9804539344392913,-0.289066675241818,11.526577793663277,6.0675613574959835,21.153446542681856
1761283378.2021532,-6.235624210605129,-0.09515762448659838,0.9936316508633568,-0.2803316121084238,11.548749521453136,3.53921370065082,21.42601017582736
1761283378.2121701,-6.084374796144537,-0.054633442100911915,1.0075109216952334,-0.2713724819127741,11.683204509975088,1.1560934300062726,21.65283018318978
1761283378.2224264,-5.900849882974671,-0.016991579945710236,1.0204000705720313,-0.262731359598295,11.87562439551194,-1.0906934568578046,21.84918515398374
1761283378.233068,-5.687710999170912,0.014930433185086092,1.030614289516882,-0.2549890648067212,12.05191032138825,-3.2099647309064165,22.021162422212146
1761283378.242978,-5.448896089851152,0.03900806845868998,1.0367686201061739,-0.24869542480404583,12.131860218072672,-5.197670448857715,22.166279946576672
1761283378.2525911,-5.18925914727119,0.054052039410750936,1.0380250344493285,-0.24429519080951165,12.043261568846999,-7.030952630134665,22.27480222761012
1761283378.2625396,-4.914208562202797,0.05991557729200034,1.0342324942225734,-0.2420662840960529,11.733979698234284,-8.669318136558708,22.331407777856523
1761283378.2721004,-4.629344344148243,0.057446840036637484,1.0259270953726805,-0.24208386322457345,11.180069563165592,-10.061319746369056,22.317278931824276
1761283378.2820847,-4.340099896135621,0.048293424278183686,1.0142037475427663,-0.24421463775378185,10.388799191966118,-11.15420538682209,22.212840101222998
1761283378.2924762,-4.0514032106443345,0.034607951729630916,1.000504621905634,-0.24813695144960238,9.396486948401005,-11.903971496004988,22.001188598959075
1761283378.3022163,-3.7673810710379465,0.018720307579356166,0.9863788044859145,-0.2533788324674183,8.26194656033119,-12.283781322363243,21.67188732256698
1761283378.3120935,-3.491135231140533,0.0028344711522661913,0.9732591255006305,-0.25936739111702944,7.056949034985175,-12.289441302161384,21.224440637503168
1761283378.322111,-3.2246193897801234,-0.011211303239661451,0.9622875914797173,-0.26548469424680965,5.855428712947759,-11.941337109731991,20.670638627773027
1761283378.3321135,-2.9686373682597136,-0.02210129495228437,0.9542059615111136,-0.27112581171465944,4.723204077018663,-11.282803360566213,20.035093827683067
1761283378.3421948,-2.722966939602399,-0.0291113985045631,0.949315073568409,-0.27575451707522486,3.7097606815873716,-10.375344570549712,19.353636185962415
1761283378.3522494,-2.486596044394021,-0.03209779241812102,0.947496935049053,-0.2789519275262451,2.8431816303852595,-9.291483723601127,18.669651459412005
1761283378.3623555,-2.2580446018460107,-0.031422073496028206,0.9482871921705557,-0.2804535556140326,2.128694026973964,-8.106282295671916,18.0288433399441
1761283378.3721418,-2.035736951820925,-0.027834968308760845,0.9509813779143848,-0.2801707906741015,1.5506534470206215,-6.8887048939451505,17.473199154975585
1761283378.3822546,-1.8183841842893673,-0.022340331085371957,0.9547562614980077,-0.27819383125349567,1.0772489542304524,-5.693965802758275,17.035093758999892
1761283378.3922725,-1.6053297865109648,-0.016056426140199156,0.958788344887681,-0.27477473704102967,0.6668820465629964,-4.557809748202114,16.73245560758111
1761283378.4025288,-1.3968077813511748,-0.010085659306336531,0.9623549669096112,-0.27029140126345647,0.27508139298314516,-3.493383095526171,16.56575401375992
1761283378.4122634,-1.1940650523206273,-0.005399910544831189,0.964908407101737,-0.2651955244303673,-0.13908325618528414,-2.4909820431833394,16.517282293422046
1761283378.422082,-0.9993141735243801,-0.0027476169911564044,0.966118402129199,-0.2599500541143494,-0.6078975429516196,-1.5205617787701315,16.552858579568255
1761283378.4321008,-0.8155111984360742,-0.0025897947618420732,0.9658828117465907,-0.25496426076973056,-1.1517249165771821,-0.5365172926045251,16.6257025080945
1761283378.4421396,-0.6459897984775215,-0.005072852654320496,0.9643096314453315,-0.2505372425187245,-1.7777601330486004,0.5160191754332373,16.68192697344224
1761283378.4520998,-0.49401813917596255,-0.010043598805206224,0.9616759441587299,-0.24682128702263656,-2.480729564543114,1.6942206448418686,16.666854390104046
1761283378.4623141,-0.3623636855913988,-0.017104464508872565,0.9583707879117699,-0.24381289186991892,-3.245199219229547,3.050735353812028,16.531258452130107
1761283378.4721541,-0.25294353057955304,-0.025696237200071186,0.9548299033196499,-0.24137178687271443,-4.048941907236252,4.62757705393696,16.23666754288878
1761283378.4820948,-0.16660773145126268,-0.03518781031009163,0.9514708071305631,-0.23926131961866734,-4.866688023990186,6.45108930084769,15.75905273881892
1761283378.4921157,-0.10306865736469159,-0.04495415895008798,0.9486355889093336,-0.237201392424071,-5.673587387578076,8.528136246726005,15.09053312922371
1761283378.502101,-0.06096789008663771,-0.05443424662810243,0.9465465107723271,-0.2349270206955908,-6.447857171496939,10.843560052630755,14.239087897316319
1761283378.5121036,-0.038065575505843684,-0.06317144397467951,0.9452778977714625,-0.2322471929292972,-7.17234263766119,13.358929439443342,13.226579934847877
1761283378.5221846,-0.031533806424941344,-0.07084252805345818,0.9447480664958542,-0.22909846743279427,-7.834990297104117,16.012648949711654,12.085612607535952
1761283378.5321114,-0.03832478462389043,-0.07727677503564405,0.9447357680633185,-0.2255870047153673,-8.428446773665737,18.72153557470164,10.855837247101443
1761283378.5421472,-0.05556373586202687,-0.08245824209760666,0.9449240743045969,-0.22201105674362692,-8.949110387490283,21.383950606625387,9.580301350153018
1761283378.552633,-0.08089080918312429,-0.08649690906067561,0.94496912321646,-0.2188521590640602,-9.39597724781924,23.88452758146625,8.30228894252561
1761283378.5625226,-0.11265613018414324,-0.08955334183491158,0.944583273563964,-0.2167203982918673,-9.76957257336682,26.10053829972389,7.062878674248299
1761283378.5723789,-0.1498740043433524,-0.0917136902125778,0.9436170522649281,-0.21624364963441733,-10.071185946540357,27.91000940957314,5.899156844648848
1761283378.583868,-0.19188636675476786,-0.09284137973977957,0.9421253935870423,-0.2179071686806502,-10.30255370566139,29.20173091453098,4.842706530233879
1761283378.592908,-0.23778316402558436,-0.09246916776608725,0.9404070779417266,-0.22187630873351094,-10.466038884110652,29.887071596296323,3.917740996474628
1761283378.602204,-0.2857526584092504,-0.08981001639174982,0.9390050060106081,-0.22785972394626683,-10.565248782850473,29.912855427970438,3.1382443120182635
1761283378.613619,-0.3326193087783572,-0.08392871425758715,0.9386529744617139,-0.23507315534450732,-10.605934805157371,29.27350425177431,2.503933868830609
1761283378.622836,-0.3738076502081566,-0.07404004336356233,0.9401667128498239,-0.24233124982440224,-10.596964271642719,28.01961751903323,1.995785741141909
1761283378.6325042,-0.4038455955147435,-0.05983518783523133,0.9443052438947843,-0.24824194400765187,-10.551136005508763,26.259809555633012,1.5728825770340802
1761283378.6421642,-0.4173484800485774,-0.041726762353320145,0.9516496388288913,-0.2514422771297661,-10.485640471109644,24.153524426470117,1.1727735187053854
1761283378.6521354,-0.41027635265712553,-0.020939268272482395,0.9625353828857706,-0.25081533691990765,-10.422064174604348,21.894658925754104,0.7168661819255997
1761283378.66216,-0.3811736235145423,0.000576025457593046,0.9770375621777161,-0.24564859015944965,-10.385958084644793,19.68829724047492,0.12074312382115245
1761283378.6721325,-0.3320912627710392,0.0203806446296262,0.9949770666459206,-0.23571285561248287,-10.406025368933339,17.72452867856665,-0.6924812285398425
1761283378.682175,-0.26895076648068944,0.035896462450617825,1.0159165220515605,-0.22125780900930428,-10.512910672966044,16.15359655023417,-1.778679257253868
1761283378.6937644,-0.20122771628246142,0.04479867512025383,1.039141176416055,-0.20293840900320637,-10.737478655090689,15.065889562023226,-3.1619998558266205
1761283378.7024665,-0.14099280673694897,0.04537888747731742,1.0636457780022741,-0.18170078145964016,-11.108444610667375,14.479309886507407,-4.829054134534053
1761283378.7126822,-0.10150605160910961,0.03680211777623065,1.08815498639276,-0.15865813858458477,-11.649289536659326,14.335693753666918,-6.729019755179248
1761283378.722745,-0.09565720412044205,0.019204926662401704,1.111193691818423,-0.1349779043804844,-12.37452922391457,14.507015700382345,-8.779516648772494
1761283378.732707,-0.1345479819240725,-0.006374467149440933,1.1312061097419968,-0.11178731472107885,-13.285588226089791,14.810807720563178,-10.877081329071427
1761283378.7421505,-0.2264337689886451,-0.03819997588714728,1.146707249684226,-0.090094217646934,-14.366772889679872,15.032697092433892,-12.910397942730857
1761283378.7524483,-0.3761299852603827,-0.0741166752049559,1.156440827999066,-0.07071696131329766,-15.582155307881626,14.952689150473361,-14.774231489909964
1761283378.7621305,-0.584883823057263,-0.11184379099224798,1.1595166728647353,-0.05422117510019562,-16.87447693891249,14.371233564451472,-16.382170022220116
1761283378.7729084,-0.8506370788817438,-0.14923144082668996,1.1555093739199018,-0.040868236924997525,-18.16724600646398,13.131338395757547,-17.676650611501447
1761283378.7821505,-1.1685644459793143,-0.18444583343376178,1.1445122404267172,-0.030586000655192052,-19.370846961574845,11.133885970656788,-18.635216475422126
1761283378.7952054,-1.5317597350481003,-0.21606270787740325,1.127147563243563,-0.02297280643325812,-20.392683744515654,8.344624738663152,-19.2725008740892
1761283378.8025753,-1.9319541875771626,-0.24306730550291092,1.1045347293138665,-0.017340141756429738,-21.15033263323082,4.792813469613434,-19.63799801338866
1761283378.8120968,-2.3601810299625554,-0.2647819258564872,1.0782175279242183,-0.012791873871030864,-21.585718799944548,0.5628779444449848,-19.81016282722637
1761283378.8221934,-2.8073418490320368,-0.2807613386965353,1.0500540163030918,-0.008333479012109927,-21.67778120344445,-4.218594424133204,-19.88772785269212
1761283378.8321466,-3.264672669356251,-0.2907029467429894,1.022075331400485,-0.003003031380586242,-21.4511206533105,-9.397813008716057,-19.979347805836355
1761283378.8428319,-3.7241383611060845,-0.2944102767655316,0.9963224923802388,0.003986847092092717,-20.978702678182056,-14.808179091547029,-20.192788636318674
1761283378.8521419,-4.178793090039453,-0.2918278709044085,0.9746728070882111,0.013112414291489132,-20.377646261368493,-20.282280407431788,-20.624843486285204
1761283378.862143,-4.623128604402985,-0.2831382635495078,0.9586703167216886,0.024430654077992955,-19.798249253325235,-25.66066772511452,-21.352965966628677
1761283378.8737178,-5.053398757466077,-0.26888621090862047,0.9493768536115987,0.037526377573311884,-19.407455181107625,-30.797690328118904,-22.429291184458805
1761283378.8821442,-5.467874446716941,-0.2500810327096578,0.9472609520221503,0.051537829203451256,-19.368788958925627,-35.565452248104926,-23.877344476267936
1761283378.8921275,-5.866964768385096,-0.22822888320426304,0.9521412213316489,0.06527036001976205,-19.821311768606087,-39.85710536713202,-25.69141022990811
1761283378.9021728,-6.253145992089671,-0.20526131731229938,0.9631976770345091,0.07738581597078907,-20.860361502426837,-43.590168189222496,-27.838310830493466
1761283378.9121096,-6.630668341276996,-0.18335131569794652,0.9790560902677578,0.08663185843059419,-22.522743233861465,-46.70962707848764,-30.261226409832123
1761283378.9221117,-7.005052249339044,-0.16463771955778347,0.9979362316810485,0.09205982801703352,-24.77856811930043,-49.18974031123231,-32.88510828373514
1761283378.932122,-7.382427021602164,-0.15090363259429548,1.0178396303069943,0.09318086880577063,-27.53107304976437,-51.03319408764396,-35.62312751028679
1761283378.9421496,-7.768792657702719,-0.14326460886565817,1.036743280230588,0.09002973982394366,-30.62455152914967,-52.26668132639308,-38.38343964940927
1761283378.9521177,-8.169294601871595,-0.1419206984742754,1.052766394058138,0.08313381641910625,-33.85920058178951,-52.93282194981408,-41.075428713753745
1761283378.9621267,-8.587595830546174,-0.14602214369923433,1.0642862573054819,0.07340683565487889,-37.0105583874052,-53.07926236827602,-43.61464990548948
1761283378.9721246,-9.025418679262728,-0.15369297838818852,1.0699934846638255,0.061998204682324635,-39.85060639141704,-52.74661009980524,-45.925959704325244
1761283378.9821131,-9.48231323073442,-0.16224113381461272,1.0688933421549356,0.050132995401342834,-42.16773472681307,-51.95752319455011,-47.94470464722735
1761283378.9921083,-9.955687583183204,-0.16855130587555103,1.0602725328070959,0.038975656360820475,-43.78350005742003,-50.70963455063648,-49.616211802017304
1761283379.002105,-10.441105193296941,-0.16961141441954478,1.0436552796318377,0.029538631439097456,-44.565013330314976,-48.97475755224673,-50.89414762323387
1761283379.0120952,-10.932817524077581,-0.16307885686595386,1.0187705886720717,0.022638133221078233,-44.4324593668538,-46.70575222834989,-51.738601865494054
1761283379.022087,-11.42446395213729,-0.14776996614651547,0.9855488975262207,0.018883603645076113,-43.36157082013213,-43.85061819242949,-52.11495032723207
1761283379.0321336,-11.909845689825735,-0.12397182667844951,0.9441612649708236,0.018682918375522686,-41.381091299795884,-40.37135052657093,-51.994505449830015
1761283379.0425203,-12.383673573097282,-0.09352508528512075,0.8951046059431084,0.022249986985562388,-38.56566691013087,-36.26361110652151,-51.35755924737675
1761283379.0526729,-12.842200003178245,-0.05968198603698836,0.8393209781835211,0.029606832082378083,-35.02524228263004,-31.57290163669329,-50.19868518158901
1761283379.0623467,-13.283665450519493,-0.026777813483673817,0.7783205740608616,0.04057463352525609,-30.89259849713466,-26.403731261746813,-48.533290991325785
1761283379.0720918,-13.708512894875975,0.00023813398336844819,0.7142623914051285,0.054751170447651876,-26.31077995794647,-20.91983125664048,-46.403719763803544
1761283379.0821054,-14.119348931737973,0.016366451228793006,0.6499402521299037,0.07147920241720822,-21.421739533904574,-15.335197464454549,-43.8829964854301
1761283379.0922093,-14.520661153009524,0.017163277551724507,0.5886314993178888,0.08981928900984694,-16.356872252930618,-9.89717906888477,-41.07475255041863
1761283379.1023335,-14.918336696361758,-0.0006795443051289842,0.5337936441828675,0.10854642817423119,-11.229606952460866,-4.863780231662063,-38.10876779414923
1761283379.1121247,-15.319056537669647,-0.03885389565622361,0.48863570581473265,0.12619036689698657,-6.1301327059332635,-0.4778557108988303,-35.13253224309112
1761283379.122105,-15.729648123046946,-0.09711806406071272,0.45563742044539357,0.14113403068883978,-1.1226279995445225,3.058841680369697,-32.299861898296626
1761283379.132142,-16.156454525025797,-0.1731800387559389,0.43612953469630894,0.1517727647806077,3.754294765148707,5.6086208619921685,-29.757831156291772
1761283379.1421432,-16.604732006059578,-0.262788112272158,0.4300613546434024,0.15672074050316162,8.48331856365604,7.114633496239222,-27.633293432546814
1761283379.1521049,-17.07805514027658,-0.36001625521364733,0.4360427981072017,0.15503454300534283,13.060530340819232,7.608583044020775,-26.02019859902448
1761283379.1621013,-17.577724218839776,-0.4577317764821324,0.4516580400830431,0.14641132895692258,17.48535579907222,7.207311396037895,-24.968784968744348
1761283379.1720963,-18.10223160586789,-0.5482399569163487,0.47394977007851324,0.1313124048326622,21.75077971987834,6.09771247207813,-24.477529378997836
1761283379.1820889,-18.64690948258261,-0.6240882828583169,0.49992216543096213,0.11096714236047873,25.836565426873076,4.511478130240733,-24.488572734428768
1761283379.1921012,-19.203902189103705,-0.6789655437563445,0.5269292109357886,0.08723232212105655,29.707539792944612,2.693366773446268,-24.8872886700026
1761283379.2021823,-19.762560981617725,-0.7085622703009969,0.5528855522680707,0.06231843940910753,33.31767090194859,0.8682956921098927,-25.50669097659121
1761283379.2123406,-20.310259367998217,-0.7112098957047963,0.5763241387350589,0.03843727164381229,36.61902064793786,-0.7870399001462159,-26.137289797508522
1761283379.2221208,-20.833506918176713,-0.6881314766472109,0.5963894773610926,0.01745529819734806,39.57307519532878,-2.163291930857746,-26.542583147066562
1761283379.232732,-21.319145849542465,-0.6432293950518371,0.6128622338528905,0.0006380060461983698,42.16081123395846,-3.2255813722876505,-26.47956612020555
1761283379.242143,-21.755394099589058,-0.5824643976648699,0.6262514461415365,-0.01146069573237264,44.38766514493615,-4.0082239908795,-25.722712233498463
1761283379.2524896,-22.1325639972801,-0.5129790337076054,0.6379048680220462,-0.018955380766202654,46.28082211922257,-4.598762466086749,-24.08920080209108
1761283379.2626278,-22.44339972838155,-0.4421488716473048,0.6500389518633024,-0.022465257496884845,47.878818034495794,-5.114407272828721,-21.462860492339487
1761283379.2721784,-22.683081607244922,-0.3767167795689539,0.6656046545757264,-0.022889604443598516,49.21636208353175,-5.674642038604043,-17.814181216139797
1761283379.2823987,-22.849004740953724,-0.3221117773315013,0.6879593114733789,-0.021190740413111763,50.30918953259407,-6.373986547526428,-13.213616659348773
1761283379.292129,-22.94045040748356,-0.2820007551700176,0.7203718314586146,-0.018240649024238244,51.14379767609301,-7.259074863527928,-7.835350165697491
1761283379.3027413,-22.958244087468636,-0.25807939413758646,0.7654308320410506,-0.014759088277753256,51.67524246478404,-8.314246192177992,-1.949062567894698
1761283379.3125803,-22.904452081483438,-0.25007849693998657,0.8244516123924062,-0.011335724663571968,51.83366237209705,-9.459296955635102,4.101673138900118
1761283379.3225622,-22.78212553668791,-0.2559433867085588,0.8969901119814143,-0.008498432287698879,51.53786185027201,-10.561392583737387,9.933881578010132
1761283379.33212,-22.595070651387385,-0.27214025286384386,0.9805699150501933,-0.006777154233537079,50.7127840352453,-11.46028351713536,15.169680646191113
1761283379.342132,-22.34761604971341,-0.2940556849677559,1.0707094596535782,-0.0067240976936106,49.307216163058946,-12.002454012933631,19.48549412415476
1761283379.3526444,-22.044363551206025,-0.31647564976524106,1.1612983514226616,-0.008879667688942558,47.3084563363674,-12.076736314619154,22.65886045013863
1761283379.3621573,-21.689937487050656,-0.3341406675424619,1.2453138119950877,-0.013703146763510142,44.75161773322246,-11.642507920295728,24.604967124823478
1761283379.372414,-21.288773510554478,-0.34236032322762505,1.3157949984240602,-0.021503016978223828,41.722391794922025,-10.742788664870249,25.395704196268383
1761283379.382138,-20.844993395789945,-0.3376309241064706,1.3669139343136874,-0.032397750737928395,38.35310235775963,-9.498397964411271,25.25621984866738
1761283379.3935432,-20.36239013764272,-0.31815080069133456,1.3949164935336549,-0.04631559607334387,34.81255738101794,-8.084652305010069,24.53745255155466
1761283379.4026287,-19.844506524533507,-0.2841013638635099,1.3986913317312588,-0.06301124588518482,31.29057950817644,-6.696891286348119,23.66733901333584
1761283379.4121532,-19.294753996454684,-0.2375952505428237,1.3797986875494581,-0.082060257384668,27.97843774008092,-5.513546688347397,23.087580746563287
1761283379.4221945,-18.716515916784292,-0.1822921261207939,1.3419542258543318,-0.10281242178444311,25.046984577047798,-4.664742251006394,23.186105539973084
1761283379.4321406,-18.11322443445274,-0.12280052148504848,1.290147264814003,-0.12433813491000233,22.625136303427123,-4.211371910366361,24.236786196519887
1761283379.4422336,-17.488470405301133,-0.06404685405600659,1.229680405522109,-0.1454431338953762,20.78212482935779,-4.136215776320187,26.35697271223209
1761283379.452176,-16.84624691037292,-0.0107618157813562,1.165396268355701,-0.1648119522519562,19.51724882660054,-4.346597602299364,29.48999056007833
1761283379.4621718,-16.19139423110088,0.03286251831446129,1.101233634774057,-0.18127086619418484,18.76021800646095,-4.68759246307329,33.41475665304345
1761283379.472168,-15.53021388137087,0.0633858622904662,1.0401079580923795,-0.19408509446345085,18.383397181312656,-4.964777443733018,37.779439109675174
1761283379.4821427,-14.871104547078824,0.07828116478739293,0.9840131947527072,-0.20317331522523085,18.224558068192763,-4.974780156982934,42.15207610547318
1761283379.4923842,-14.225002978895795,0.07609567849162666,0.9342203075533004,-0.20915097731598156,18.115890510881272,-4.540166442401522,46.07913063045669
1761283379.502136,-13.605417403974805,0.05660800043596217,0.8914812790064661,-0.21318192890458731,17.91305244153809,-3.5433408589306006,49.143051996699505
1761283379.5121176,-13.027912562621976,0.020935349907365015,0.856195629717413,-0.21668965124753145,17.51784713157741,-1.953291578350591,51.011402455423855
1761283379.5221221,-12.50901636171448,-0.028464366270258726,0.8285301218256073,-0.22102328930029014,16.889949837765062,0.16013212972415183,51.4722943924426
1761283379.532163,-12.064638197104458,-0.08793192332671221,0.8084951465351704,-0.22717520158408427,16.046291580187468,2.6273770822337323,50.453292080109556
1761283379.542165,-11.708193784260429,-0.15288950383903063,0.7959831942476827,-0.23561317228007622,15.049975044282451,5.195747151651381,48.02327157322233
1761283379.5526674,-11.448703632199967,-0.21823500641555152,0.7907768536036639,-0.246243837593031,13.992781539754613,7.558611380251921,44.37879461391525
1761283379.562694,-11.289161414013918,-0.27879516131732635,0.7925376276307128,-0.25848605070488095,12.975906695547192,9.392682336870367,39.81813971403039
1761283379.5725288,-11.225448682743115,-0.329779774985761,0.8007876794546969,-0.2714136101482778,12.092752777736331,10.398067921536411,34.70709178289578
1761283379.5827281,-11.24600313698017,-0.3671860981313469,0.8148922614591013,-0.28392456220205975,11.416097840543419,10.33598709143871,29.44090201796883
1761283379.592706,-11.332337563281358,-0.3881146225674519,0.8340446644449275,-0.29490453770527614,10.990473034633032,9.05978693204853,24.406608668976148
1761283379.6021154,-11.4603754265203,-0.390972210458228,0.8572534098741242,-0.3033683370611272,10.829500443826168,6.535941451230876,19.94932522330079
1761283379.6121905,-11.602442378178953,-0.3755533104322218,0.8833351531844678,-0.30857700475264305,10.917329100565752,2.852902796670662,16.345309951435823
1761283379.6223724,-11.729653998917312,-0.34300278769398457,0.9109233446290751,-0.31012833406358115,11.213077153816887,-1.7830935829008752,13.783719336340996
1761283379.6321049,-11.81438685427915,-0.29567311697814774,0.9385061547432617,-0.3080108192755798,11.657237213855858,-7.064947704879272,12.357944234220035
1761283379.6423318,-11.832524397000103,-0.23689503762573777,0.96450323143429,-0.30260739290051736,12.17917981298111,-12.612773791897984,12.066383636969078
1761283379.6521182,-11.76523166144107,-0.17068523872028527,0.9873803771395865,-0.29464252128370766,12.705046069009509,-18.010299074820985,12.821551931610802
1761283379.662118,-11.600114570297944,-0.10141641283886105,1.0057891629300253,-0.28507898085560196,13.165398232669226,-22.84557686227413,14.46568011789035
1761283379.6721172,-11.331728454334723,-0.03347365200179942,1.0187095577622372,-0.274980850735674,13.502030546685507,-26.75124768812641,16.790547130587825
1761283379.6821103,-10.961486699163055,0.029080512233906668,1.02556989723561,-0.2653645989754615,13.67337440780011,-29.43949469074143,19.55918154374097
1761283379.6921089,-10.497071586398471,0.08280858241537911,1.026320395724709,-0.25706213730894023,13.65797967140934,-30.727493310120785,22.52725734465824
1761283379.702122,-9.95146854093011,0.12514045889623582,1.0214437713078344,-0.2506190735026417,13.455653429904768,-30.550439809142595,25.46238432895182
1761283379.7122126,-9.341742892359536,0.15452780030746038,1.0118979381105184,-0.24624691279185837,13.086047072977339,-28.960972002491207,28.15997302626666
1761283379.722148,-8.687667074196154,0.17049077304908775,0.9989983742315047,-0.24383829368232993,12.584818812686079,-26.11571306556339,30.454854098759657
1761283379.7321155,-8.010295614716167,0.17355373925043122,0.9842587680576583,-0.2430402514662414,11.997889659733724,-22.251435146859457,32.228301882709765
1761283379.7421212,-7.330579345576626,0.16508452621035719,0.9692152218209117,-0.2433659042615953,11.374633770987824,-17.65462913818598,33.410537966326
1761283379.7523222,-6.6681069979490335,0.14706525286686825,0.9552598554330389,-0.24431530903318163,10.76100574915217,-12.628884599727089,33.97916433925178
1761283379.7623136,-6.040056451275109,0.12182818000489044,0.9435045551249005,-0.24547514780112023,10.193579478149031,-7.464376657240162,33.95427228728372
1761283379.7721205,-5.4604233582474295,0.09178957522064218,0.9346877777778446,-0.24657425297368832,9.695282360523414,-2.4130045406353204,33.391169622812114
1761283379.7821038,-4.939567667472413,0.05921191436942875,0.9291302370597734,-0.24748549451470073,9.27331626395376,2.3284527300839772,32.371749282789374
1761283379.7922993,-4.4840796347984435,0.02602129779973847,0.9267404412138778,-0.24818199563588864,8.919426751952868,6.626120847762873,30.99547446260026
1761283379.8021388,-4.096923022245129,-0.006298567252202958,0.9270672078287923,-0.24867301871711456,8.612358009240852,10.407969048886816,29.370782947491875
1761283379.8121362,-3.777775231660953,-0.03672379696474248,0.9293916772904383,-0.24895347690731276,8.32204334158433,13.65522365260885,27.607452601348704
1761283379.8221297,-3.5234640929074486,-0.06462091322021941,0.9328461801607039,-0.24899310909720165,8.014867323489728,16.38848706061358,25.810191419599654
1761283379.8321528,-3.3284068152757906,-0.08960873433952633,0.9365433235228795,-0.2487708804585515,7.659215606468225,18.65140308121383,24.073496733304516
1761283379.8421328,-3.18498724805112,-0.11138443802449491,0.9396970331451957,-0.24834076992051482,7.2304885787544535,20.49487041131037,22.47770909951763
1761283379.8521435,-3.083853818183057,-0.12955533365954794,0.941718797588517,-0.24790588313160347,6.714792639705496,21.96443113311713,21.086157099909173
1761283379.862116,-3.014168539275125,-0.14351798450590364,0.9422778722277552,-0.2478780599174299,6.110674679002036,23.09261389734916,19.94332034623454
1761283379.8721201,-2.9638725430537285,-0.15241685546136347,0.9413220471587324,-0.24890540873847108,5.428557646728021,23.8969045355443,19.073998165808607
1761283379.8821435,-2.9200450482663944,-0.15519744938649807,0.9390610499236587,-0.2518568082593228,4.687937387310752,24.382919806235694,18.48352250283304
1761283379.892237,-2.86941816034393,-0.1507487663323946,0.9359156569906375,-0.2577582994338938,3.9128445969234797,24.551485213672883,18.159058327287795
1761283379.9028685,-2.7990732476815907,-0.13811133404338308,0.932436133220834,-0.26768118419369863,3.126473407411945,24.407766733643335,18.07196651893891
1761283379.9125178,-2.6972932636105793,-0.11671301686701548,0.9291985321982601,-0.2825862932189172,2.346124866866957,23.970396474884833,18.1810576133546
1761283379.9227884,-2.5544916048497974,-0.08658860140380872,0.9266958156651367,-0.3031353489590512,1.5796238294793474,23.278651032728696,18.43638651513564
1761283379.9323542,-2.3640971526583154,-0.04854204505727446,0.9252469858986836,-0.32949146588697165,0.8241185927240827,22.39615676816889,18.783118597214106
1761283379.9421337,-2.123257867142309,-0.004219128101792221,0.9249466447312974,-0.3611446917371451,0.06769766274055723,21.410234788164868,19.16499660371825
1761283379.9521205,-1.8332370056233727,0.04392912429946834,0.925669552713996,-0.3968058794704606,-0.70637552797009,20.426745936764764,19.527032395008987
1761283379.9621313,-1.4994196345981459,0.09279374937298823,0.9271337463891024,-0.4344054819640153,-1.513697369192636,19.56102763628117,19.81715865885336
1761283379.9721367,-1.1309156448130757,0.13884693503281956,0.9290144752666377,-0.47121617601694854,-2.3624997910080143,18.92613313309012,19.986650475365398
1761283379.9821312,-0.7398150484255246,0.17844358938888147,0.9310890580918355,-0.5040984598144422,-3.248900758815533,18.620050007980314,19.98921655794421
1761283379.9923542,-0.34019849409254793,0.20816192849577891,0.9333810481131349,-0.5298511743136265,-4.155096473874968,18.713854583613763,19.77889414342523
1761283380.0021343,0.052970162479485834,0.22516632690022895,0.9362668164688979,-0.5456327646075185,-5.051142565849086,19.242722484324094,19.307308648013297
1761283380.0121186,0.42493186297008706,0.22756166537971487,0.94051145835005,-0.5493981577936906,-5.899886108402466,20.201195070443198,18.52132714372614
1761283380.022289,0.7620717592405832,0.21467823228754318,0.9472108936583171,-0.5402670172990726,-6.663717587262343,21.5431363804972,17.362380351910588
1761283380.0322008,1.0526204054883912,0.1872131962445893,0.957634284323384,-0.5187194290089022,-7.3114302171367385,23.185771259566025,15.76858870380436
1761283380.0421436,1.2870900033756325,0.14718312016327298,0.9729884883779988,-0.48654091092664514,-7.823635137319751,25.01654825782021,13.680326939318602
1761283380.0521276,1.4584773316872308,0.09769706723993861,0.9941550172179122,-0.4465176033504927,-8.195734417205411,26.901570695360945,11.049110150561765
1761283380.0621157,1.56229631169874,0.042603742449427336,1.0214620017578468,-0.40196701715463795,-8.438201923686716,28.69485870003112,7.848795291015101
1761283380.0721083,1.596504092108005,-0.013922089103129563,1.0545420841897652,-0.35622615728284757,-8.574658063727084,30.24834132477335,4.087220004484253
1761283380.0821097,1.5613656364934891,-0.06779917805246691,1.0923007448969262,-0.3122032860737183,-8.63873574635513,31.422796929492463,-0.18421614893585744
1761283380.0921223,1.4592773488554467,-0.11542388622080516,1.132991172632912,-0.2720630785817179,-8.670858238201479,32.0997231573892,-4.865638014632998
1761283380.102126,1.2945503215485221,-0.15398526250114528,1.174370657328978,-0.23707732448772276,-8.71575886232888,32.19338792171534,-9.810540931597837
1761283380.112116,1.0731414947607334,-0.18168339830845662,1.2139048055758066,-0.20763541637239175,-8.82101256737534,31.661430014557936,-14.83537290394066
1761283380.1221097,0.8023168689927215,-0.1978314921989828,1.2489895276339287,-0.183374911158511,-9.036280577216475,30.511814530614817,-19.73630609085948
1761283380.132154,0.4902367116607121,-0.2028339196331668,1.2771708623051805,-0.16337658946970726,-9.41264508147484,28.804065541442725,-24.311041561853028
1761283380.1421223,0.14546894159179194,-0.19804737836770223,1.2963512968786992,-0.14637765228489835,-10.001433647629904,26.643542745237983,-28.38219684333625
1761283380.152153,-0.22354112222715586,-0.18554700015994793,1.3049738096416026,-0.1309799489455202,-10.852207056055224,24.168845061075082,-31.818239847998683
1761283380.162133,-0.6089968965696774,-0.16783094463014114,1.3021729760732668,-0.1158481027715978,-12.009935942719526,21.53385289210866,-34.5482824259972
1761283380.17212,-1.0042144770922423,-0.1475037478691069,1.2878797635892343,-0.09989458213488289,-13.511707308258643,18.887142172230135,-36.56823700281029
1761283380.182122,-1.4039680427003354,-0.12697989527970596,1.2628647993207158,-0.08243960231907584,-15.38351463376667,16.352234472128803,-37.93749915323571
1761283380.1924298,-1.8046735719399363,-0.10824447829153122,1.2287059857373752,-0.06332413487140441,-17.63770444696505,14.012158348441966,-38.76701676090041
1761283380.2021146,-2.2043894882895922,-0.09269766902728777,1.1876734128240864,-0.04295166184552132,-20.271423268617486,11.901031412536527,-39.20100316872967
1761283380.2121391,-2.602638741338011,-0.08109488977567061,1.1425368355977592,-0.022241235180752272,-23.266030484860316,10.004021662709,-39.39543317429384
1761283380.2221363,-3.0000820630427247,-0.07357792530100392,1.0963134883872416,-0.0024904060930900787,-26.587128025723953,8.265469540970217,-39.49674355888126
1761283380.2321198,-3.398092841081904,-0.06977930928672063,1.0519828558296214,0.014832641522434745,-30.184767572844727,6.603517689400468,-39.62387404733036
1761283380.2421727,-3.7982974734783053,-0.06897647797090813,1.0122002135056984,0.028330736691122172,-33.993542534703465,4.9285567579405765,-39.8560333107717
1761283380.2521365,-4.202149105955621,-0.07027128954274742,0.9790434951407434,0.03690880712099715,-37.93255463698542,3.1622654001988466,-40.22751182417467
1761283380.2621489,-4.61059598546093,-0.0727706666710297,0.9538278851718053,0.039955091224951576,-41.905535550088736,1.2540312106115032,-40.729680988167814
1761283380.2721336,-5.023888895244711,-0.07574506594965359,0.9370168048542857,0.0374464266696093,-45.80160403256134,-0.807928588442408,-41.31921273195019
1761283380.282169,-5.441548639357244,-0.07874611040853433,0.9282438204755331,0.0299668885774438,-49.49719767720412,-2.9924706207309177,-41.93069027284926
1761283380.2921407,-5.8624893729494705,-0.08167394778658545,0.9264386716125109,0.018642765447738494,-52.85963817583981,-5.228997910968665,-42.49127269043686
1761283380.302157,-6.285270973508811,-0.08479464290340986,0.9300293160140372,0.005008281419898908,-55.752607339341054,-7.417877673976209,-42.93497863505483
1761283380.312181,-6.708435511515677,-0.08871205122923632,0.9371794488731163,-0.00917485401701684,-58.04354980907904,-9.44618047331981,-43.2144569307028
1761283380.3223274,-7.1308695906713035,-0.09429514828383943,0.9460213671479566,-0.02211656578727095,-59.61267692870795,-11.206367960083346,-43.30873305839282
1761283380.3321455,-7.552127111560844,-0.10255659091924674,0.954854340580955,-0.032189337243914214,-60.36285752595269,-12.61512224548652,-43.22621345244717
1761283380.3421848,-7.972649164452244,-0.11448120697330062,0.9622916402743625,-0.03808855964547834,-60.229339874854944,-13.629443210903373,-43.003018509618066
1761283380.3521452,-8.393832402809483,-0.13081744452383012,0.9673493014645932,-0.0389464924225532,-59.18806436616271,-14.257454448369465,-42.69736680087543
1761283380.3621354,-8.817923288471185,-0.151862277143316,0.9694762249322092,-0.03439180983243147,-57.26135538842227,-14.562026568253666,-42.38118863137216
1761283380.3721251,-9.247746846683494,-0.17727928098534446,0.968531016023346,-0.024554874723453184,-54.52000453066546,-14.656291859439216,-42.13038882309488
1761283380.382141,-9.686307584757719,-0.2059874030518415,0.9647167629299075,-0.010025732147896258,-51.08111103230547,-14.691292558521688,-42.01520020490695
1761283380.3922596,-10.136322299977751,-0.23614936482573975,0.9584889789084494,0.008223863658308149,-47.101466584860155,-14.837222310165687,-42.091883169522895
1761283380.4022002,-10.59975754286305,-0.26527796726660313,0.9504524503285646,0.028941015402950847,-42.76672324238471,-15.26078412713595,-42.396666550518844
1761283380.4124644,-11.077446407309692,-0.29046407032846877,0.9412599547394097,0.05070122448654397,-38.27704802651824,-16.101900519216432,-42.9423487698565
1761283380.422159,-11.56884737698807,-0.30870834978551165,0.9315218006421464,0.07201556730067635,-33.830418176635376,-17.453223696314684,-43.71748461495458
1761283380.4324863,-12.071981728511926,-0.3173126619286846,0.92173199606884,0.0914294523633534,-29.605080907868548,-19.345524185337165,-44.68769951717748
1761283380.4421468,-12.583550379613488,-0.3142658055299285,0.9122153453561502,0.10761351922586847,-25.74291362138187,-21.741106055345764,-45.79848824523405
1761283380.4521544,-13.099195735325617,-0.2985529297547813,0.9030998197047723,0.11945216766801037,-22.335451674402044,-24.53607741041339,-46.97885741876367
1761283380.462132,-13.613849180992139,-0.27033106443450095,0.8943193826025073,0.12613601475392128,-19.414237079399623,-27.570891625514964,-48.145275215733584
1761283380.4721632,-14.122096556018493,-0.23094104184332243,0.8856515996752918,0.1272596412287949,-16.946914430551168,-30.64736724360688,-49.20552876898924
1761283380.4821892,-14.618502704775194,-0.182761078406789,0.8767887426017041,0.12291509916163669,-14.840136959101521,-33.54958482167272,-50.06226314253002
1761283380.4922006,-15.097857890396734,-0.1289405761373276,0.8674309898609408,0.11375844509383688,-12.9497663266675,-36.065717937358016,-50.616216481044496
1761283380.502248,-15.555336394948531,-0.07307321108858461,0.857380684695818,0.10101893396465088,-11.097983216189503,-38.007964564453424,-50.76946102608091
1761283380.5128744,-15.986582999584261,-0.018867748712144986,0.8466128024816681,0.08642568150137363,-9.095825773805586,-39.2282057435541,-50.42924413190733
1761283380.5225887,-16.387760396980518,0.03014348441050695,0.8353003759961608,0.07204436621599611,-6.768569870948291,-39.6276652767056,-49.51319968500052
1761283380.5321438,-16.755598236257693,0.07084051521303178,0.8237830160703803,0.06003877142128744,-3.980569802743961,-39.15953687487672,-47.95660344146336
1761283380.542359,-17.087482396746026,0.10069160163228352,0.8124796062282572,0.052389889649880395,-0.6559287191018028,-37.824298017583025,-45.72176192366486
1761283380.552239,-17.38160920748031,0.11787082024379131,0.801760780061373,0.05061539869821239,3.2082402401873984,-35.65837677546729,-42.808520025854875
1761283380.562364,-17.637202188764295,0.12132440384253287,0.7918103917442987,0.055534544076468406,7.538211236552715,-32.71799597678411,-39.26362783991672
1761283380.5721385,-17.854754518110216,0.11079578793523066,0.7825136305500049,0.06711735869759806,12.19053778628309,-29.06114045993492,-35.18597959340097
1761283380.5821526,-18.03623258496532,0.08681393781864097,0.7734085004435829,0.08444276941999045,16.968710360359157,-24.731318257672086,-30.725006292637072
1761283380.5922241,-18.18516667976065,0.0506391434970184,0.7637267692195373,0.10577150584339572,21.647398310659312,-19.746887923661767,-26.070743370711543
1761283380.6021724,-18.30656653834285,0.004155679056751352,0.752533494471076,0.128723167701228,26.000960889924965,-14.099135933500577,-21.43585567180215
1761283380.6121702,-18.406627270419573,-0.05029432515885501,0.7389544367958981,0.15053524932071954,29.832255402796125,-7.761004856802951,-17.031655661798375
1761283380.622165,-18.492228588042973,-0.11013083556438692,0.722461249117099,0.16837396999326412,32.997702303372215,-0.7064849653101941,-13.041536065894991
1761283380.6321673,-18.570270440207434,-0.172792275668513,0.7031681557005622,0.17966103272335934,35.42510616340356,7.061522959893475,-9.596046500887503
1761283380.6422343,-18.64692311550395,-0.23599752575883648,0.6820828624915676,0.18237768711359992,37.121781473963885,15.479162887869434,-6.753927347707468
1761283380.6521678,-18.726891217676627,-0.2979702271053651,0.6612510413640532,0.17530904571751832,38.1719038606078,24.391262427871514,-4.492709330445633
1761283380.6621497,-18.81279330073487,-0.35757501002337105,0.6437411677781806,0.15819810293560524,38.72346143545415,33.52921832982283,-2.7110946132443194
1761283380.672138,-18.904743000230493,-0.4143198685556507,0.6334358020486306,0.13179045484196053,38.96647782762521,42.50322403351597,-1.2435176320717165
1761283380.6821997,-19.000189046313412,-0.46819825354749656,0.6346236104066518,0.09776664448317592,39.105149727875364,50.81322330559868,0.11464891723981863
1761283380.692439,-19.094037688309523,-0.519376481788377,0.6514191138965573,0.05857592434996106,39.327164949363116,57.88026429908995,1.574577414150946
1761283380.7031322,-19.179047049581907,-0.5677715368752833,0.6870708869609741,0.01719684043062276,39.773857320669514,63.0967231532796,3.318960907536616
1761283380.7121637,-19.246451450232428,-0.6126034719001427,0.7432503707041577,-0.02314803715720439,40.515152217135864,65.89074604340793,5.47020612639748
1761283380.7221982,-19.28674570700691,-0.6520337848797452,0.8194380954161751,-0.05930215402434695,41.53345024577865,65.79770376426211,8.067695514742237
1761283380.732191,-19.29053636501111,-0.6830048361983467,0.9125364108952062,-0.08849591362094437,42.72036754393763,62.529760083970025,11.059046959719717
1761283380.7426095,-19.249353394154355,-0.7013715733205744,1.0168315599490356,-0.10866355142909126,43.8890493509429,56.03401447260571,14.308175058722336
1761283380.7537882,-19.15631905840263,-0.7023692446740673,1.1243959902876146,-0.11872715552627407,44.802269898009435,46.530239791787906,17.619776055984172
1761283380.7621655,-19.006594776278252,-0.681394655181444,1.225957860702707,-0.11880016064603548,45.21309838194039,34.52099566017325,20.776214757714378
1761283380.7721553,-18.797568852622835,-0.6349987877909217,1.3121675972127156,-0.11025451619083594,44.91156174567977,20.76965850932334,23.579649369558673
1761283380.782645,-18.52879790499141,-0.5619057761539004,1.3750703771091874,-0.09560814572802143,43.76851812315964,6.245444922243793,25.890568776730344
1761283380.7926168,-18.201759801493566,-0.4638104643042478,1.4094767936600916,-0.07821899471731097,41.767456806055065,-7.961319894432831,27.654323636023612
1761283380.8026488,-17.81950446526269,-0.3457014679795078,1.413868432755201,-0.06181008192899514,39.016376929120554,-20.745830992605615,28.909723977635785
1761283380.8121824,-17.38629421143003,-0.21554350888208712,1.3905482693098472,-0.04989108506678568,35.73535817948983,-31.104973888736147,29.77783539741394
1761283380.8224454,-16.907309213699953,-0.08332685573698011,1.3449635915787836,-0.04518168370027787,32.220625499758974,-38.24731196178117,30.43376166734252
1761283380.8321714,-16.388466667479108,0.04031215714724391,1.2844073174661874,-0.0491676956888635,28.7916948152695,-41.68030726533661,31.068189697865588
1761283380.842193,-15.836375321364184,0.14556835530673126,1.2165008104809152,-0.06191186547224979,25.732819300937287,-41.260909149378534,31.847605659306737
1761283380.852167,-15.258423117316779,0.22470780030839957,1.1478845567845704,-0.08218188242955253,23.24187569416187,-37.2018596178266,32.88173514645167
1761283380.8621793,-14.662969701057593,0.2728441162309047,1.083406449633136,-0.1078600632425739,21.39833134246781,-30.0342843166057,34.204171315509555
1761283380.8721817,-14.059583755315455,0.2881857646902631,1.025891342667118,-0.13650416379203045,20.157369333816153,-20.534976933379156,35.768411203614036
1761283380.8821926,-13.459232046468886,0.27183360708109294,0.9763960573175426,-0.16588452674468845,19.370840838790365,-9.6319506450792,37.457991632891265
1761283380.8922439,-12.87430493403193,0.22728719311406886,0.9347542276389921,-0.19434804765895997,18.82912280688291,1.696808258329273,39.107074549866724
1761283380.902172,-12.318366107598804,0.15982179518226783,0.9001992296413507,-0.22093611375395272,18.312920445388542,12.51839478583973,40.52688845003598
1761283380.9133372,-11.805551737444015,0.07585229217258126,0.8718959698899806,-0.24527491838510085,17.642039338304205,22.02454607509832,41.533520492038406
1761283380.9224315,-11.349613040041893,-0.01765644404913957,0.8492811064687831,-0.26732750895417157,16.70983353956551,29.590257101045,41.97319304125655
1761283380.9321558,-10.962679118571522,-0.1137128101138371,0.832181345154486,-0.28712593420038324,15.49682122383811,34.80907772685503,41.74205934618428
1761283380.9422524,-10.653890164663407,-0.2057517321420842,0.8207387642352172,-0.3045842316931843,14.063153437634654,37.50483301812642,40.79861353703644
1761283380.95339,-10.428096844086229,-0.28801379294013885,0.8152145703102001,-0.3194409704218089,12.525144917322269,37.72102179753094,39.167970969084095
1761283380.9621656,-10.284832542091012,-0.355839988131161,0.8157604872959565,-0.33131964630170807,11.024243229552804,35.69061227099994,36.93841563184994
1761283380.9721513,-10.217739898855621,-0.40586850603599145,0.8222359196726889,-0.3398543947561595,9.696937741440477,31.79066353534547,34.251548050078796
1761283380.982147,-10.214573971822219,-0.43612314333648833,0.8341164893498204,-0.34481944878163084,8.651757725753127,26.48792153171019,31.287930837028515
1761283380.9921594,-10.257820563619244,-0.4459931571507281,0.8505015731946215,-0.34621544697212914,7.9560998608799505,20.28265885519624,28.25025990810529
1761283381.0021608,-10.325876967917923,-0.43611800238084114,0.8701998311955174,-0.3442897217152242,7.632586786949003,13.658017799533402,25.345872254063327
1761283381.0123513,-10.394663030174042,-0.40820133666893127,0.8918584383749227,-0.3394921896907465,7.662779784992039,7.040829888442845,22.770010518236205
1761283381.0221672,-10.439477655047403,-0.3647830810940284,0.9141012427938355,-0.33238827321162284,7.9954263454942085,0.7775603472793026,20.690867816243777
1761283381.0321543,-10.436896481525599,-0.3089970228492558,0.9356483886961623,-0.32356066871507455,8.556675165164384,-4.87384603463256,19.23713716505875
1761283381.0424845,-10.366519597778204,-0.24433723415885725,0.955401756796207,-0.313530772977466,9.260388847561247,-9.73823852928123,18.48862460227082
1761283381.0527337,-10.212417480122232,-0.1744511321891869,0.9724937301594297,-0.3027206059686312,10.017453839302997,-13.707818230694663,18.470425548465624
1761283381.0621858,-9.964177942401344,-0.10296975805664317,0.9863068611400143,-0.2914615022151719,10.74359926247611,-16.722269635194202,19.151129738718563
1761283381.0721667,-9.617512292655283,-0.03337576416758128,0.9964755148417641,-0.2800404528024786,11.365613859793395,-18.749753244796008,20.445419848969163
1761283381.0821507,-9.174421296323336,0.03110164953548168,1.0028777057985188,-0.2687622693328297,11.826020616928348,-19.773022909695595,22.221200215696747
1761283381.0921617,-8.642944455644512,0.08758325818300472,1.005619686916124,-0.2579999942130457,12.086293882265801,-19.783171934789827,24.311013454578323
1761283381.1021867,-8.036523371211294,0.13364571641836434,1.005011451660418,-0.2482105503057496,12.12863765061244,-18.781423086736936,26.526999975657954
1761283381.112162,-7.373012461395269,0.16744506009697308,1.001530350667294,-0.23990635200337662,11.956241132242813,-16.787391486066603,28.678101402308137
1761283381.122192,-6.673379685638683,0.1878501106250111,0.9957724029590841,-0.23359032005658242,11.591868485827213,-13.850732750905564,30.58771681333686
1761283381.1324534,-5.960163046712611,0.19456175248911212,0.9883949853773173,-0.2296743824127297,11.074708056232831,-10.062307329096285,32.109735615817165
1761283381.1421754,-5.25578522295739,0.1881835943220948,0.980058373963832,-0.22840632934971944,10.45563271532525,-5.56109483236735,33.14092636109907
1761283381.1524913,-4.580871141897759,0.1702092516099513,0.9713754915235409,-0.22982681165644456,9.791343545007262,-0.5340556684579646,33.62810095668374
1761283381.16217,-3.9527481356112943,0.1429021059169865,0.9628781211380631,-0.23376935536910243,9.138149354747192,4.792278190173427,33.56922645840362
1761283381.1721961,-3.384319058163705,0.10906254594391238,0.9550033521298552,-0.2399043231470599,8.546239889456649,10.167879014626422,33.008576704944936
1761283381.1824298,-2.8834714236807732,0.07170188461779703,0.9480970461424856,-0.24781542835074477,8.055181465321736,15.340700754898657,32.026922549222434
1761283381.1927822,-2.453115035387386,0.03366751444680398,0.9424239466263667,-0.2570867665113491,7.691045647608394,20.080144175483703,30.72846363495959
1761283381.2021937,-2.091834890867688,-0.002715253973324597,0.9381697276946958,-0.2673722753964533,7.465196922276113,24.19869857180188,29.22657066165245
1761283381.2121742,-1.7950280246203068,-0.03591120839586352,0.9354220743167299,-0.27842240854521444,7.374450800353808,27.56833747203174,27.630406921770636
1761283381.2221696,-1.5562945859832433,-0.06529165380786214,0.9341276984450115,-0.2900564590193699,7.402155445732807,30.129242237554177,26.034194863579124
1761283381.2321765,-1.3688044853620203,-0.09106889617838075,0.9340374792129418,-0.3020888300015239,7.519748425794157,31.88975988448707,24.510368535624227
1761283381.2437577,-1.226375369165286,-0.11405848217402971,0.934665337101185,-0.31423490391010556,7.688431260997805,32.91790810254763,23.107157926154997
1761283381.252179,-1.1240696224358258,-0.135315706429166,0.9352899833787743,-0.3260296182487889,7.86072289551308,33.3260103353442,21.85034749441597
1761283381.2623413,-1.0582285979151493,-0.15572032352312057,0.9350186240766927,-0.33678699331667566,7.981790710075509,33.25104132233258,20.74818469731381
1761283381.2726846,-1.0259890365676432,-0.1756005040642108,0.9329116047027632,-0.34561553623802227,7.990661027429414,32.8339260331431,19.7979055861406
1761283381.2821698,-1.0244462481329493,-0.19448959062149207,0.9281464620398763,-0.35149029909439217,7.821706847858415,32.20128897978828,18.99225083437878
1761283381.2924953,-1.0497124455641234,-0.21108680842501804,0.9201876968900844,-0.3533726725582532,7.407114241395506,31.45282239332303,18.324631700712814
1761283381.3021584,-1.0961387726166596,-0.22344273242120932,0.9089265996627321,-0.3503631722268649,6.681142763702268,30.65634884441451,17.79208281303711
1761283381.3121934,-1.1559186398939723,-0.22932913389193138,0.8947612569786574,-0.34186715889062513,5.586732259770794,29.850870899503914,17.395631725789105
1761283381.32218,-1.2191907763392456,-0.22670751972914566,0.878599702111397,-0.32774793313712514,4.0843384553147875,29.05588545699441,17.138157164977184
1761283381.33228,-1.2746498123435972,-0.21419452363653396,0.8617883404274301,-0.3084391079455701,2.1619744975691986,28.283628016505492,17.020186455792494
1761283381.3429782,-1.310577727582288,-0.19142962756310727,0.8459875115533527,-0.28499108734273315,-0.1554024581911293,27.550191137511067,17.034374865003095
1761283381.3525739,-1.3161407567928314,-0.1592718058416918,0.8330259129472375,-0.25903311414074154,-2.799477743666271,26.88186524549067,17.159621163703054
1761283381.3625314,-1.2827523309931923,-0.11978398900068657,0.8247580830840359,-0.23264026959032652,-5.657328336318787,26.31457951870502,17.355961626053034
1761283381.372244,-1.2052827857060853,-0.07600599090282296,0.8229294061150478,-0.208106984141608,-8.576802507643745,25.886625571623963,17.561533198592212
1761283381.3821816,-1.0829074155533107,-0.03155979306305356,0.8290384247184389,-0.18765125618497855,-11.378861521672682,25.62715450395851,17.69283293823762
1761283381.3921926,-0.919436982548384,0.009833488900505408,0.8441894193428027,-0.17310357216598726,-13.875910067010903,25.54437551069318,17.64905185389234
1761283381.4021685,-0.7230696199724531,0.04482675574854894,0.8689432545910605,-0.1656507207029105,-15.893888528035456,25.617466595657415,17.32045658566857
1761283381.412184,-0.5056158508236899,0.07082057059178769,0.9031852840198199,-0.16568639271525376,-17.294905305147193,25.79503870666934,16.59986462495123
1761283381.422191,-0.2813398842769541,0.08618506691624486,0.9460309418335557,-0.17277582302977512,-17.996696434832817,26.001101578282462,15.395493529623423
1761283381.4321806,-0.06560600661340793,0.09032425905700256,0.9957913979040763,-0.1857057528565804,-17.985480278063477,26.147496777726303,13.643054971769615
1761283381.442194,0.1264785482084038,0.08360827900983278,1.050024580156611,-0.20258849523422506,-17.319946193609177,26.150191309542688,11.314970373482552
1761283381.452472,0.28125883802907076,0.06721067130788974,1.1056885687255813,-0.22101115142850958,-16.125913780763813,25.945937460675772,8.424993871282524
1761283381.4623141,0.3874440227702731,0.042890100076010844,1.1593905159441096,-0.238240177349796,-14.58300550629235,25.50566239884847,5.027294216664053
1761283381.4723547,0.43666962268477766,0.012756395318343073,1.2076995599100384,-0.25148763311898215,-12.905894859589548,24.841507568320125,1.2100500152459839
1761283381.4821818,0.42370323529928744,-0.020941491930509423,1.2474822242619759,-0.2582208538759222,-11.323098541890912,24.00562589834309,-2.9153610540502366
1761283381.4923432,0.3463386671331004,-0.055978100464520814,1.2762226292570251,-0.25647147563416134,-10.056030384052733,23.080523670905585,-7.227685830885397
1761283381.5022213,0.2050581362753795,-0.09025565918961341,1.2922961724378355,-0.24509096104479441,-9.300435997894633,22.16259540724245,-11.609306395416617
1761283381.5121677,0.0025552390934194115,-0.12186204962668512,1.2951671411675365,-0.22391079443458284,-9.211628366538555,21.342086023975703,-15.957628119156603
1761283381.5229664,-0.2567948627966264,-0.14910857474475786,1.285479183835863,-0.1937864555311572,-9.894276147787071,20.68355672312266,-20.192493490662113
1761283381.5321698,-0.567450278938228,-0.17057281320544648,1.2650086986834033,-0.15652353252267354,-11.396928566205796,20.21076200048446,-24.258582333672187
1761283381.5421782,-0.9231579536536704,-0.18515828920224386,1.2364632802364,-0.11469636899489134,-13.711043403227299,19.898756873606466,-28.12274212086399
1761283381.5521553,-1.317327790045897,-0.19216649500288913,1.2031351436044737,-0.07137649765020168,-16.774031606317596,19.674445795899157,-31.76714340187448
1761283381.5630004,-1.7433200318309447,-0.1913668879579528,1.1684563723502577,-0.029795104160639053,-20.475696366798335,19.42513354693832,-35.179930980379304
1761283381.5726016,-2.1946505136100365,-0.18304792457577448,1.1355329128184188,0.007025800237099389,-24.66734052385379,19.013297172703826,-38.345526839609576
1761283381.5822911,-2.6651225488096872,-0.16803292974910608,1.1067435830329584,0.036626391747076444,-29.172696533226322,18.294944327786975,-41.236819271627446
1761283381.592196,-3.14889605559507,-0.14764587757273914,1.0834758053961486,0.05739165813489096,-33.79973176089337,17.13859862614038,-43.811084394691775
1761283381.6021757,-3.6405071071639603,-0.12361582249301843,1.0660379456328823,0.06871465628899717,-38.35236669531982,15.44212133969155,-46.010692391419184
1761283381.6123397,-4.13485508605177,-0.09791838628499092,1.0537497499243498,0.07101148596557993,-42.641259581709235,13.145160944127147,-47.76863232038159
1761283381.6221836,-4.627178413872742,-0.07256839289510894,1.0451780483136495,0.06558739656370499,-46.4930527831634,10.235896955522502,-49.017886660156684
1761283381.6321774,-5.11304134591974,-0.049394912541723894,1.0384627510605904,0.054382672010105736,-49.757773835058266,6.7517641135680995,-49.702916726103865
1761283381.642205,-5.588352550338785,-0.029842223243210817,1.031670998514286,0.03965077109800084,-52.31433778804354,2.7748518118159486,-49.79112779191777
1761283381.6522877,-6.049431105432182,-0.014840815323853547,1.0231223801627858,0.02363221287298172,-54.074246898356925,-1.5765104953773992,-49.28223045682292
1761283381.6621928,-6.493127398760999,-0.004777742469803607,1.0116409194678921,0.008280427240700123,-54.98362461368691,-6.1580739854041315,-48.21386922232636
1761283381.6721582,-6.916995761188976,0.0004303400530634099,0.9967061751459318,-0.0049262312318955085,-55.02367891325163,-10.81017391917336,-46.66261555433898
1761283381.6821766,-7.319503477003123,0.0011844241645836944,0.9784928756224776,-0.015076840521672174,-54.2096168891795,-15.36738854099298,-44.74021819509765
1761283381.6923811,-7.700248233563424,-0.001988439775624689,0.9578043828824312,-0.021831808866492705,-52.58800890626795,-19.66721414327296,-42.585674914781016
1761283381.7021697,-8.06014503447917,-0.008618055533000171,0.9359203476082353,-0.02535251383644927,-50.232708587284336,-23.558299615333805,-40.35414075343763
1761283381.7123218,-8.401537234292116,-0.018421675831236987,0.914391225299879,-0.0261740477390422,-47.239687741154604,-26.90897662734359,-38.20394273463446
1761283381.72216,-8.728187639984885,-0.0313503083772063,0.8948170652990288,-0.025042487602811966,-43.72143205908253,-29.616458855427492,-36.28310566519777
1761283381.732172,-9.045115890489962,-0.047535451814530665,0.8786433652554814,-0.022742433655023462,-39.801675175568406,-31.616316401626566,-34.7168480100541
1761283381.7427125,-9.358267357410309,-0.06714189359149834,0.8669965356389625,-0.01994171089919524,-35.61108789014516,-32.89096029672005,-33.59745841889888
1761283381.752623,-9.674024894594032,-0.09015548239588239,0.8605707752043698,-0.01707608897418107,-31.284085319849225,-33.47526559833195,-32.97774961154945
1761283381.7621796,-9.998604168830319,-0.11615459124127185,0.8595696823374801,-0.014288818532019965,-26.956313395492177,-33.457416243395876,-32.86886176593046
1761283381.7721727,-10.337400891821712,-0.14412434696556725,0.8637001981032653,-0.011430655133540706,-22.76188122856962,-32.973629189837816,-33.24259013117956
1761283381.7822325,-10.694378436466478,-0.17237087709571067,0.8722129403303764,-0.008117439797973658,-18.82926881168842,-32.196428370704105,-34.03775792074406
1761283381.7923534,-11.071591252343856,-0.1985777600236655,0.8839808262714332,-0.0038338399554210434,-15.275160294581543,-31.317319640495967,-35.16957095511849
1761283381.8027139,-11.468928487485439,-0.22001919759489214,0.8976068222271462,0.0019360777433142851,-12.196119891590856,-30.525808435924358,-36.54046921861818
1761283381.8121948,-11.88413214401382,-0.23390885996185096,0.9115518461195096,0.00957588745534898,-9.658805493250576,-29.987477753806747,-38.0508029288251
1761283381.822188,-12.313099049364036,-0.2378288586274258,0.9242745673477281,0.01922621685206093,-7.690084622214846,-29.824136112733793,-39.607755826226196
1761283381.8328638,-12.750424941894169,-0.23016020592754238,0.9343747016921596,0.030716906125377728,-6.26883181084327,-30.09877410466625,-41.13132677640339
1761283381.8427067,-13.190103337673458,-0.2104307435051395,0.9407299782479013,0.043555074298453116,-5.321271539248871,-30.807280927239557,-42.55680770867001
1761283381.852764,-13.626261600623137,-0.17950821021372892,0.9426149721029007,0.05697399129282239,-4.721489321233975,-31.87776152934669,-43.83392886707855
1761283381.8626473,-14.053809159382668,-0.13959152618283513,0.9397879209455966,0.07003816887737252,-4.298213621823365,-33.17714433350811,-44.923512374624615
1761283381.8727503,-14.468892390478834,-0.09399062295928626,0.932529826917592,0.0817884616885038,-3.8482037063029106,-34.52384142460749,-45.79294743206078
1761283381.8822138,-14.869095492563087,-0.04672931486799893,0.9216207972301557,0.09139914719095878,-3.1555741428149635,-35.70467997763196,-46.41200067031594
1761283381.892212,-15.253385716006,-0.0020447130647216045,0.9082456792042733,0.09831233547740416,-2.0152211804553737,-36.49420397086193,-46.750363160966735
1761283381.9028227,-15.621857422336774,0.036122015851855475,0.8938360491438403,0.10231829038518556,-0.25742712760672987,-36.674652195882324,-46.77789646463562
1761283381.9126997,-15.975367239910009,0.06455032471429702,0.8798737858164721,0.10356295801955659,2.2299195888736913,-36.05523462415386,-46.46783136468659
1761283381.9231553,-16.31516418083321,0.0810109333710653,0.8676939083278793,0.10248137924721007,5.484930902886231,-34.489518470765724,-45.80236205211798
1761283381.9324265,-16.642604041395586,0.08435517164194971,0.8583237281942087,0.09967255005180066,9.463689822132073,-31.88970881317966,-44.77938578269794
1761283381.9424012,-16.959002650948758,0.0744456147638103,0.8523808783125506,0.09574483821502242,14.041713798937629,-28.23650346132271,-43.41872930583731
1761283381.9521568,-17.26563765433683,0.05198901408333015,0.8500319630501,0.09116936603390043,19.024540618511153,-23.583277815937375,-41.766146781871335
1761283381.9621618,-17.563865778525273,0.018342425119319494,0.8509982066975845,0.08617853223238194,24.165826750641436,-18.053797825596977,-39.89366463146983
1761283381.9721713,-17.855292812593166,-0.02465635636773529,0.8545920839577884,0.080735237108965,29.190550290266827,-11.833456642530699,-37.895432155729374
1761283381.9821758,-18.141922641513634,-0.07481699757327764,0.8597770381778271,0.07457796963285286,33.82057904937943,-5.154996508745164,-35.87901958895713
1761283381.9928079,-18.426219342756074,-0.12969568674372112,0.8652516304540573,0.06732615618113165,37.799908814495694,1.719461366897075,-33.95296254440849
1761283382.0023112,-18.711037944776677,-0.1866912217952661,0.8695622179982357,0.05861714192309232,40.91717189066598,8.517765060501668,-32.212121428308365
1761283382.0121522,-18.99940854523133,-0.24316270744831506,0.8712440798667588,0.048242950737131994,43.023469494164196,14.976157885111665,-30.722933013965882
1761283382.022207,-19.29418859722499,-0.29658125008223146,0.8689841573797854,0.03625848850337388,44.04413233664058,20.854921609255616,-29.51076766779549
1761283382.0322053,-19.597623277269278,-0.3447107846318334,0.8617931103636618,0.02303966752971063,43.98361518442198,25.950047055180416,-28.55136254666161
1761283382.0422235,-19.910869283147154,-0.38579568337530157,0.8491710872016648,0.009278692764507237,42.92334865773358,30.100487370189317,-27.76776351125514
1761283382.0521855,-20.23354169611551,-0.4187201680819715,0.8312493903159809,-0.0040861105244204,41.01296213535381,33.19127408560802,-27.033529671428774
1761283382.0621824,-20.563339245651775,-0.44310187689969976,0.8088881432210122,-0.015998605620749687,38.455810109273415,35.153389261206236,-26.182294935233827
1761283382.072203,-20.895795347750806,-0.45929174423306107,0.7837087364439203,-0.025456230949699798,35.49018186573283,35.96168486152018,-25.02320683325913
1761283382.0822806,-21.224194876529697,-0.4682724100887247,0.7580415010585428,-0.0317044372130077,32.368001072606205,35.6322185982709,-23.36121049603579
1761283382.092204,-21.53969091088283,-0.47147130686287025,0.7347763692900995,-0.0344306596292973,29.333250939210057,34.22006810864885,-21.02051801687728
1761283382.1023688,-21.831649046024317,-0.47052446645228924,0.7171183034940714,-0.03393134778702147,26.602687350837485,31.818034300308128,-17.8689063399897
1761283382.1121745,-22.08823431102338,-0.46703673105387233,0.7082678368761031,-0.031224392571847844,24.35135213532602,28.555821947467166,-13.839870552417976
1761283382.1221833,-22.29723240843879,-0.462380987399303,0.7110645827910593,-0.028081329363738076,22.704665902676616,24.598521620605897,-8.949346627472504
1761283382.1321743,-22.447059886724777,-0.45756431223488836,0.7276414609959633,-0.026957894880968204,21.7374228920462,20.142698768054355,-3.303894730800453
1761283382.1421986,-22.527868210457623,-0.4531666911586489,0.7591362876274913,-0.03080648421963149,21.4782133962058,15.408251597218241,2.902014376499776
1761283382.1530616,-22.53259477123811,-0.4493367163714793,0.8054974423338466,-0.04276164771486928,21.916312512150306,10.624582408894787,9.400657051462996
1761283382.1622732,-22.457781018540675,-0.4458188720639531,0.8654064121558269,-0.06570416750415725,23.00750476315033,6.010732466721883,15.876944944295504
1761283382.1728034,-22.303987193781378,-0.4419926992220417,0.9363244342135922,-0.1017341532032598,24.676017995352,1.7510213048492604,22.002856635992774
1761283382.1825058,-22.07569269493039,-0.43691754011939643,1.0146528873845295,-0.1516195435448268,26.811702683244732,-2.0299024431385835,27.47591577648415
1761283382.1928966,-21.78066628547808,-0.42938573778669953,1.095979752606331,-0.21432603769712283,29.264318738287656,-5.286628326807993,32.05602529320917
1761283382.202753,-21.42889318447872,-0.4179886083002113,1.1753747620145076,-0.2867599865914374,31.839317857151283,-8.0605114610725,35.594820526274546
1761283382.2129407,-21.031230806627658,-0.40120096733801197,1.2477031274489565,-0.363845795780201,34.30071690031265,-10.470051734215824,38.05280410144238
1761283382.222193,-20.59801759011129,-0.3775015761228018,1.3079545804330772,-0.43900301591418783,36.38576322359608,-12.682833199186762,39.50160576444705
1761283382.2321732,-20.13787710102392,-0.3455668061600814,1.351614626693821,-0.5049956543274876,37.83301055414336,-14.87282513570458,40.11111412450457
1761283382.2421968,-19.656941932197963,-0.3045791139265625,1.3751055648950525,-0.5550257789463572,38.42087103581235,-17.171654340840877,40.12334244540938
1761283382.2522087,-19.15866336661771,-0.2546482724856063,1.3762762425209263,-0.5838650491031573,38.00906964835092,-19.625450909860863,39.81652470406945
1761283382.2623608,-18.644269408389007,-0.19725340504239597,1.354843234232938,-0.5887773163454639,36.57236998871916,-22.168903747456422,39.46425220644351
1761283382.272175,-18.113798197444535,-0.13553433612456037,1.3126346051033158,-0.569995538016937,34.215885206849485,-24.624802051762327,39.295523003830304
1761283382.282173,-17.567498537032876,-0.07425781478084559,1.2535062694862784,-0.5306072830996836,31.164899254135346,-26.73126824611162,39.46201219489747
1761283382.292222,-17.007293036160092,-0.01936975811960066,1.1828945640974677,-0.47588562253119976,27.72883708752865,-28.19190372098425,40.018086034100065
1761283382.3021834,-16.437970455089,0.02282646731620436,1.1070894674349523,-0.4122949821523927,24.246757829242934,-28.738340678449557,40.91688978858527
1761283382.3121884,-15.867820368388728,0.04671074668337342,1.0323935490141538,-0.3464756697709672,21.027489108982106,-28.191804518371292,42.022781909641566
1761283382.3222234,-15.308531857639498,0.04838710620528282,0.9643417966126979,-0.2844323833195773,18.298963684871865,-26.510735315991838,43.13739291962801
1761283382.3322046,-14.774320765082523,0.026503854443671062,0.9071184452640288,-0.23100928621256214,16.178208387911525,-23.814778886007343,44.03438867662596
1761283382.34219,-14.28039624680428,-0.017320073704112822,0.8632513504586301,-0.18962453352621084,14.667342369741174,-20.38044538987045,44.49691208486875
1761283382.3521836,-13.841001062734334,-0.07855689671209701,0.8336042555033224,-0.16219241532035356,13.674042099841355,-16.60923030241738,44.35166320868194
1761283382.3621845,-13.467341888494584,-0.15031931229080162,0.8176246124486976,-0.14916653896019147,13.049124796462,-12.973916052755918,43.494535964572066
1761283382.3721764,-13.165752442247856,-0.22429919647650776,0.8137508633345701,-0.14966612713737207,12.63049401624889,-9.952311718279864,41.90446090131781
1761283382.3821676,-12.936396739794347,-0.2919170954473159,0.819858218273658,-0.1616763100885291,12.282270998163193,-7.959411246460485,39.6442879828607
1761283382.3923385,-12.772726113539054,-0.345464536623589,0.8336383207969182,-0.1823262570067055,11.920398897871605,-7.288780874018005,36.84975710158429
1761283382.4022808,-12.661769977336165,-0.3790381436842775,0.8528559999559149,-0.2082407302007312,11.52059896104346,-8.072078123275793,33.709421980746605
1761283382.4123878,-12.585198271435388,-0.3891314684641695,0.875478498183389,-0.2359381489781612,11.109863483613587,-10.26230369478821,30.439492293645586
1761283382.4224365,-12.52097779589908,-0.37483968480207575,0.8997074625253892,-0.26222579141531366,10.746916296878965,-13.642257328466156,27.25778170047193
1761283382.4322515,-12.445378780155973,-0.33771195433251416,0.9239583922700569,-0.28453301134704634,10.49891726405972,-17.855456726434753,24.360357331842934
1761283382.442202,-12.335077181044687,-0.2813371152097033,0.946831669509991,-0.30113178769600074,10.420938021445798,-22.453304841754477,21.90336476885908
1761283382.452221,-12.16913242731509,-0.21076760833762462,0.9671069238603284,-0.31121771169568385,10.542297112172566,-26.950261904865965,19.99124044147451
1761283382.4621713,-11.930681272456901,-0.13188234916116653,0.9837717785702321,-0.3148547573931998,10.861010765456808,-30.878532904124224,18.671437837323246
1761283382.4721873,-11.608254106439032,-0.05077202900160057,0.9960749728768836,-0.31281363245943544,11.345377995780375,-33.83512738627624,17.935048319428113
1761283382.482202,-11.196670927740897,0.026792902700935414,1.003581106689823,-0.3063489551177453,11.940493468612324,-35.51648948608991,17.722312941099325
1761283382.492193,-10.697500746527469,0.09577688158865813,1.006203711675314,-0.2969626712354453,12.577220078692978,-35.738539090136264,17.931914284605195
1761283382.502174,-10.119074614841049,0.15216618144966804,1.0042028570942378,-0.2861921328052141,13.181551258596949,-34.44234554650312,18.432965883715358
1761283382.5121715,-9.476042184238754,0.1931363944252917,0.9981467761071554,-0.2754457502675177,13.682978160466764,-31.687413482937657,19.07864767354114
1761283382.5222404,-8.788468841114668,0.2171178423382891,0.9888472125449653,-0.26589268380388276,14.021142262568409,-27.635555297935436,19.720405111093225
1761283382.532193,-8.08049322572431,0.22377702526925,0.9772816015835761,-0.2584009204915464,14.150531112180243,-22.52861516242726,20.221567351090194
1761283382.542367,-7.3786039058623425,0.21392910912589305,0.9645126712686808,-0.25351314199860253,14.043238906966568,-16.663092648768906,20.469232836493333
1761283382.5521834,-6.709643873512164,0.18939384181664418,0.9516111935004092,-0.2514508204368588,13.689930196327213,-10.364226150210307,20.383390077104682
1761283382.5622573,-6.0987025829143136,0.15280618965261852,0.9395836501672405,-0.2521402788764482,13.099196228254677,-3.9615072389066763,19.922502700406092
1761283382.5723717,-5.567094424021124,0.10739251883999433,0.9293050142510134,-0.25525706586311836,12.295532340238632,2.2329977983487264,19.08516024724303
1761283382.5821812,-5.130636658997162,0.0567232212318077,0.9214578325262223,-0.26028601658101325,11.31621373932062,7.942666489075355,17.90782221960285
1761283382.592202,-4.798420229544722,0.004454016172125265,0.916481480748919,-0.26659403289637007,10.207408680928072,12.940229587975143,16.45909165537823
1761283382.6021988,-4.572213170824514,-0.04592938189913952,0.9145381961693692,-0.2735112157875587,9.019925672476877,17.05741829060219,14.831285607884329
1761283382.6122143,-4.446558045950049,-0.09134634516306253,0.9155034956689576,-0.2804137191845913,7.805014345696684,20.190405348956105,13.130297312291933
1761283382.6222475,-4.40953808957755,-0.1293190171735886,0.9189866770249122,-0.28679920335869075,6.6106042903964255,22.301209291286657,11.464868946099724
1761283382.6322181,-4.44410836130704,-0.15811780158881095,0.9243821870676944,-0.29234441301017905,5.478273111489708,23.415261949807206,9.936409892671756
1761283382.6422772,-4.529829135175509,-0.1768437205245846,0.9309460323942865,-0.2969353664885829,4.441109436344829,23.615359959020576,8.630382688485126
1761283382.6522064,-4.644802343469693,-0.18544032654161302,0.9378855201174228,-0.3006639844758928,3.5225133950143808,23.032311782678907,7.610032819133478
1761283382.6621957,-4.767598056852314,-0.1846315838663496,0.9444478870029271,-0.3037900535145328,2.735879743193572,21.83278461415333,6.912900037916221
1761283382.672298,-4.878968575968275,-0.17578893226796144,0.9499950882281875,-0.30667339109833897,2.0850383300248403,20.205127721182404,6.550179952921361
1761283382.682289,-4.96318498827766,-0.1607416947393821,0.9540574433935993,-0.3096866617934967,1.5652771416984095,18.344244843897158,6.508650183011925
1761283382.6921968,-5.008890056490811,-0.1415555337411691,0.9563649863669765,-0.31312280968913486,1.164754414157572,16.436816420165076,6.75457280741249
1761283382.702204,-5.009428156943119,-0.12030746995215569,0.9568587356642182,-0.31711163279728394,0.8661329762348439,14.648219828249708,7.238785699556481
1761283382.7122233,-4.962674177232337,-0.09888228180846304,0.9556839212884725,-0.3215583049933315,0.6483310245292365,13.112307268500146,7.902143374428598
1761283382.7223003,-4.870434590351336,-0.07880905692032547,0.9531659704059935,-0.32611406080291566,0.4883407221642036,11.924834329843671,8.680564596999924
1761283382.7322211,-4.737537319340471,-0.061152389469146994,0.9497702645859819,-0.3301864764141508,0.36308561366384323,11.140898358621513,9.50914946014574
1761283382.742214,-4.570761070523278,-0.04646909962473403,0.9460485087538372,-0.3329933929910221,0.2512670818444833,10.776313075273622,10.325088318697329
1761283382.7521865,-4.3777712263610615,-0.03483499855650331,0.9425769180965661,-0.3336597971489195,0.1351112320635691,10.812432944894214,11.069352114974873
1761283382.7621973,-4.166218191887225,-0.02593591569917823,0.9398933590278127,-0.3313505662356175,0.00189079074138975,11.203568241905204,11.687397309906423
1761283382.7722023,-3.9431115635433382,-0.01920510872491507,0.9384410906167624,-0.32542442995509846,-0.15493265075825016,11.885853926234391,12.129313497657161
1761283382.7822006,-3.71451683922697,-0.013979483981962403,0.938525082696731,-0.31558728325255125,-0.3351183251107379,12.786328839600888,12.349954284731925
1761283382.7922027,-3.485547419366929,-0.009643678792018417,0.9402834289347628,-0.30201772764587265,-0.5317713957445761,13.831098616532442,12.30958654828851
1761283382.8022196,-3.260563147908758,-0.005735539724007961,0.943673027428609,-0.2854354225901511,-0.7322919057169832,14.951778568920703,11.975452093266965
1761283382.8123841,-3.043453563176822,-0.001997894970026271,0.9484683482147598,-0.26708519952302756,-0.9201471151070867,16.089854710757336,11.324373075187367
1761283382.822251,-2.8378874776514795,0.0016230029374155654,0.9542760172286755,-0.24862049828006502,-1.07732726475039,17.199043402503676,10.346199304544319
1761283382.832247,-2.647446064344748,0.0050180171947370724,0.9605722338862028,-0.23189049389585573,-1.1872212314980057,18.24606083384287,9.047571814039333
1761283382.8422601,-2.475606386079174,0.007974539832924343,0.9667679707257665,-0.21866195507623626,-1.2375697177155178,19.210358951757872,7.455243692023131
1761283382.8522184,-2.325587586834896,0.010237528723392364,0.9722967828380279,-0.21033004343726927,-1.2231108553312717,20.08333405115899,5.618105813809734
1761283382.8622599,-2.2001061460426765,0.011560152223633135,0.9767072380163716,-0.2076824413152488,-1.147516977147527,20.867327077477913,3.6071250055276725
1761283382.8721993,-2.101108857944762,0.011736329019759779,0.979733601225114,-0.2107723464596525,-1.0242536287552066,21.57451016756855,1.5126164225498588
1761283382.8823264,-2.0295583606371146,0.010612249370081091,0.9813208196603006,-0.218929059209666,-0.8760987379469775,22.225568718286215,-0.5613551097827545
1761283382.892239,-1.9853335280136093,0.008079056832173142,0.9815963456270653,-0.23089978057304947,-0.7332372266784133,22.84795510890975,-2.5051344088964
1761283382.9022386,-1.9672782202691157,0.0040536989613093365,0.9808045005456344,-0.24508556695922337,-0.6300717580058608,23.473401217312336,-4.213302835230157
1761283382.9123263,-1.9733908414295263,-0.001539480956394722,0.9792323178255057,-0.2598169744853627,-0.6011349341005452,24.13438049205028,-5.594779936581006
1761283382.9227664,-2.0011043901537846,-0.00877115421673829,0.9771508803327438,-0.273613818063708,-0.6766995167593548,24.859400894831378,-6.581576365440134
1761283382.9322186,-2.047581937689401,-0.01768514901647839,0.974781810270108,-0.28538614218494757,-0.8787922684398664,25.66740830356463,-7.134734116371936
1761283382.9422753,-2.1099590058954085,-0.028258607522740134,0.9722868945926486,-0.294552651827853,-1.218279772431977,26.562040202805452,-7.246503410412847
1761283382.9522166,-2.1854931425797965,-0.04036042680482904,0.9697734635011883,-0.3010702215402379,-1.693509590183715,27.526758078825786,-6.938499944311803
1761283382.9621997,-2.2716092948582336,-0.05372165636662563,0.9673076631443772,-0.305379843329781,-2.290689420562062,28.52187681992593,-6.2562700846637815
1761283382.9722114,-2.3658438685408445,-0.06792150220583314,0.964930561715944,-0.30828270013163,-2.9858357705838445,29.484271048283897,-5.261254009609296
1761283382.9822707,-2.4656966381931795,-0.08238641130119431,0.9626757888402205,-0.31076813878277537,-3.7478186022995397,30.330230809016083,-4.021544515397197
1761283382.9923024,-2.56841164730559,-0.09640208006505678,0.9605892809049108,-0.3138220014618847,-4.541863406232467,30.961636943319732,-2.6030539657206977
1761283383.0024378,-2.6707297019664527,-0.10914370249447441,0.9587502709541529,-0.31824555390287845,-5.332889690839239,31.275272068783497,-1.062640421447294
1761283383.0122533,-2.7686762053202556,-0.1197306031281087,0.9572890416782415,-0.324510920867029,-6.088240458621905,31.174606290084068,0.5556534375455722
1761283383.0222473,-2.8574567169193332,-0.12730599070624138,0.9563938999837637,-0.33267050420784505,-6.779620057210383,30.58285000819857,2.220770753870211
1761283383.0322466,-2.9315245371433916,-0.1311352245885834,0.9562997067293375,-0.34232908864350914,-7.384317593922954,29.455612180015024,3.911516145947806
1761283383.042252,-2.984862900587914,-0.13071109426403354,0.9572541565282123,-0.3526811607818524,-7.885967963117703,27.791289213975265,5.611092915231389
1761283383.0523207,-3.0114929542070934,-0.12585293186820554,0.9594654348070647,-0.36261138423316935,-8.275146307592758,25.637383721370917,7.300662929045011
1761283383.0622625,-3.00617893870824,-0.11678563577445338,0.9630437069253381,-0.3708491961359354,-8.55000236949285,23.091276366559818,8.953397968737931
1761283383.0722363,-2.9652549050795116,-0.10418274731898071,0.9679551997769418,-0.37615755642954196,-8.716951725264723,20.294509806004793,10.530332398324157
1761283383.0822244,-2.8874489528001743,-0.08915553591216654,0.9740067176456123,-0.37752476275026386,-8.791213266104506,17.42040437328415,11.978959750626746
1761283383.092649,-2.774545636008616,-0.07317210194737296,0.9808685659428982,-0.37432291045074895,-8.796802093127763,14.655826675849514,13.23500959753738
1761283383.1022189,-2.6317234006904333,-0.05790194102294196,0.9881303130612394,-0.3664011697601418,-8.76554081396885,12.179088292047009,14.227282982997727
1761283383.112219,-2.4674440680964422,-0.04500227289833992,0.995374957922344,-0.35409709205426715,-8.734786199539775,10.137018473886162,14.884910203260423
1761283383.1222079,-2.292852161732384,-0.03588449881127137,1.0022555162891194,-0.33817015934402045,-8.743855650662772,8.624878350076395,15.146000763853284
1761283383.1322877,-2.1207430924723876,-0.03151074093294688,1.0085598805210896,-0.31968014965705577,-8.82948822936061,7.672655499202878,14.96642497227164
1761283383.1427274,-1.9642508658196842,-0.03226475079699083,1.0142513466472378,-0.2998411675652118,-9.020979585021665,7.2403197816306575,14.327410672991094
1761283383.1522384,-1.8354601239728514,-0.03792065088301087,1.0194736847165513,-0.27987893328358,-9.335807569213262,7.223053554475154,13.24074858879099
1761283383.1622858,-1.7441513611621737,-0.04770678813775097,1.0245138752968286,-0.2609083992637041,-9.776577102007154,7.465701351571234,11.75066040589928
1761283383.1722047,-1.6968512426519806,-0.06044258854555414,1.0297248873496874,-0.2438373645688755,-10.329954305580651,7.784142132805653,9.931771812006302
1761283383.1822374,-1.6963043099767847,-0.07471993768410713,1.0354234136208897,-0.22929459648361505,-10.967950713130842,7.990271144448508,7.88311231052428
1761283383.192672,-1.7414249229159615,-0.08910327338689474,1.0417873186442161,-0.21757995150040482,-11.651509331726686,7.916892962839007,5.718588441491101
1761283383.202356,-1.8277311622589012,-0.10232531093078635,1.0487790769827683,-0.20863739813737112,-12.335926112160877,7.439011414850732,3.5548909910635773
1761283383.2122452,-1.948200256136009,-0.11345354028669807,1.0561141875187643,-0.20205578883852307,-12.977321923213264,6.488623902296023,1.4982411534603413
1761283383.2223856,-2.094419576778041,-0.12200004459379259,1.063281660471816,-0.19710350385358674,-13.539238775299259,5.061075309894279,-0.3683051809987291
1761283383.2322462,-2.257853429944898,-0.1279516413182359,1.0696122043424747,-0.1928006650658439,-13.99847610030669,3.212238615073086,-1.9951779912001564
1761283383.2426395,-2.4310244561276404,-0.13171280100051794,1.0743815604840397,-0.18802674072534056,-14.349450000528876,1.0471927147522178,-3.3726365036435606
1761283383.2522798,-2.608430881328627,-0.13397537177464097,1.0769316270824947,-0.18165324276105757,-14.606578780219305,-1.2975299706057917,-4.532081219029744
1761283383.262274,-2.787080403832789,-0.13554636666750486,1.0767891265585914,-0.17268395811710288,-14.804438084521625,-3.6749806512850385,-5.542056163063662
1761283383.2722661,-2.9665985281584195,-0.13717061948555437,1.073760195139975,-0.16038284060734456,-14.995691864125558,-5.948533161180332,-6.499489865074037
1761283383.282231,-3.148943420433086,-0.13937966267020885,1.067981345027745,-0.14437381480885744,-15.247084511954514,-8.00903833547101,-7.517429715200692
1761283383.2922966,-3.337817772105161,-0.14238767097115337,1.0599151606700632,-0.12470371385911505,-15.634028217349929,-9.786004899074005,-8.710980344454914
1761283383.3022363,-3.5379047966186787,-0.14604590534829648,1.0502927097345753,-0.10186387123539314,-16.234469929225835,-11.251661910102346,-10.183296599895396
1761283383.3122458,-3.754068522058388,-0.14986133530437243,1.0400193423232773,-0.07676650769470428,-17.122724352955863,-12.418067921231705,-12.013323762810492
1761283383.3222709,-3.9906478117515634,-0.15308000233588073,1.0300685512374195,-0.050673001577049,-18.36381161851597,-13.32856209654218,-14.246610983681737
1761283383.3322322,-4.250940548268321,-0.15482632687799602,1.0213855662220472,-0.02507531319597706,-20.008605417262128,-14.045633422249793,-16.890046547868256
1761283383.3422298,-4.536925172447793,-0.15427643563144264,1.0148119992021698,-0.0015384990493531225,-22.089894525416845,-14.63763117929443,-19.91083567263553
1761283383.3523185,-4.849213499509485,-0.150833174148819,1.0110319882284133,0.01848001575804251,-24.619380085390045,-15.166643611708162,-23.239500214347853
1761283383.3622181,-5.187185747374734,-0.14426838019284796,1.010533058494758,0.03381112163422341,-27.585674731398235,-15.67940306623149,-26.776179260378843
1761283383.3722885,-5.54923495305316,-0.13480441978203017,1.0135730166221457,0.04372666230996015,-30.953470115705265,-16.202372747686027,-30.399138264096504
1761283383.382217,-5.933044024816607,-0.12311875459607426,1.0201475524547878,0.04803739720741216,-34.66412086207069,-16.741381759216512,-33.9742409733021
1761283383.3924787,-6.335830407600905,-0.11026933427962536,1.029959122614302,0.04711778176261162,-38.63788485958567,-17.285410491200153,-37.36423449404732
1761283383.402256,-6.754515498560088,-0.09755196030863446,1.0423927559256154,0.04185255354319269,-42.77788930955064,-17.81345406715856,-40.437005092644505
1761283383.41245,-7.185802398457426,-0.08630991726872425,1.0565075640133625,0.03351654311242506,-46.97551552448733,-18.302850659916327,-43.07239738058247
1761283383.4227562,-7.62616972813188,-0.07771969941015844,1.0710541613355782,0.02361285990092787,-51.11638247203654,-18.73710235876291,-45.16763660872329
1761283383.43245,-8.071807096584635,-0.07257800227928966,1.0845269397226114,0.013698945728337202,-55.085708735580305,-19.111144035493528,-46.64172812746485
1761283383.4422622,-8.518529682197292,-0.07111945067847757,1.0952550156744925,0.005224957371465485,-58.77186173710482,-19.432392325076066,-47.43933484992595
1761283383.4522753,-8.961717221971421,-0.07290254396570278,1.1015277963971575,-0.0005992169396431084,-62.06746859489468,-19.716819004798445,-47.53450786732512
1761283383.4622366,-9.39632597644644,-0.0768063065041683,1.101743764858768,-0.002899591011393127,-64.86833102920066,-19.980600655151726,-46.93428660129137
1761283383.472296,-9.817016682738705,-0.08116977756244598,1.0945670999412305,-0.0011944977141119674,-67.07116353011001,-20.229228147411693,-45.68169326379634
1761283383.4825485,-10.218422278458254,-0.08407252545539667,1.079076752123687,0.004585775481228894,-68.57157361906893,-20.446851454561337,-43.85719798133116
1761283383.4922435,-10.595546853074332,-0.0837069117656616,1.054895297037162,0.0141138375620279,-69.26365873922789,-20.588736815681386,-41.577535284583654
1761283383.5022194,-10.944250971029232,-0.07875845566278675,1.0222875562260578,0.026714665808589246,-69.04222692040848,-20.578986848592983,-38.99095139879521
1761283383.5123076,-11.261751132882118,-0.06870849420590629,0.9822181854519546,0.04145026207773571,-67.80816576454386,-20.314447963215045,-36.268523338802055
1761283383.5223432,-11.547051031974618,-0.05399855190060258,0.9363528414471826,0.0572361992106424,-65.47701707043471,-19.674496169474107,-33.59192833540575
1761283383.5323086,-11.801229727285966,-0.03603046856939423,0.8869848017289114,0.07297914734504919,-61.99031613271729,-18.53549273982521,-31.138729298941694
1761283383.542335,-12.027531940390853,-0.017007610580617442,0.836875122533416,0.08771549846006117,-57.32862661514166,-16.78818044233701,-29.066702950226453
1761283383.5522487,-12.231232462745576,0.0003531923351403889,0.7890110232081171,0.1007253572530692,-51.5244909491494,-14.356014072321045,-27.498920383264466
1761283383.5622725,-12.419276038071018,0.013192025047770064,0.7463091900401535,0.1115988125878526,-44.672934046280496,-11.212246092051227,-26.511300851993756
1761283383.5726595,-12.599724043209461,0.0189016494224443,0.711310061019403,0.12024360475745235,-36.936960465734685,-7.393466327836027,-26.124302101056113
1761283383.5822444,-12.781067485149217,0.015489790583017046,0.6859171963197307,0.12683896868065708,-28.545863969366575,-3.007294597520732,-26.30017961749752
1761283383.592347,-12.971487876243966,0.001855063611585823,0.6712265084698471,0.13175179080758415,-19.785167890112696,1.76778086102809,-26.94664704578059
1761283383.6023142,-13.178158548378168,-0.022063443126685026,0.6674654352020573,0.13543543545714404,-10.978472486253295,6.691683300299781,-27.92683264443569
1761283383.6122816,-13.406675803113455,-0.05528388265508273,0.674033394218783,0.1383304454884182,-2.4630431232611767,11.4812213284488,-29.074437019501055
1761283383.6223342,-13.660691029663544,-0.09592368448400464,0.6896152302608447,0.14078233314115965,5.437815438720999,15.836398880440012,-30.2122194360865
1761283383.6322887,-13.941782795848267,-0.14145810316215454,0.7123345497490221,0.14298644085255682,12.442005052240505,19.471818800005597,-31.17145922848001
1761283383.6425142,-14.249566574580008,-0.18904832351434359,0.7399203253661563,0.14496423959598123,18.332039026554984,22.14935610966354,-31.809849700639724
1761283383.6522255,-14.581997762194268,-0.2358836735837907,0.7698708471536252,0.1465700817904317,22.971778121260733,23.707689360436248,-32.02540786580941
1761283383.6622155,-14.935790780562028,-0.2794847681703417,0.7996093004471945,0.14752317107157442,26.314654444415417,24.08432602348944,-31.764469689448813
1761283383.6723323,-15.30686036260268,-0.31792449705259573,0.8266336277495926,0.1474570861408823,28.40278404577271,23.3264868572831,-31.02267364445071
1761283383.682222,-15.690693727698246,-0.3499399656327578,0.8486673393017757,0.14597818474351965,29.357734948822333,21.588555873291103,-29.838910485338275
1761283383.6924686,-16.08258542128247,-0.3749312111269513,0.8638125074917091,0.14272332752844552,29.364953383382755,19.115610460998457,-28.283358031009303
1761283383.702837,-16.477709250646956,-0.39287003515652985,0.8706935976351607,0.1374066492661298,28.654608835409697,16.214584430537293,-26.44169619600999
1761283383.7136028,-16.87105616898223,-0.4041656597530213,0.8685747329260524,0.12984674117217632,27.481616983405132,13.216538922111628,-24.398172402596174
1761283383.7222228,-17.257314258644964,-0.4095387353460513,0.8574406710956222,0.119971466969264,26.10686544830944,10.43495662470393,-22.22023148767842
1761283383.7322276,-17.63078409134461,-0.4099343410215127,0.838042335438835,0.10780665535701288,24.780598954445402,8.125685691811027,-19.94700414515898
1761283383.7422574,-17.98539995058647,-0.40647036654828134,0.8119095176188238,0.09346296018579624,23.72806499894766,6.454054623036234,-17.583270458567362
1761283383.7524352,-18.314878144952132,-0.40039384436574493,0.7813282759061425,0.07713733777512673,23.137220934688045,5.473797043400543,-15.099764838381715
1761283383.7622194,-18.612963849967805,-0.3930166910806666,0.7492746850474028,0.059139312031622364,23.14849071703188,5.120902657349477,-12.439926754029253
1761283383.7725308,-18.873717630635788,-0.38561704895289184,0.7192915141759862,0.03993916235775403,23.84689051971945,5.223572884447634,-9.53241523553482
1761283383.7822192,-19.091778016069,-0.3793100738788755,0.6952917241964018,0.020220903240392798,25.257025159379193,5.527383163444885,-6.3079106934127
1761283383.7922335,-19.262551193335863,-0.37490455777066034,0.6812765673641694,0.0009140901079581841,27.341420932087637,5.732781450672822,-2.7179903572366424
1761283383.8024886,-19.382301060280057,-0.3727666555501599,0.6809685429077492,-0.016821257183449345,30.002474337836716,5.540332062255141,1.2467302249416012
1761283383.8122315,-19.448132709793597,-0.3727109764463185,0.697377978138524,-0.03167374258825514,33.08805044753703,4.69776801456329,5.542322222082315
1761283383.8222258,-19.457877759407506,-0.3739366985952178,0.7323425968256275,-0.04232645927757381,36.400542338571555,3.0421738729735384,10.064152046541611
1761283383.832235,-19.409903946060457,-0.3750248077748952,0.7860990796316625,-0.04765509376505541,39.70907078807484,0.530813577427965,14.648693917760468
1761283383.842229,-19.302886132696568,-0.37401110577342644,0.8569609773021478,-0.04694764898470582,42.76446976431518,-2.7445236259036125,19.085592432892536
1761283383.852305,-19.13558970354253,-0.36854650479849693,0.9411838085145038,-0.04010469116590015,45.31670443264865,-6.562323173580017,23.13936159650424
1761283383.8622296,-18.90672692333522,-0.35615047599318,1.0330913035048443,-0.02777689400587924,47.134297494531765,-10.594807743556066,26.578374724472535
1761283383.8722115,-18.614948714134016,-0.33455342866643983,1.12551295551007,-0.011404530843216897,48.02507111512021,-14.446444087913912,29.20729219917453
1761283383.8822198,-18.259024577438204,-0.30210572428735044,1.2105386230209942,0.0068590319873644105,47.85693721293147,-17.701512946977083,30.898016202169806
1761283383.8922403,-17.8382383762313,-0.2582037029618553,1.2805278191752256,0.024336613121542054,46.576580381371656,-19.973706584960865,31.61385068143905
1761283383.9022226,-17.352985990971053,-0.2036516342768496,1.329224384365201,0.03810995187698272,44.222883308952305,-20.951107834928788,31.42198695222079
1761283383.9122272,-16.805505232907844,-0.1408559368483306,1.3527474488788558,0.045369583321465984,40.931330917566726,-20.431465745514313,30.4908938639493
1761283383.9222362,-16.200607679912014,-0.07375415207261245,1.3502054044796028,0.04380107112307499,36.92601304934787,-18.344784225624167,29.071639867895467
1761283383.9322212,-15.546233954259142,-0.007432741716726613,1.3237517607100198,0.03196278370868032,32.49762402442829,-14.76205393990088,27.465235153573367
1761283383.9422219,-14.85364455812243,0.052522092107683015,1.278060182463803,0.009585400503318145,27.96889853842727,-9.889956087134339,25.981032428437924
1761283383.952341,-14.137112029110076,0.10080713757455541,1.2193724081973314,-0.022293420044862886,23.65245536381814,-4.051826493426009,24.89324206003349
1761283383.9622025,-13.41309802516688,0.13314380463137446,1.154384949272351,-0.06142915095275262,19.808814563347994,2.3440412398601542,24.40309738512204
1761283383.972217,-12.699042689596114,0.1468284163877116,1.0892470439480513,-0.10471872195716699,16.613257585239847,8.845996899096198,24.612986493973043
1761283383.9822202,-12.011999369736602,0.14100958819143772,1.0288601348394197,-0.14873331359363978,14.138709408964187,15.005613964042595,25.5163165284049
1761283383.9922419,-11.367368443881745,0.11668553291535393,0.9765499825425557,-0.1903069618000499,12.358250263673616,20.422748668246385,27.003778747027198
1761283384.0022185,-10.777920420760262,0.07646654225307177,0.9340771563454048,-0.22702932326940137,11.166152471503821,24.78252398095897,28.88387435424418
1761283384.0122693,-10.253190326755945,0.02417345981315674,0.9018868245884658,-0.25752202948934877,10.411807293908495,27.879295032386835,30.913567730433112
1761283384.0222545,-9.799221411991264,-0.03564970246083471,0.8794772154323036,-0.2814511652930846,9.937921111485522,29.62531789404886,32.8338915119623
1761283384.0322433,-9.418570898003866,-0.09823462239763699,0.8657784845222503,-0.29931241613917964,9.613848356895854,30.0446801610645,34.405165276997266
1761283384.0422423,-9.110473966976086,-0.15903643439507098,0.8594664363680137,-0.3120864658687661,9.357003513770472,29.255326647070596,35.43709832514189
1761283384.0522223,-8.871083147586319,-0.21408503030306109,0.85917428765964,-0.32088136998834477,9.139186041037318,27.443345300327373,35.81028488715239
1761283384.0622442,-8.693739427373423,-0.26021542678044157,0.8635999392596775,-0.3266575962326565,8.978974225938913,24.83405751067629,35.48721262130165
1761283384.072238,-8.56927278670713,-0.29517625162883954,0.8715311403387755,-0.33008562684642534,8.924640609566426,21.664111939489864,34.51254727721593
1761283384.0822265,-8.486361789450974,-0.31763703344002353,0.8818246091151122,-0.33153542092240684,9.033418093867853,18.15798292300296,33.003829797215545
1761283384.0922618,-8.43199543631838,-0.327127577069973,0.8933771384118744,-0.3311592531488327,9.352413047955986,14.511213986969684,31.134674811677222
1761283384.102252,-8.392071711442327,-0.3239427018154453,0.9051183352894469,-0.32901375430401514,9.904741585418254,10.881527343954916,29.113070435131068
1761283384.1123006,-8.352139673933051,-0.3090359452656804,0.9160393109562291,-0.3251721243364504,10.682449295452699,7.387634477560889,27.15751012710237
1761283384.1222358,-8.29825452353677,-0.28391291826019494,0.9252546496150281,-0.3197957535237387,11.646085373706429,4.114391331342939,25.47354612874338
1761283384.1322591,-8.217878415105025,-0.2505250208911578,0.9320825726673219,-0.3131572635446514,12.729687294599055,1.122048600198817,24.233041807226954
1761283384.1422524,-8.100734213952492,-0.21116062133612007,0.9361240899712253,-0.3056266243976215,13.849388347657266,-1.5431010532877127,23.557973565904827
1761283384.152227,-7.939512693642938,-0.168332343765115,0.9373244477601423,-0.29764194105031666,14.913784628088997,-3.8393531121475597,23.51012070727987
1761283384.162227,-7.730348195086058,-0.12466142321184494,0.936004337730869,-0.289683594363116,15.834460745902334,-5.723730305311101,24.087403928399496
1761283384.1722434,-7.473009178074664,-0.08275987651765457,0.9328504393130455,-0.2822578807256377,16.53550988407157,-7.151064638918408,25.226994345923412
1761283384.1823232,-7.170788942658654,-0.04510816370459616,0.9288553341643289,-0.27588293486314125,16.961292243766863,-8.078356374557215,26.81462310005685
1761283384.193073,-6.830116717967488,-0.013921848003265432,0.9252000385429646,-0.27106490583346693,17.0819028538082,-8.473456543287762,28.698834106622645
1761283384.2027123,-6.4599320741884565,0.009000471803701176,0.9230833835857909,-0.2682591099736739,16.89587537845469,-8.32591203181369,30.70835628197741
1761283384.2126403,-6.070875674711841,0.022447981996442393,0.9235205335651205,-0.26782190077845786,16.42971106224492,-7.6570714270147615,32.67045079982658
1761283384.2231367,-5.67435322944732,0.025967261357434355,0.9271488271101633,-0.26996247860980144,15.734095204632892,-6.526570199570188,34.4280752521343
1761283384.232231,-5.281534346433268,0.019986096545564495,0.9340828233342757,-0.2746978975226073,14.877198584317041,-5.033075816185613,35.853990640436
1761283384.2422369,-4.902356206884868,0.005838463290791768,0.943851121318033,-0.28181180548772145,13.936074094704882,-3.3083712248829578,36.860479812317
1761283384.2522545,-4.5446117532283585,-0.014339499773337743,0.9554310356586649,-0.2908270910359036,12.98753736840353,-1.50514862647685,37.4040660232294
1761283384.2627857,-4.213211153579207,-0.03783243646981641,0.9673768247246045,-0.3010130145711082,12.099878961604698,0.21992782601730818,37.485350568412265
1761283384.2728004,-3.9097105529680647,-0.061649377046154565,0.9780159602905808,-0.3114416706597034,11.326378648700697,1.7253435496057514,37.144620217172566
1761283384.2829757,-3.632195754447269,-0.08286290658602255,0.9856749527608023,-0.32108967049723663,10.7010977322941,2.9028044626997764,36.45409156083439
1761283384.29283,-3.3755805178076215,-0.09894145617987778,0.9888971835209354,-0.32896497635933086,10.23697815730735,3.6908852559098975,35.50766121574206
1761283384.302979,-3.132323851760848,-0.10803432212624313,0.9866234260708812,-0.33423343197338234,9.925968001565387,4.081634112376748,34.40909783739339
1761283384.3124416,-2.8934897029080404,-0.10916709339843769,0.9783146077506079,-0.3363222554438246,9.740764568953455,4.119128256346702,33.259898674849566
1761283384.3222272,-2.6499810558415753,-0.10230337581702112,0.964008795234569,-0.33498604901301177,9.63779499547643,3.890795157220711,32.14832357424556
1761283384.3322942,-2.3937140780317088,-0.08824323419932406,0.9443204940451262,-0.33033198920230183,9.561161549203174,3.5135680883119824,31.141052281769532
1761283384.3422558,-2.118499204359557,-0.06837117002904987,0.9204005964294061,-0.3228090961123658,9.447371613426188,3.1174046599675784,30.278390482499475
1761283384.3526762,-1.8204818015201172,-0.044320674817779245,0.8938738559884807,-0.313168199757434,9.230670088962672,2.8285978027411383,29.57318561209447
1761283384.3628829,-1.4981352890396253,-0.017654748338077998,0.866762830550296,-0.3023969833029359,8.848676768409131,2.7549187777198183,29.012888688837485
1761283384.3727062,-1.151932613660541,0.01034790340435126,0.8413993706062075,-0.29163277537870247,8.247882023399203,2.9741158006432635,28.563726880291046
1761283384.3822443,-0.7838917634766592,0.0387564149970569,0.8203174118494935,-0.2820559765494947,7.388482908387537,3.5267454020853934,28.17583846626108
1761283384.3922727,-0.3971761830541079,0.06691404867833947,0.8061133299361729,-0.2747686305039425,6.248092947273217,4.413772736324303,27.788444417791894
1761283384.4022272,0.004148284530325687,0.09428448431719846,0.801256733415988,-0.2706655437985428,4.823989780631905,5.5988659714963696,27.33455037458257
1761283384.4122386,0.4151939024393344,0.12028871933121392,0.8078419194954417,-0.2703088705585857,3.133715654543786,7.014888666762021,26.74508719427709
1761283384.4223342,0.8302274884291341,0.1441851392791703,0.8272900255715226,-0.27382033184249455,1.2140042529485096,8.573803767809816,25.95262439322134
1761283384.4322298,1.2426155233415386,0.16501322502500418,0.8600382768552925,-0.2808081285634376,-0.8818150806832401,10.178989533017695,24.894759034235886
1761283384.4422529,1.6447929155615963,0.18159949944356524,0.9052752377322465,-0.2903462974324248,-3.0876206478047474,11.738734317903049,23.51708351773987
1761283384.4524226,2.0282967245059407,0.19262433818820285,0.9607916377335767,-0.30101923827124066,-5.3291163024296555,13.179404788615955,21.775453693606522
1761283384.4625978,2.383909626815983,0.1967551263102902,1.0230128971340573,-0.3110332336379153,-7.5289306280587285,14.456558179661672,19.637242409077043
1761283384.4722579,2.7019534259376523,0.19284047849866062,1.0872585325314603,-0.3183824624079145,-9.61205399847415,15.562242396792549,17.08136915018628
1761283384.4822464,2.9727345005434436,0.18013311987141709,1.1482290953230407,-0.32104205771486644,-11.511703558786968,16.527038268786686,14.097083354462907
1761283384.49233,3.1870847392388906,0.15849103416329055,1.2006590629237068,-0.3171542170740734,-13.17579894843504,17.416055868465136,10.681732339028592
1761283384.5022943,3.3369026925714733,0.1285093244599132,1.2400197424847925,-0.3051864954494089,-14.573964962702306,18.318956523694904,6.8380872196840565
1761283384.5123005,3.41560068145144,0.09154645737360068,1.2631381308389924,-0.2840677662147049,-15.704297926443683,19.334984007510975,2.5721800786029285
1761283384.5222635,3.4183935867994615,0.04962247748873767,1.2686216125862426,-0.253322345736266,-16.598355663944933,20.55485085466123,-2.1071856971332132
1761283384.5322702,3.3424060811125202,0.005195076524143059,1.2570229693932895,-0.2132107447109386,-17.322527715723183,22.041980322236334,-7.186302354154497
1761283384.542282,3.1866171740968583,-0.03913923381578218,1.230722987182177,-0.16485561530915055,-17.97446728368331,23.815867150853773,-12.641541826947252
1761283384.5522947,2.9516954449769037,-0.08094440814493899,1.1935485000581096,-0.11030575563030243,-18.67441777584699,25.84014084814298,-18.432170536917422
1761283384.5628417,2.639794519319129,-0.11817868730936222,1.1501893732628403,-0.05248489599117315,-19.552480004841915,28.017381985319275,-24.492654827983714
1761283384.572964,2.2543712653478014,-0.1493315687026483,1.1055207079265275,0.0050125294661905245,-20.733679810689758,30.191954009285997,-30.726692608177537
1761283384.5822794,1.8000640704178068,-0.1734669399592461,1.063957705631278,0.05828352573022456,-22.322979278947326,32.161138825496984,-37.005130367846576
1761283384.5930023,1.2826368100746335,-0.19019297340811558,1.0289572869411532,0.10359558161750984,-24.39221264465699,33.69378727338242,-43.169155811714404
1761283384.60227,0.7089666143801889,-0.19958113147230913,1.002733581076426,0.1378930595027075,-26.97046425010697,34.554631831193404,-49.03896413765282
1761283384.6122754,0.08703570069039551,-0.20205454503499568,0.9861925781508212,0.15921413569425147,-30.038800218460988,34.531497301470466,-54.426907786086964
1761283384.6223087,-0.5741204861692288,-0.19826960731200538,0.9790443376279943,0.16692053389236838,-33.52965924828894,33.462041285196506,-59.15331053703338
1761283384.6322353,-1.2645549112518317,-0.18901926663279073,0.9800351537366931,0.16170368315328207,-37.3306879898916,31.25650583553785,-63.062786990563154
1761283384.6422687,-1.9736731740144482,-0.17517981188732412,0.987246620249294,0.1453971658182154,-41.29241808938769,27.913332247784922,-66.0389717854687
1761283384.652242,-2.6906288878199676,-0.15770376493877375,0.9984159832026952,0.12066245896406118,-45.23893714170657,23.525312867331092,-68.01586942526528
1761283384.6622424,-3.4048301019802,-0.13764308202770587,1.0112376853741933,0.09062054646135094,-48.98057892202679,18.275069933900824,-68.98448094079126
1761283384.6723318,-4.1065120202014365,-0.11618021743234636,1.0236137430824848,0.05849071198500063,-52.32760503740394,12.419939067474742,-68.99392224295414
1761283384.6823082,-4.787315589762143,-0.09464804723324419,1.0338322927238446,0.027279946219506957,-55.1038306599979,6.267713202523112,-68.14690885649543
1761283384.692244,-5.440805585773475,-0.0745254839372295,1.0406667739297386,-0.0004536585449081108,-57.15915159089629,0.14601106161690514,-66.59017839994598
1761283384.702233,-6.062864704885175,-0.05739919481422852,1.0433997282117042,-0.02275809241493854,-58.379986353916244,-5.630982442264062,-64.50104466187393
1761283384.7122781,-6.651910639257963,-0.044883489116153544,1.0417836963572151,-0.0383711174598092,-58.69678614183374,-10.794205616335304,-62.07171619109238
1761283384.7222748,-7.208899597228894,-0.03849338405883706,1.0359571683366005,-0.0467394916442267,-58.08800205204078,-15.145809246604124,-59.4931952785402
1761283384.7322378,-7.737100704045897,-0.0394728891079546,1.0263363249727724,-0.04798089722373855,-56.5802316219777,-18.5763890127829,-56.94048851471435
1761283384.7422223,-8.241649800842916,-0.048591766807242476,1.0135035127529866,-0.04279525473777509,-54.24465088660869,-21.071332991075796,-54.560569767884694
1761283384.7522614,-8.72891735099872,-0.06593814774129206,0.9981107914774517,-0.032336281541682575,-51.19019012412354,-22.705670275742143,-52.464136975446685
1761283384.7622776,-9.205751912748795,-0.09074896585621499,0.9808115228915119,-0.018059837619097647,-47.55416632733811,-23.62818840712006,-50.721749567250406
1761283384.7722924,-9.678683904574495,-0.12132899078686889,0.9622254224394629,-0.0015673963006170263,-43.49122777953821,-24.036885156531852,-49.364407199431106
1761283384.7823,-10.153187556498898,-0.15510416157229479,0.9429336621232226,0.01554043573004833,-39.16151150417131,-24.149035185762354,-48.38801700289928
1761283384.7922516,-10.633095862883435,-0.18883249370239436,0.9234921281792622,0.03179100031183163,-34.718889610644034,-24.170149891652194,-47.76057797731396
1761283384.8022473,-11.12024144881783,-0.21895977828251667,0.9044458891257321,0.04594250781656015,-30.30010715104838,-24.26658944445842,-47.43046968420788
1761283384.8122356,-11.614358098318414,-0.2420676915364418,0.8863295253823201,0.05706074033520939,-26.015507054999905,-24.54624163065526,-47.33414475279405
1761283384.8222404,-12.113231818503822,-0.2553333768443501,0.8696464139907055,0.06456903386872277,-21.941925648030523,-25.050393029608433,-47.401853786900006
1761283384.8323154,-12.613049318395452,-0.2569142096950614,0.8548312024527536,0.06827245772334939,-18.1182580452013,-25.757844591596573,-47.560693442446336
1761283384.842359,-13.10886645185062,-0.2461902224461742,0.8422078027487909,0.06835865880648549,-14.544143233403585,-26.599875250124505,-47.735077373506144
1761283384.852278,-13.595113613040212,-0.2238295426566314,0.831956811383416,0.06537862972582087,-11.182176413310101,-27.48239318613776,-47.84547841827661
1761283384.862444,-14.066067237290927,-0.19167776107437964,0.8241011737806858,0.0602096206201957,-7.9639449148187,-28.310093471555565,-47.806819597635624
1761283384.8722482,-14.516241841718227,-0.15250465221459683,0.8185099921326072,0.05399927943127531,-4.799896735473979,-29.007043387579024,-47.528110148746315
1761283384.8824894,-14.940689529454488,-0.10966756222062966,0.8149130220788171,0.048085660344181276,-1.5925592370529915,-29.52895103679067,-46.914783337030364
1761283384.8922522,-15.335224498222962,-0.06676105065037306,0.8129170440201915,0.04388463732881836,1.7479627797608517,-29.864298162022887,-45.87466105107878
1761283384.902247,-15.69660709503825,-0.02730750913585304,0.8120184540074965,0.042739257594193045,5.287835558875761,-30.024150707415213,-44.32756024915115
1761283384.9126418,-16.022717680769286,0.005490206485589923,0.8116091065582994,0.04573775784555589,9.054788377972505,-30.023170117406323,-42.21743387984819
1761283384.9223077,-16.312728272974823,0.028942249754567724,0.8109746605135939,0.05352446999372215,13.027279598561595,-29.856437853534292,-39.52493903963342
1761283384.9322505,-16.567252023155817,0.0410256948735012,0.8092919393884462,0.06614092225421511,17.129990216216207,-29.47772318667175,-36.27777452851203
1761283384.9423015,-16.78843008417337,0.04049940044383315,0.8056448899136947,0.0829355084064515,21.237570306272747,-28.784694722508373,-32.556163436217474
1761283384.952507,-16.979909690134424,0.026962970429067482,0.7990885018033869,0.10256915251056097,25.18735945229534,-27.615479981088495,-28.491449297653563
1761283384.9625175,-17.14667730238665,0.0008362055853257185,0.7887856432502368,0.12312628338321666,28.800063217829845,-25.759190221988458,-24.25684797401767
1761283384.9722557,-17.294732955745935,-0.03675543767017073,0.7742207489423039,0.1423195936400728,31.905534274543903,-22.98084156502198,-20.05078717643198
1761283384.9822311,-17.430620182826303,-0.08418140902003109,0.7554644604985251,0.15775691506337877,34.36945825722332,-19.058789907319497,-16.07468223580079
1761283384.9922435,-17.56085256885626,-0.1395565319263027,0.7334365784629585,0.16722406477970356,36.11630340764523,-13.830582518039558,-12.508128024943797
1761283385.0022395,-17.691295888243822,-0.200981402300152,0.7100996198511557,0.16893488179569802,37.1444416868672,-7.241203029172181,-9.485113873864451
1761283385.0122514,-17.826568840090005,-0.2667027565478419,0.6885145912915339,0.16171204101079378,37.530660754306346,0.6137396631413307,-7.074902381323381
1761283385.0224628,-17.969515103922642,-0.3351342736411684,0.6727037387646002,0.14508616767300225,37.42295844821624,9.45795507779494,-5.270693255446209
1761283385.0322583,-18.120780811728114,-0.40471035843897185,0.6672907401479591,0.11932660396971763,37.02215353547513,18.825102496478838,-3.9882281208644446
1761283385.0422866,-18.278515971266952,-0.4735941194047744,0.6769252909234016,0.08543272818523369,36.554277344831625,28.075781725736825,-3.0751714535352965
1761283385.0522456,-18.43821588783166,-0.5393143650018617,0.7055432570777344,0.04511063619911997,36.236986170033376,36.44340856182681,-2.330499848085413
1761283385.0622609,-18.592729005637086,-0.5984481376616495,0.7555597174161292,0.0007355993432883137,36.24444149576744,43.10746374074652,-1.531403179382778
1761283385.072263,-18.73246845535306,-0.6464788777928955,0.8271311158499132,-0.044731785237979445,36.67611157860563,47.28815280466489,-0.46365728916948096
1761283385.0824242,-18.845860637381342,-0.6779389767612412,0.9176441637203304,-0.0879270820762757,37.53534159360783,48.3521847324108,1.0495104087501743
1761283385.092255,-18.92003944978814,-0.6868950932739558,1.0215844247004038,-0.12540144781899717,38.72283828406292,45.915833915136915,3.1249888932989633
1761283385.1022484,-18.941756151611667,-0.667766570910487,1.1309000925398178,-0.15407696829282513,40.04817736924489,39.92944279115004,5.807513446827467
1761283385.1122525,-18.898435021549453,-0.6163890122679391,1.2359014072542969,-0.17177650091862107,41.25921934807664,30.727738808789145,9.06915188039109
1761283385.1222394,-18.779274300495615,-0.5311506265530874,1.3266205537451379,-0.17771245326559193,42.08539830949444,19.033243976920797,12.819610769590374
1761283385.1322424,-18.576276289768117,-0.41395239622193614,1.3944083007955077,-0.17279268357581895,42.28700540936526,5.905738950933076,16.92417103281277
1761283385.1422598,-18.28509274579943,-0.2707102610313799,1.4334043337330467,-0.15961968542709248,41.699970992298745,-7.3611687853338985,21.224690645047897
1761283385.1522837,-17.90559158160795,-0.11117342453197626,1.4414761466904178,-0.14212698536925883,40.26559925534351,-19.38579870163032,25.55902367107953
1761283385.162261,-17.442084257378514,0.05200919897061638,1.4203527675641763,-0.12490322760121296,38.0379725763619,-28.866739442223775,29.775451526056358
1761283385.1722326,-16.903194027884116,0.20483198998269114,1.374952724558449,-0.11236332872415937,35.16763521974162,-34.74780743953426,33.74088090244981
1761283385.1822507,-16.30138726778397,0.3337711497046184,1.3121739868608178,-0.10798442339709051,31.866677199231788,-36.35273570503418,37.34377252259259
1761283385.192287,-15.652225994949221,0.4275444879717352,1.2395359718476402,-0.11379763981060984,28.365163756566353,-33.468018603604065,40.4940883249649
1761283385.202263,-14.97342108223057,0.4784776044452575,1.1640139559154083,-0.13022754545098364,24.870477263270775,-26.36250352675409,43.122528820904876
1761283385.2122471,-14.28376905084588,0.4832928837850343,1.0912598468416828,-0.15625076271267155,21.53930117432316,-15.744155982681887,45.18030284664031
1761283385.222794,-13.602046330715385,0.4432786491922785,1.0252519112962348,-0.18975932545002178,18.467501718173292,-2.664488655899754,46.639443590021024
1761283385.2322803,-12.945923676409112,0.36390330516388725,0.9683104588911587,-0.22799119784753827,15.697498407702332,11.612617919592102,47.492954184344654
1761283385.2424214,-12.330957973567191,0.25399794987864804,0.9213649613383138,-0.26792272106887055,13.237586755257482,25.75868197208443,47.75402513015857
1761283385.252249,-11.769721200864511,0.12464840329696315,0.8843481400471142,-0.30657549817068974,11.084729246758133,38.52652335264013,47.45397459385508
1761283385.2623434,-11.27113214513463,-0.012065240135181109,0.856607322735213,-0.34124061755353546,9.242499025151572,48.87807611520024,46.63907462783392
1761283385.2722886,-10.840055101250131,-0.14434803581392391,0.8372499870179501,-0.36964679806960904,7.728842260499931,56.08100942605379,45.366821468271496
1761283385.2822843,-10.47721130287315,-0.261857093392832,0.8253733493874277,-0.3900958210087871,6.5727007301322224,59.76490343054997,43.70240807033707
1761283385.292867,-10.179412174872592,-0.35663145034158256,0.8201650660177543,-0.4015710107411165,5.802521151367242,59.93244495014812,41.71613958114262
1761283385.302466,-9.94007842496137,-0.4236822183454899,0.8208979271767619,-0.4038065648765152,5.431947952507238,56.926618032226536,39.48228998720933
1761283385.3124423,-9.749969351761782,-0.4611820024614442,0.8268657613295697,-0.39729684423141665,5.4481117435212765,51.36052920341096,37.07946207187693
1761283385.322283,-9.598021974455852,-0.470251049322542,0.8373128103121801,-0.38322943395035325,5.806293977573868,44.02134078034734,34.59198101852166
1761283385.3322697,-9.47219226356046,-0.45440120366764,0.8513951922436949,-0.36334131624847654,6.4322842311161414,35.76287331061464,32.111381243601485
1761283385.3427265,-9.360200477513194,-0.4187517237449114,0.8681890467622111,-0.3397155671831838,7.231400067113067,27.402218862741353,29.736804770939646
1761283385.352803,-9.250109891232745,-0.3691603675289007,0.886736295945066,-0.31454831678593426,8.101531096870513,19.634066767259274,27.57322902782605
1761283385.362839,-9.130713207839639,-0.3114139660323539,0.9061042101848706,-0.2899191349975226,8.946929015731442,12.972681149365282,25.726886275206773
1761283385.3732686,-8.991757819983528,-0.25059786738422796,0.9254328213041569,-0.26759361423580397,9.68975059805205,7.726259083016892,24.297921258251492
1761283385.3830547,-8.824093988562721,-0.1907199867639791,0.9439528256735489,-0.2488773114513349,10.277326496021137,4.002757061578782,23.371080895504992
1761283385.3928604,-8.619857213624979,-0.1346106208384652,0.9609713587672342,-0.23453013945167647,10.68439561911953,1.7413391258374225,23.005835914222985
1761283385.4025548,-8.372780870211187,-0.0840628269786732,0.9758390909870525,-0.22474485322620144,10.910737799919183,0.76024755217313,23.227626498355015
1761283385.4123616,-8.07867616419788,-0.04013102239592562,0.9879231413577703,-0.21919126305604678,10.975496309331215,0.8105322149007683,24.02182567267698
1761283385.4222834,-7.7360317832707,-0.0034792004144038255,0.9966096544026705,-0.21712280627153993,10.909881975638434,1.6256969721466235,25.33156820100636
1761283385.4324694,-7.346607462581571,0.025326857642156544,1.0013469284729173,-0.21753230242548768,10.749901315517702,2.9596390843804836,27.059935411269002
1761283385.4429932,-6.91585477476572,0.04565741685122834,1.001721308236486,-0.21933375707017147,10.530370101202802,4.608743471242745,29.076310520403105
1761283385.4528592,-6.4530088356078945,0.0568119549220926,0.9975417467708423,-0.22154137778807884,10.280912048874825,6.417926865309475,31.226206057512517
1761283385.4622903,-5.9707501797414055,0.05814454867763063,0.9889022700785621,-0.2234178330590712,10.02403633758526,8.273944972613663,33.3435753806791
1761283385.4723215,-5.484416522261399,0.049266760820046204,0.9761997733415704,-0.22457234985005822,9.774880970297401,10.091524916383344,35.26446990281584
1761283385.4830263,-5.010823144966383,0.03026675111885192,0.9601037368508326,-0.22500156710095864,9.541939299777985,11.798365933958745,36.84079272623342
1761283385.4928594,-4.566807207167361,0.0018965511037166928,0.9414906822254988,-0.22507339033043128,9.328094556425185,13.323897779470226,37.952825338420226
1761283385.5031486,-4.167641961066511,-0.03430388513291489,0.9213607197895682,-0.22545428515479626,9.131476143978045,14.594522715951125,38.51921516354529
1761283385.5129442,-3.8254844259741922,-0.07597098561532871,0.9007524662318307,-0.22698341468085212,8.945891117640516,15.535618284978359,38.5032292608946
1761283385.5228617,-3.5480354293027987,-0.11999829910983745,0.8806741275889525,-0.2305109395468435,8.760822291878052,16.078491411733292,37.91434698372087
1761283385.5328453,-3.3375983221562495,-0.16275852101435168,0.8620693773189237,-0.23673587181435904,8.56123156544877,16.169316165137506,36.80480723237092
1761283385.543113,-3.19070288141078,-0.20046462829246106,0.8458285161827713,-0.24608621822333065,8.327644810046786,15.777137284002169,35.26159763368261
1761283385.5528133,-3.0983971339433727,-0.2296161102507505,0.8328378278698395,-0.2586723704647863,8.037126708912295,14.898982491008047,33.395317436430155
1761283385.563341,-3.047205320940897,-0.24742962396922735,0.8240424416497016,-0.2743173837661556,7.665636954988076,13.561306815811864,31.327882120735598
1761283385.5726948,-3.0206326090138624,-0.2521512649837605,0.8204910707750162,-0.2926376698205117,7.191810724667507,11.817907201201125,29.180888172266663
1761283385.5832965,-3.0010020230041214,-0.24319315625067628,0.8233369820781945,-0.3131300852448466,6.601529175240414,9.745081086021683,27.06580166799075
1761283385.5935059,-2.971359886902931,-0.22109470223416963,0.8337818699424081,-0.33522545414166416,5.8920226814321826,7.435279480563864,25.07639841995724
1761283385.603046,-2.9171900468113034,-0.18734868591464207,0.8529608008236552,-0.3582905800569243,5.073985641732966,4.990747543799839,23.283380207507044
1761283385.612577,-2.827729628428747,-0.14415082294810672,0.8817749202688908,-0.38158736465949833,4.170454490076974,2.5184525017358403,21.730900443927162
1761283385.622298,-2.6967635597705293,-0.09413324183830095,0.9206856583227698,-0.40421540981757254,3.211998233036956,0.12688507207741556,20.434774807763784
1761283385.6322777,-2.522866133460519,-0.040129080037045295,0.9694922938579421,-0.4250680715190476,2.2288750651105147,-2.075721853969319,19.382298461317582
1761283385.6428187,-2.3091336575275077,0.015008517297075257,1.027126016364861,-0.44282507988532394,1.2418442836749544,-3.9831133025970025,18.533724618590043
1761283385.6523201,-2.062504822235229,0.06853420169983368,1.0915068528533411,-0.455995180208654,0.25391128573274035,-5.494269732303851,17.825496484919498
1761283385.6624203,-1.7927972759140023,0.11790243778863899,1.1595182720351256,-0.46301412971392064,-0.7547909590785864,-6.5191861435376435,17.175238949659818
1761283385.6724777,-1.5116031562214103,0.16084563798005128,1.2271477339353078,-0.4623949621459484,-1.8274997489199984,-6.986944771430656,16.488351095618743
1761283385.6831064,-1.2311830761264724,0.1954543358033153,1.2898133100994573,-0.4529152346403572,-3.026347373341114,-6.854592445197901,15.6658520004627
1761283385.6926687,-0.963477430979198,0.22026400120177458,1.3428509583778292,-0.4338117609088743,-4.4237460948050495,-6.114577273512186,14.612905602777102
1761283385.702744,-0.7193193135540417,0.23434419091059835,1.3820883021453503,-0.40494410550021387,-6.0913689988927615,-4.798554724681485,13.24713001359446
1761283385.7123144,-0.5078923177431193,0.23738311705630016,1.4043959227563414,-0.36688943507601324,-8.088891016027658,-2.976143928412995,11.505441693114898
1761283385.7223759,-0.33643899365887725,0.22975856833408795,1.4081011706139013,-0.32094340043996505,-10.454584801718287,-0.7482685214783735,9.348049534023435
1761283385.732507,-0.21019978866327987,0.21257621828686962,1.3931785372718284,-0.2690205001635021,-13.199369539389984,1.7643654233661785,6.758581261103228
1761283385.7422793,-0.1325497478656326,0.18764250753323028,1.361184966381648,-0.21346721406978944,-16.305102258959728,4.436384647497729,3.740222315404674
1761283385.7522633,-0.10529639072909286,0.15733622132085684,1.3149694855247949,-0.1568190454327426,-19.72695820179378,7.154451740569409,0.30886608974451596
1761283385.762315,-0.12909984651636647,0.12436133552342626,1.2582378997701438,-0.1015480074305588,-23.39890553353939,9.832701837982926,-3.5148162736241355
1761283385.7726169,-0.20396927277742422,0.0914017509571902,1.1950781730475653,-0.04985377993694008,-27.24074701841389,12.423425249903907,-7.71208114080511
1761283385.7822733,-0.32977555928499847,0.06074124735481974,1.1295382636149254,-0.003538081448728678,-31.165101725782733,14.919702939398634,-12.26951448587673
1761283385.7923398,-0.5067045033048885,0.03393686904201654,1.0653071501967248,0.03603136499149201,-35.083086857406016,17.348124111038377,-17.177845978436938
1761283385.8024607,-0.7355682177817852,0.011625690166942104,1.0055102640771982,0.06789338499314812,-38.90823696737995,19.75211964295103,-22.42602788082059
1761283385.8122675,-1.0179047423470189,-0.006492180971336158,0.9526083195963335,0.09144173422560692,-42.55902714829511,22.169002230090243,-27.99160463192963
1761283385.8223038,-1.3558269841334185,-0.021497786031098066,0.9083796309798069,0.10638270410062993,-45.96081315201423,24.605601342022826,-33.829338221341
1761283385.8322952,-1.751624338840474,-0.03496438577408716,0.8739620661341755,0.11272124716991538,-49.04785053566105,27.017907196346993,-39.86059490683343
1761283385.843002,-2.2071639155416447,-0.04859456225611044,0.849927707723602,0.11078034415765774,-51.7654707461059,29.29940896869248,-45.96609331804336
1761283385.8522813,-2.723176779150648,-0.06384975110977802,0.8363616954308511,0.10124527515619342,-54.07186349059661,31.281171648847625,-51.98430440095407
1761283385.8622813,-3.29854420722826,-0.08163878134390105,0.8329211786803642,0.08521252015940971,-55.93858281837287,32.744552106751144,-57.717113087817495
1761283385.872432,-3.9297143628285776,-0.10212392388327236,0.8388646980811761,0.06421276636854745,-57.34901567731989,33.44517154770536,-62.94326602687849
1761283385.882276,-4.610373773321895,-0.12468353870982934,0.8530626396795639,0.040173626056994205,-58.29460661754624,33.14468560438625,-67.43865067243233
1761283385.8922915,-5.331466255660521,-0.1480408988139861,0.8740132070060781,0.015297759509771696,-58.76944063557665,31.645364718778914,-71.00082634105542
1761283385.9022868,-6.081597503394613,-0.17053452223517315,0.899886294718067,-0.008141880210476824,-58.76452822710072,28.821773598346674,-73.47393830833319
