timestamp,angle,linear_acceleration_x,linear_acceleration_y,linear_acceleration_z,angular_velocity_x,angular_velocity_y,angular_velocity_z
1760681127.2174366,-32.373701322423855,-0.399682312816215,0.9391117423294737,0.1327269103484313,24.673876430893284,-14.447878338194608,15.032363910621681
1760681127.2275903,-32.10980581407295,-0.3952160663877503,1.030638654582661,0.13931343972639534,24.71664723472079,-12.793826511803465,19.442118430088524
1760681127.2375827,-31.78858678880207,-0.39439869925878995,1.1179094068701947,0.13542048583058705,24.16205440009858,-9.651794145801661,23.115466898807867
1760681127.2475946,-31.422982587367315,-0.39485364696647307,1.193385918345991,0.1198926163071676,23.02683480720097,-5.314174291764931,26.068714236132525
1760681127.257714,-31.02486114283384,-0.39422424685372,1.2505528196046938,0.092665599324407,21.3905674755416,-0.1681345090857062,28.397749943498763
1760681127.2674012,-30.60397533606627,-0.3907746056251039,1.28493589529279,0.05481645573998005,19.392521021170005,5.348324967135248,30.26858515780388
1760681127.2775412,-30.167312111995226,-0.38379472171377027,1.2948115737250192,0.008472184640985753,17.218327776806632,10.793118397439864,31.895239071422065
1760681127.2873201,-29.718875506342922,-0.37370595283607566,1.281397914609308,-0.04339637092517426,15.076956169910954,15.763711329035518,33.508669477794136
1760681127.2975934,-29.259875643649288,-0.36185925935718477,1.2484522838525853,-0.09727024737932492,13.171006783867895,19.932652154565904,35.32234482013861
1760681127.3078196,-28.789247926580305,-0.3501097984152874,1.2013874786864447,-0.14944995903708178,11.66580323514012,23.071592108598583,37.500400807488106
1760681127.3176334,-28.30440104371995,-0.34030527561743346,1.1461710034852641,-0.19646959612488188,10.664010728601944,25.06219734067315,40.13333445557802
1760681127.3275485,-27.802080822216407,-0.33382667589381504,1.0883180778398065,-0.2355077066247435,10.191757726152328,25.89404601963334,43.224510570260755
1760681127.337368,-27.27923162106496,-0.3312790402394226,1.032215818906756,-0.264723359154719,10.199472388011918,25.651108541525684,46.68897046179574
1760681127.347362,-26.733740108849936,-0.33237543681060655,0.9808708022644501,-0.28344603178097,10.576812181044698,24.489722664644997,50.36437949973605
1760681127.357367,-26.164965769546832,-0.3360126102823678,0.9360226898526578,-0.29217542802398433,11.177514348644252,22.611901400033602,54.032409340504
1760681127.3675926,-25.574000528414462,-0.3405065028275322,0.8984685756394207,-0.29239236051973866,11.847854660420278,20.238070078927898,57.44742652507124
1760681127.3778133,-24.96364859526279,-0.3439337084494973,0.8684225805426607,-0.2862282948234818,12.452205238296687,17.58281501891214,60.368266030937015
1760681127.3873508,-24.338163456216343,-0.3445078355074275,0.8457836519239942,-0.27607358761511247,12.890779812564396,14.836120724649138,62.58843243923521
1760681127.3975112,-23.70280994585032,-0.34091151430157457,0.8302647927471634,-0.26421224748402977,13.107322889440704,12.151258762476964,63.96048044356418
1760681127.40756,-23.06333072017512,-0.3325120490631421,0.8214078817342972,-0.25255197983718275,13.087259968160144,9.639351055125942,64.41150042350354
1760681127.4176977,-22.425392195352053,-0.3194159492813317,0.81854531585405,-0.24248114951322453,12.848868480744832,7.369864534706218,63.94827208906008
1760681127.4275348,-21.794074218873064,-0.3023622530228282,0.8207705910944402,-0.23484535463735626,12.430974229230133,5.375881834641484,62.65234119129028
1760681127.4376523,-21.17345772115072,-0.28250284019298005,0.8269567622618328,-0.23000998884969096,11.880565568111738,3.6627681309122355,60.666655870509075
1760681127.4473615,-20.5663554973956,-0.26114759190475395,0.8358309906626696,-0.22796699719453092,11.242841590719584,2.218653956751734,58.17629320542001
1760681127.4573166,-19.974217132264574,-0.23954800708004417,0.8460895414384912,-0.22845064705552218,10.554967374259915,1.0249697223249299,55.38623911035213
1760681127.4675329,-19.397215099479716,-0.21876079026908893,0.8565282123378176,-0.23104082629412515,9.84359307869225,0.06526633109403643,52.49925372306222
1760681127.4774706,-18.834487985616537,-0.19959458202010563,0.8661657885905579,-0.23524552979968275,9.125305403446085,-0.6690802509162074,49.696595185127165
1760681127.4875293,-18.28448842911313,-0.18261696642312242,0.8743436467445435,-0.240562153957213,8.408761228294416,-1.176934795893847,47.12375653279163
1760681127.4975014,-17.74536872897796,-0.16819127610487872,0.8807867227832834,-0.24651961627928715,7.697279739601685,-1.4489449921719146,44.88241055921329
1760681127.5074947,-17.215341912461827,-0.15651998649684012,0.8856115961484617,-0.25270311735925266,6.990998427572864,-1.4714223108174178,43.02861544405515
1760681127.5175478,-16.692977419861982,-0.14768515041976837,0.8892723877772419,-0.2587638135135642,6.288144167793277,-1.230984186434278,41.57627719119007
1760681127.5274897,-16.17741789057168,-0.14168672154146236,0.8924467106116759,-0.2644174669944126,5.585378603685414,-0.7184973992487698,40.504153382375385
1760681127.5376763,-15.668523999284384,-0.13848080620957004,0.8958780716893624,-0.2694373929278204,4.877467735513033,0.06855526900795655,39.764475614033806
1760681127.547506,-15.166959997926472,-0.1380135417488822,0.9002020150680841,-0.2736461433859241,4.156688757490927,1.1254094208024887,39.291574148555725
1760681127.5578878,-14.674224773597391,-0.14024016308074952,0.9057877391494497,-0.2769084428867248,3.412442228287593,2.4405775396671006,39.009552578947996
1760681127.567528,-14.192620214256042,-0.1451197439672472,0.9126251657924259,-0.2791271658145447,2.631496542558607,3.996900136454631,38.838811674781084
1760681127.577572,-13.725139929059699,-0.15258439170079938,0.9202811514000325,-0.2802447157137773,1.7991520062818986,5.772454019709152,38.70178389938558
1760681127.5877035,-13.27526213520897,-0.1624918027044293,0.9279388668751435,-0.28025178381548943,0.9013792473072555,7.740984342981309,38.528441186934906
1760681127.597477,-12.846640909453019,-0.1745760530552228,0.934521506956389,-0.2792028256682413,-0.07230454190943311,9.871859097854193,38.26195077608637
1760681127.6076233,-12.442707678928793,-0.1884115346124037,0.9388859068154992,-0.2772340317797403,-1.125745480932511,12.129793348253964,37.86437127652978
1760681127.6176326,-12.066217008539068,-0.20340122042235584,0.9400559459778896,-0.27457688285834236,-2.253578972332224,14.474711399971547,37.3216833085405
1760681127.6277928,-11.718793118119416,-0.2187950112199704,0.9374543899596472,-0.2715589581841818,-3.439954043685071,16.86210013949886,36.646960025310726
1760681127.6376061,-11.400549072384699,-0.23373673433270634,0.931089085158327,-0.26858376003550777,-4.659194053086393,19.24407211962188,35.880307153987594
1760681127.6475902,-11.10985160551189,-0.24732953904568514,0.9216562988081715,-0.266084171825289,-5.878690905072706,21.571142046721967,35.08445985773773
1760681127.6576076,-10.843287462277482,-0.2587019130306488,0.9105385476889637,-0.26445030284189464,-7.063838804971194,23.794488705092704,34.33561558480208
1760681127.6676488,-10.595855662329964,-0.2670555755672777,0.8996927618651693,-0.26394017270619835,-8.184273690483872,25.8683142869554,33.710080270784154
1760681127.677474,-10.361374489018036,-0.2716856050143605,0.8914429043764873,-0.2645884049517774,-9.220254420035863,27.751907080134053,33.26837033299302
1760681127.687735,-10.133063406441362,-0.2719793911843606,0.8882057378582586,-0.26613225887020947,-10.167868176425584,29.41116700640275,33.03926730455691
1760681127.6975574,-9.904242767564051,-0.26741438188763034,0.8921873394725754,-0.2679748613753387,-11.04194459654289,30.819558418780435,33.00675131080901
1760681127.7076719,-9.669083237584656,-0.257575129841948,0.9050910003746533,-0.26920114627114844,-11.876052185056832,31.958570931611455,33.10263461877924
1760681127.7175672,-9.423325989093906,-0.2421974827111288,0.9278753078118258,-0.2686529539653118,-12.719541145864307,32.81775991322805,33.20705057952313
1760681127.7273228,-9.16488524501903,-0.2212316360133315,0.9605954045796106,-0.2650589224306429,-13.632085532950956,33.39439968152994,33.157778032304805
1760681127.7372866,-8.894244922931438,-0.19490604717769033,1.0023503986917544,-0.2572055054945004,-14.676446706674218,33.69283633283744,32.76786005807757
1760681127.7476723,-8.614578555967109,-0.16377392904750634,1.0513449157395387,-0.24412851365265595,-15.91023842539683,33.72378583777769,31.84938939038737
1760681127.757764,-8.331558446971263,-0.1287315640257025,1.105053508484821,-0.2252994682727018,-17.377418631150263,33.503946991824215,30.24001660078146
1760681127.7678506,-8.052871477025837,-0.0910092549522585,1.1604568610039505,-0.20077829204706665,-19.100180663896722,33.056198070134116,27.827984660518243
1760681127.777731,-7.787513335303633,-0.05214504293788376,1.214306032761263,-0.17130442478707414,-21.07194654332215,32.410249374797885,24.571474519831074
1760681127.787501,-7.544974723268666,-0.013952095762776123,1.2633733734489858,-0.1383025928405596,-23.25227445302353,31.60306414971016,20.50877800095149
1760681127.7975671,-7.334450467340141,0.021517826104967365,1.304666721827118,-0.10378752806722787,-25.564582330835677,30.67791628024977,15.75717601242346
1760681127.807394,-7.164191968286088,0.052024884414299595,1.335606418861544,-0.07016498972771736,-27.89752145279424,29.68091636550085,10.500156708982779
1760681127.8173587,-7.041088945263331,0.07522628840548959,1.3541780408096684,-0.039944275604929316,-30.11053464903488,28.65437885781104,4.96445329738871
1760681127.8277836,-6.970516008893967,0.08882088727311141,1.3590703442680514,-0.015396872504023867,-32.04363968522095,27.6274650600805,-0.6099701808621449
1760681127.8376071,-6.956423619966629,0.0907699851066919,1.3497918526323205,0.0017875090725389471,-33.53089664050125,26.605798428341696,-6.002615747408223
1760681127.8475573,-7.0016034751273315,0.07958669320283622,1.3267427264484257,0.01078607090490528,-34.41646887839416,25.562720718133924,-11.042816678739225
1760681127.8577902,-7.108026342877165,0.05465244572841432,1.2912129665409533,0.011807245094449099,-34.57174406814856,24.435101016101274,-15.632878585741677
1760681127.8678153,-7.277142437031979,0.016492965225323668,1.2452879361319993,0.006085910003450431,-33.91163763890261,23.125937123848228,-19.76004222092434
1760681127.877603,-7.510051679101324,-0.03306006815748245,1.19166302120974,-0.004308023610482164,-32.40794124842548,21.51452612038008,-23.494948942942667
1760681127.8873994,-7.807490658807091,-0.090880224180363,1.1333920331971834,-0.016822246126637606,-30.09750324960664,19.473122738309403,-26.97639103464154
1760681127.8973684,-8.169638318929529,-0.15276097082212944,1.0736096784279745,-0.028868254659597373,-27.083342220589703,16.887320109462763,-30.384403049100317
1760681127.907802,-8.595801723400834,-0.2138316940321747,1.0152705883707414,-0.03826667124560615,-23.527648015906205,13.676429454958425,-33.90585296042636
1760681127.9173748,-9.084087606144774,-0.26913611031746076,0.9609360255817943,-0.043595894624194595,-19.636947212621827,9.81016269531568,-37.69821935325495
1760681127.9276838,-9.631172927190804,-0.31429128556290165,0.9126226524094465,-0.04437350223705615,-15.641171977132583,5.318764857369803,-41.85774550376604
1760681127.9375706,-10.23224982129644,-0.3461089013390034,0.8717157438961057,-0.04104241235149832,-11.769528821381874,0.29497713033646294,-46.39734005856334
1760681127.9477656,-10.881155010486955,-0.36305352044801953,0.8389447144025678,-0.03477947647171876,-8.226600589223532,-5.112511875371523,-51.23761948769483
1760681127.9576652,-11.57063570187322,-0.3654445769136667,0.8144168000400466,-0.02718072258655834,-5.171963417401262,-10.713261195576408,-56.212065583078704
1760681127.9673674,-12.292678746327576,-0.35536331399269994,0.7977005768856807,-0.01989776275824491,-2.7058788461452394,-16.2949168372634,-61.085174415749684
1760681127.9773736,-13.038839278943884,-0.3362810103095051,0.7879456335172058,-0.014301023520925117,-0.8625582662903294,-21.645755672915747,-65.58100153916752
1760681127.9873903,-13.800534243500168,-0.3124713634900009,0.7840217713630642,-0.011229421141946442,0.38862376741042004,-26.57655334393423,-69.41847926210615
1760681127.9973254,-14.5692966796281,-0.2883059957498998,0.7846621956169133,-0.0108606058321255,1.1345504225838037,-30.938665140482428,-72.34905956796739
1760681128.0076263,-15.3370052365718,-0.26755311720742136,0.7885987463321703,-0.012710847929596035,1.5037558799513802,-34.636047446611386,-74.19166053772632
1760681128.0173953,-16.096105787947128,-0.25279954882164196,0.794680555475779,-0.01575455798008343,1.6477594884359432,-37.629940481863805,-74.85983824527804
1760681128.0277233,-16.839831930650192,-0.24509421118670408,0.8019692551651122,-0.018638997762169155,1.7208304914763468,-39.9357721399608,-74.37683079337683
1760681128.037643,-17.562416335501478,-0.2438716622872782,0.8098044741600725,-0.019956226792242904,1.8609299102770431,-41.61257827055283,-72.87570005063185
1760681128.0476582,-18.259273481482253,-0.24716567233785985,0.8178332942707093,-0.018522126025848226,2.1743620252096485,-42.746116095032654,-70.58406735632089
1760681128.0575693,-18.927131626243423,-0.25207307460228384,0.8259967914795672,-0.013607436371274272,2.7259430077083837,-43.42794177970244,-67.7955076163818
1760681128.0675538,-19.564098536823835,-0.2553836890445534,0.834467637263699,-0.005074195144538155,3.5354535014854886,-43.733759474681015,-64.83199307110068
1760681128.0776525,-20.169657593585228,-0.2542600476556702,0.843538498232379,0.006607463202093304,4.580091354424101,-43.70491165042384,-62.003343965387685
1760681128.087355,-20.74460253333493,-0.24683895629494423,0.8534733136026285,0.02045917347896466,5.8018344189353845,-43.33668526266355,-59.570076649055956
1760681128.0976315,-21.29092594377942,-0.23264136549363942,0.8643488895132997,0.035181996114549245,7.118167180839978,-42.576130290705706,-57.71521648990554
1760681128.1077523,-21.811677636596507,-0.21271670887040797,0.8759248094718927,0.049385410980868696,8.434477571313085,-41.330514992807906,-56.528774384436915
1760681128.1174183,-22.310805369782464,-0.18950289595195788,0.8875787524850793,0.06180518549621373,9.656499718797056,-39.485655680420926,-56.006156648687266
1760681128.12764,-22.792983286329733,-0.1664381333996077,0.8983309942134818,0.07146449578231845,10.701416247024095,-36.931465482153264,-56.05934211544492
1760681128.1376057,-23.263424257155346,-0.14740297751979706,0.9069605072514052,0.0777516287807914,11.506620715776098,-33.5905172191844,-56.53769086544986
1760681128.1476874,-23.727664265994026,-0.13609528247632183,0.9121921619157539,0.0804139538541966,12.035612225774404,-29.444577374967864,-57.2540913255719
1760681128.1590562,-24.19130540713675,-0.13544734068132133,0.9129162620369881,0.07949250862221648,12.280921198907413,-24.554194200486624,-58.01195496382455
1760681128.1679113,-24.659713633913316,-0.14718471900852384,0.9083925688995,0.07523488528664922,12.264220577238786,-19.067523962025746,-58.629216232914764
1760681128.177565,-25.137686686676165,-0.17159952290893365,0.8983933988609595,0.06802164400389595,12.033835292655542,-13.216418019981608,-58.956669794101195
1760681128.187866,-25.629125981573832,-0.2075668381694699,0.8832544056518695,0.058326206074964956,11.659845143105308,-7.299971227596769,-58.88930579711594
1760681128.1978223,-26.136749090354396,-0.2527776889567593,0.8638242888686262,0.04670853687504266,11.22705771366464,-1.657784565446994,-58.370485116004915
1760681128.2075598,-26.66186067433822,-0.3041100585824908,0.8413293832820248,0.03382811672593822,10.826381884250122,3.3632954372892696,-57.38964996848786
1760681128.217665,-27.20416890891492,-0.358031428481718,0.8171880121094024,0.02045678149139672,10.545463470431043,7.444490642238641,-55.9747545778984
1760681128.2276244,-27.76161094843507,-0.4109367798889463,0.7928171807163538,0.007476039218689336,10.459669836529839,10.32814853236923,-54.18081752814978
1760681128.2376363,-28.330151739058728,-0.45937393156752204,0.7694701602213593,-0.004148422929926264,10.624494060503507,11.845108621993573,-52.07609773434862
1760681128.2476265,-28.90355062188426,-0.5001718093486535,0.7481319985981861,-0.013415054806168277,11.070181700847387,11.934146280093293,-49.72750616702998
1760681128.2575412,-29.47313987028695,-0.5305337389789211,0.7294867359268,-0.01935346454105315,11.798970776337534,10.652308995169202,-47.18700533463908
1760681128.2677472,-30.02770773611734,-0.5481637583185377,0.7139583732412148,-0.021104624679235223,12.784930360981663,8.175574987845444,-44.480823271284436
1760681128.277478,-30.55360391832368,-0.5514612462924904,0.7018167216068849,-0.018008277707682957,13.976103718865902,4.789527458710401,-41.60318924056283
1760681128.2875185,-31.03517460208052,-0.539770197500168,0.6933263650972923,-0.009690275036811725,15.298544122897379,0.8699652008518529,-38.515908141361116
1760681128.2975779,-31.455587120346845,-0.513628535291336,0.6889021768507794,0.003859207270697845,16.661828864155893,-3.146127293649066,-35.154425578437156
1760681128.3077595,-31.798032297585436,-0.47494362343877916,0.6892244249851749,0.02222512018045006,17.965668624940296,-6.797917880643374,-31.44014317705792
1760681128.3175964,-32.04721418488729,-0.42702471672189274,0.6952686990219679,0.044529344294602445,19.10724304213539,-9.643805625595764,-27.297717558269063
1760681128.3275638,-32.19096972811516,-0.3744254679210304,0.7082225541822419,0.06941636797835826,19.98888938893042,-11.30635709440339,-22.67506077918618
1760681128.337645,-32.2218142908485,-0.32257994328342027,0.7292860774063818,0.09506670704924997,20.52577475435733,-11.514167056594228,-17.562930358019244
1760681128.3476064,-32.138185275337506,-0.27724658425045073,0.7593800087977404,0.11924956398383622,20.653199913239472,-10.135267444414122,-12.010530672707223
1760681128.3575623,-31.94515849374509,-0.24380541992987806,0.798808351691038,0.13943440004003915,20.333192107730866,-7.197065946518766,-6.133607795904249
1760681128.367565,-31.65444845105302,-0.2264868410952947,0.8469410524429084,0.15298350008366557,19.560016283818566,-2.8889811033143764,-0.11222673894731582
1760681128.3776042,-31.28358446395008,-0.22764466166941277,0.901993715941542,0.15743734615062502,18.364163957693368,2.454101771016695,5.823187408976498
1760681128.3877475,-30.854285592351143,-0.24721692803859663,0.9609799141535826,0.1508759984195758,16.814281294836707,8.386815285782408,11.416953216621659
1760681128.397562,-30.390226423222966,-0.2825329761377611,1.0198924869235626,0.13229532697861798,15.016402921619617,14.402970953932982,16.42140058442688
1760681128.4075656,-29.91454255428918,-0.328596935933007,1.0741336591837658,0.10189721346925432,13.109807199366232,19.993208495450254,20.633062432654604
1760681128.4175787,-29.44749210581626,-0.3788736153160581,1.1191636110709293,0.06119072037607971,11.25884094925507,24.70200722875306,23.925184655148865
1760681128.427546,-29.004625583823305,-0.42643402680370446,1.1512751947571351,0.012852571768452883,9.64021877189812,28.175415720107,26.27015300184534
1760681128.437639,-28.595660097820573,-0.4651685151762735,1.1683343947269742,-0.03962448735597677,8.425693513333623,30.192997097760312,27.747327686888134
1760681128.4476326,-28.224089666733267,-0.49074113321135193,1.17027772454518,-0.09240360781680163,7.760826511099244,30.681007502674678,28.53477961204128
1760681128.4577124,-27.88745009433801,-0.5010611691302812,1.1591748920532459,-0.14178623529922543,7.742009203600387,29.707497200389046,28.886582165001634
1760681128.467695,-27.57810604179525,-0.49622784676963383,1.1387775936252025,-0.18462031670816897,8.395665721103276,27.46285927260329,29.099727488035793
1760681128.4778545,-27.284424125840445,-0.4780767176201937,1.1136532181938037,-0.21859554807691542,9.664871805393789,24.230777722196056,29.475892877777056
1760681128.4874215,-26.99221358130203,-0.44954994209485966,1.088158921829333,-0.24242531298143058,11.408389779531706,20.35442831283837,30.28325766801819
1760681128.4975867,-26.686326393567107,-0.4140970487904461,1.0655643011041676,-0.2559271223885075,13.41484487522783,16.201630040105584,31.722913570327194
1760681128.507698,-26.352294351421044,-0.37521722096567217,1.047558951366552,-0.26000230094694415,15.431014261698483,12.131322350028789,33.903676402238325
1760681128.5174947,-25.977850308533295,-0.336149576000662,1.0342283323909707,-0.25650198820531217,17.199282094425893,8.462998906076095,36.82839738648138
1760681128.5275254,-25.554164589717036,-0.2996633324787229,1.0244199453348306,-0.2479702063916713,18.4966445714191,5.4507151388212876,40.39382822593619
1760681128.5377972,-25.076649285297776,-0.2679047035683909,1.016316270012039,-0.23728030462843047,19.167177943658444,3.2636174207101067,44.40435187292134
1760681128.5477161,-24.545244062912737,-0.24229052266840806,1.0080121352967104,-0.2272166136753257,19.14171540099503,1.9750565865603598,48.59759012210744
1760681128.5578775,-23.964178396984625,-0.2234635835898124,0.9979498423698698,-0.2200794142004331,18.441842912831174,1.561839961496453,52.677746830448896
1760681128.567614,-23.341283045913464,-0.21132586667994452,0.9851540638323352,-0.21739328860514004,17.168997322257074,1.9139786180595684,56.3513393535872
1760681128.5777547,-22.68697979179287,-0.20514891244497446,0.969287480884643,-0.2197736518363332,15.482350692229211,2.8537154450910274,59.36005434741318
1760681128.5876186,-22.01310390973928,-0.2037395646971632,0.9505912852891155,-0.2269636867708415,13.570713546283677,4.1611894093820725,61.50661993219403
1760681128.597454,-21.331710310677007,-0.2056269561993823,0.9297765747257049,-0.23801107146540856,11.623850072452987,5.6032211394918585,62.67129928120858
1760681128.607353,-20.653992248966674,-0.2092403178594723,0.9079057398143124,-0.2515261234473076,9.807708689274966,6.961542890728415,62.81834274120472
1760681128.6173456,-19.98941329769429,-0.2130644971978796,0.8862702950321227,-0.265957002917581,8.246609277479532,8.05722261313011,61.99310233104981
1760681128.6274803,-19.345125617304436,-0.2157778889425525,0.8662543253539084,-0.27983017599722865,7.013823310948097,8.768772158651675,60.31138578646055
1760681128.637776,-18.725718477516832,-0.21638112540900287,0.8491781456532311,-0.2919261694066437,6.130520762867759,9.042239159463701,57.94309765990999
1760681128.6477036,-18.133304712251622,-0.21431157211499408,0.8361360478939759,-0.30138202747433956,5.571881750811793,8.892402521402525,55.09242844065263
1760681128.657352,-17.567908160738614,-0.20952097599923217,0.8278584447141056,-0.3077269383342094,5.2783506531044,8.395120136242557,51.976877441473036
1760681128.6678178,-17.028070276343346,-0.2024876415957987,0.8246302896256852,-0.3108652072522106,5.169591636975227,7.671978807360192,48.80722090804165
1760681128.6776483,-16.511562210937456,-0.1941459623474861,0.8262837372993135,-0.31102272720355323,5.158699516183564,6.86955289104407,45.77016274910629
1760681128.687902,-16.016080066394863,-0.18573793958977142,0.8322614331318632,-0.30867126071379825,5.164581881432581,6.136507392495036,43.01490321179055
1760681128.697727,-15.539817959748499,-0.17861208388835648,0.8417273532710272,-0.3044413358710836,5.121056700978301,5.602182119953286,40.64434403229725
1760681128.7073355,-15.081850127180761,-0.17400749138615237,0.8536924848664825,-0.29903185119922066,4.981972434418121,5.359994197256358,38.71119250362635
1760681128.7178285,-14.642297481474683,-0.17286268747255182,0.8671259990164242,-0.29312382981423624,4.722411444006986,5.45801520190354,37.218840960399035
1760681128.7277794,-14.222292407194495,-0.17568049873646266,0.8810355153991994,-0.2873060575064809,4.336647064546108,5.897616364959072,36.126571578628685
1760681128.7374752,-13.823779548105584,-0.18246511453855038,0.8945146277323518,-0.28201967551151,3.833894328132828,6.639476639493901,35.35837638241649
1760681128.7474468,-13.44919924662874,-0.19273154124738742,0.9067652969549446,-0.27752667116201324,3.2329940806007453,7.614921816343494,34.81449123976438
1760681128.7575448,-13.10109905512836,-0.20557575477099757,0.9171054139829075,-0.2739045336875151,2.5570432985103104,8.739832330719704,34.38459300714057
1760681128.7675345,-12.781713663591745,-0.2197876883726369,0.9249703984695038,-0.2710668942706667,1.8287273817090903,9.928341026211893,33.961473378961614
1760681128.7775261,-12.492549384247397,-0.23398802597414267,0.929915388433213,-0.26880754809829177,1.0668265317702617,11.104138619099793,33.45389325814099
1760681128.7877493,-12.234007761879953,-0.24677186629922546,0.9316228952423815,-0.2668622902608995,0.2841249509902211,12.208162199449726,32.79728913205314
1760681128.7976904,-12.005082980446447,-0.25684579341777203,0.9299196756369863,-0.26497966318099603,-0.5132296058417194,13.202447095080053,31.96111402323246
1760681128.8076026,-11.803167038150438,-0.2631483065553273,0.924805297334343,-0.26298943389384966,-1.3249953057073183,14.070698255669882,30.951898186732475
1760681128.8179855,-11.623992709062604,-0.2649462891464588,0.9164925152283856,-0.26085812151033877,-2.1549141190812087,14.816533798327757,29.811606487122248
1760681128.8275492,-11.461736137553284,-0.2619024535511348,0.9054555700390031,-0.25872417605478837,-3.007889747606217,15.460367975673599,28.611485167713326
1760681128.8378725,-11.309289254443149,-0.25411097577756314,0.8924774659032314,-0.2569089866471549,-3.886705666526762,16.03562969551321,27.44222276524271
1760681128.847597,-11.158697789706753,-0.24210044591178864,0.8786827953995737,-0.25590101583109603,-4.788881623359557,16.584597865260523,26.401776922676426
1760681128.857542,-11.001742653374025,-0.2268033811817365,0.8655404629462129,-0.2563090233388679,-5.704360270962342,17.15374563654165,25.582525250711747
1760681128.867641,-10.83061945396476,-0.20948914482659353,0.8548218425390742,-0.25877973902309537,-6.614668970487252,17.788297719638045,25.0594079823568
1760681128.8775637,-10.638644416139753,-0.1916542246749848,0.8485048791242344,-0.2638791710100394,-7.493990953006297,18.525840338138966,24.880451237269664
1760681128.8876388,-10.420892736409378,-0.17486526964914845,0.8486228781407255,-0.27194589254924384,-8.312246012179202,19.389281113389895,25.06058198946687
1760681128.8975365,-10.174670043658715,-0.16056006456818728,0.8570666921374026,-0.2829361835982894,-9.03990424560702,20.380085579392535,25.579087643696404
1760681128.9076476,-9.89973796961233,-0.14982801622531858,0.8753586652891338,-0.29629010953480645,-9.653917008573194,21.473260759468214,26.380547787121824
1760681128.9176345,-9.598257973578791,-0.14320710402430648,0.9044242621551772,-0.31085107504872084,-10.143902705512422,22.615754045251332,27.378674649727465
1760681128.927659,-9.27447042045374,-0.14054103977292928,0.944391397578025,-0.3248683183745195,-10.51760227928487,23.729632115968577,28.462307297215432
1760681128.9376042,-8.934174060691744,-0.14093620332281326,0.994447129635,-0.3361033658126656,-10.80463723618889,24.720595498420085,29.502810807205755
1760681128.947626,-8.584104633397779,-0.14284455624498624,1.052776964223953,-0.3420486606097927,-11.05776575795052,25.491203176323243,30.36227180666017
1760681128.957656,-8.231324117477149,-0.14427786140499968,1.1166053218177867,-0.34024899132333686,-11.351115199264356,25.956880940040747,30.90207111403276
1760681128.9677215,-7.882720171904613,-0.14313107171046488,1.1823475139046618,-0.3286939113906829,-11.775212901386173,26.061720676384915,30.991585874210664
1760681128.9777367,-7.544680072380443,-0.1375631907931802,1.2458722753965539,-0.3062253363575003,-12.42897534648153,25.79062114723364,30.51687803131767
1760681128.9893434,-7.222955556619421,-0.12636233101350694,1.3028580822569107,-0.2728857363149346,-13.409114176916448,25.174715197441497,29.38920787712526
1760681128.997597,-6.92269016428885,-0.10921858890504714,1.3492079900231815,-0.23012635592101044,-14.797692251213942,24.28824828266115,27.5530161984317
1760681129.0077615,-6.648551526518926,-0.08684776665553963,1.3814713503185136,-0.1808067390265671,-16.64885871105678,23.236822438036327,24.9926432392475
1760681129.0178964,-6.40490301996613,-0.060945969545590846,1.397211750191158,-0.12894738828035437,-18.976135097085972,22.138755171888405,21.736599569378697
1760681129.0275173,-6.195961120905047,-0.033997100726970084,1.3952626879512513,-0.07924331297841089,-21.741977935704856,21.102796889842615,17.857885750715
1760681129.0378404,-6.025909952140904,-0.008986068190323082,1.3758275579940011,-0.03639966157893049,-24.851592275293704,20.20628584544512,13.468922761677883
1760681129.0474405,-5.898971665792924,0.010922243653445206,1.3404074677863163,-0.004399059815899089,-28.152943071764653,19.47780236561932,8.710263144881502
1760681129.0574207,-5.819448664529583,0.022695397953242154,1.2915743285450698,0.014160616083074336,-31.44443586396205,18.887477685546134,3.7333890340886753
1760681129.0674791,-5.791754449015729,0.023723571818688588,1.2326385116552458,0.01852020605998569,-34.490744058688925,18.346519319915522,-1.3206347690804343
1760681129.0775921,-5.8204353831643525,0.012095911421812332,1.1672797417433676,0.009901178294318526,-37.045868637470065,17.715679890308387,-6.34345553256435
1760681129.08748,-5.9101641552182835,-0.013127387878151365,1.0992097952357593,-0.008706805764511133,-38.88102770971744,16.82086064909207,-11.278501127075872
1760681129.0975478,-6.065668476606988,-0.05165882273181397,1.0319161206471414,-0.03307918346318967,-39.81373560075658,15.47323239104631,-16.13245101211517
1760681129.1076999,-6.291555520828713,-0.10178769695709323,0.9685040873708242,-0.05850523471431494,-39.73370769134082,13.491327687616124,-20.975472788558204
1760681129.1177862,-6.592008613279698,-0.160317848343565,0.9116233157234284,-0.08059855773420943,-38.62117541296131,10.723286715755053,-25.928252995473944
1760681129.1276398,-6.970365176349827,-0.22271921098393685,0.8634404039921618,-0.09600562388010397,-36.55392458265722,7.068237444839121,-31.136299655946544
1760681129.137453,-7.428623875089557,-0.28354590917733724,0.8256121828142512,-0.10287880690830845,-33.70094242232883,2.4959724973953596,-36.73485085806323
1760681129.147404,-7.966958923311518,-0.33710995849968733,0.7992230681250644,-0.10103823539597913,-30.30284572355224,-2.9366601983063396,-42.81032375572903
1760681129.1578467,-8.583325694720793,-0.37831574560761044,0.7846774658523518,-0.09181596471907791,-26.64179439047086,-9.075522419919068,-49.36576098108508
1760681129.167405,-9.273220902905187,-0.40349038488432615,0.7815762373537785,-0.07764144841580387,-23.005666946269557,-15.668893921624415,-56.29757866704515
1760681129.1776214,-10.029627600113649,-0.4110250234099998,0.7886366827491358,-0.06147507083127273,-19.652299588788534,-22.380583222760613,-63.389110332809224
1760681129.1877215,-10.843151085834622,-0.4016822527269464,0.8037196587524965,-0.04621480510390782,-16.77936927208349,-28.818000223897464,-70.32359851867903
1760681129.1973865,-11.702343445269758,-0.37850155352879467,0.8240014254137438,-0.03418763107845771,-14.504234583800272,-34.573662058139284,-76.71613728757883
1760681129.2075171,-12.594211505738727,-0.3463157373495346,0.8462838215389804,-0.026801988107633273,-12.856163369403106,-39.275216564945254,-82.16098849986105
1760681129.217419,-13.504891666685268,-0.3109585375268274,0.8673928955493135,-0.024395418404031213,-11.781308530165944,-42.63639985451773,-86.28782285392903
1760681129.2278917,-14.420449779281347,-0.278292788794941,0.8845893791965564,-0.02627525511363714,-11.15884886325115,-44.50015909888945,-88.81811221085306
1760681129.2374344,-15.327730970844705,-0.253220591003825,0.8959120420649072,-0.03092539729744442,-10.82509048583018,-44.86575695430049,-89.61181418778838
1760681129.2477303,-16.2151579442856,-0.2388503523939241,0.9003935043062566,-0.036336486328026336,-10.601228701069095,-43.893875875805165,-88.69534570938582
1760681129.2573724,-17.073371902075603,-0.23598307903760116,0.8981185799396265,-0.040403912777442645,-10.320134792084941,-41.887133777997256,-86.26482481247544
1760681129.2677312,-17.89563286256805,-0.24303129463431875,0.8901290244495517,-0.04132615398364762,-9.848106929083494,-39.247464490517686,-82.66311676098219
1760681129.2774985,-18.677939201299065,-0.25640022897825715,0.8782060664536998,-0.03793058523931971,-9.098899363430684,-36.41591477447967,-78.334288941374
1760681129.2876017,-19.418877768177264,-0.27126306704557707,0.8645751615561139,-0.0298633200746285,-8.039108363317773,-33.803896037457335,-73.76346095890928
1760681129.2976015,-20.119262889283146,-0.28257752223520205,0.851576827271693,-0.01760760649481359,-6.685621379836259,-31.727068704447316,-69.41268047848929
1760681129.3077202,-20.781652592632152,-0.28614003675837824,0.8413413312707093,-0.0023367283041658134,-5.096958802757272,-30.353230066337005,-65.66372885612697
1760681129.3176944,-21.40983571617279,-0.27946658002244623,0.8354996777951916,0.014351360936552556,-3.360858395246049,-29.67363284024531,-62.776714980199266
1760681129.3276703,-22.00836557965382,-0.2623261362435531,0.8349601341816518,0.030744817771558606,-1.580452741709161,-29.50338871009717,-60.86968183299001
1760681129.3377802,-22.582184553539673,-0.23682627250308053,0.8397772062800434,0.045299901033710115,0.13900012112011195,-29.51169816057039,-59.92027093200879
1760681129.347659,-23.136351245131564,-0.20704346709205274,0.8491349716197244,0.056840260990884676,1.7015050466565627,-29.277512809746312,-59.78668642842116
1760681129.3576837,-23.675856144229158,-0.1782825564174226,0.8614541075440758,0.06465072146887312,3.029199967279321,-28.361839779686587,-60.24236117121065
1760681129.3673897,-24.205494941399945,-0.15611857655418662,0.8746107017693996,0.06847290257820242,4.068636319461144,-26.38501847716905,-61.017137144854246
1760681129.3776815,-24.72976152697658,-0.14540823807503236,0.886231542227698,0.06843105371385422,4.794729060622874,-23.096390982058704,-61.83754588282054
1760681129.3874407,-25.252725406854736,-0.14945577844259791,0.8940151011019227,0.0649245150087092,5.212721220554777,-18.424952235870087,-62.459893456342044
1760681129.397634,-25.777870669068708,-0.1694818863219769,0.8960254108169201,0.058519179290768934,5.358398626616494,-12.502609203556602,-62.69207417030589
1760681129.4076579,-26.307892495153805,-0.20447980887229203,0.8909159094211985,0.049859306788261566,5.296568252304643,-5.65616620179176,-62.4028229642523
1760681129.4176486,-26.844466341474554,-0.2514606072011518,0.8780572166567129,0.03960909880137498,5.117586723141211,1.630594281069301,-61.519759022447516
1760681129.4277816,-27.388016707326752,-0.30600756436265186,0.8575625823939607,0.028424525544235836,4.93160869052618,8.778319165235494,-60.01941168085741
1760681129.4374046,-27.93751122315482,-0.3629990459843457,0.8302244593575795,0.016951294656687137,4.860306245835077,15.18680273873384,-57.91309025131863
1760681129.4478827,-28.490293480463464,-0.4173390627801968,0.7973916484795589,0.005842978604022795,5.0261278860961776,20.311166345259142,-55.23206844674587
1760681129.457619,-29.041955660177354,-0.46456382430367327,0.7608248028047055,-0.004209150369111862,5.539686220806748,23.728335301640623,-52.01460213071018
1760681129.4681518,-29.586252467438012,-0.5012575739770027,0.7225668485332827,-0.012447613314796494,6.486468925946783,25.185332922024436,-48.296336638029665
1760681129.4775748,-30.115075309535175,-0.5252799164053367,0.6848538939365191,-0.01803870302559614,7.9145706669621125,24.62469970278248,-44.10495458955738
1760681129.487626,-30.618532188878937,-0.5358490229246969,0.6500717347445681,-0.02009760992835377,9.825355823400468,22.186146049017438,-39.459403666373646
1760681129.4976416,-31.085199143022916,-0.533529975655295,0.6207374685898807,-0.01775879386213063,12.168765831940824,18.186560468030393,-34.37355567844847
1760681129.507797,-31.502607584826155,-0.5201551030339416,0.5994661404453087,-0.010291427075567468,14.844376148107546,13.082450405711851,-28.86362889989742
1760681129.517733,-31.857999390437637,-0.4986724668593543,0.5888791349113285,0.002751048134740122,17.708399474569767,7.419937869373899,-22.958213971805705
1760681129.5276666,-32.139321122420235,-0.472897159400633,0.5914244405333915,0.021368311818360505,20.58584178125659,1.777885426534081,-16.709313893190576
1760681129.5379694,-32.33635704193497,-0.4471386049401541,0.6091019610064338,0.044967581646896626,23.286220477723187,-3.2901525626271146,-10.2024169621881
1760681129.54782,-32.44184185597123,-0.4256984266849957,0.6431141959678972,0.07227056674692198,25.620870883623407,-7.309582615448032,-3.5633009779328466
1760681129.5577269,-32.45236956908714,-0.41227281170525565,0.6934905586370135,0.10130646510398603,27.419950213856634,-9.928861917674357,3.0408143949885074
1760681129.5673995,-32.36893344070624,-0.40933981800057156,0.7587575891576238,0.12951296448045774,28.547675500099448,-10.949643436596347,9.407767710205682
1760681129.5777683,-32.196988650981126,-0.41765099292335134,0.8357414695355846,0.15394786954034456,28.914890220922935,-10.33986425544596,15.315609248489713
1760681129.587623,-31.94600827191812,-0.4359622887636606,0.9195889049291958,0.17159186116381162,28.488511215098384,-8.228428139611168,20.54579713703531
1760681129.5976803,-31.628585742122283,-0.4611184282174512,1.0040738330164727,0.17970365938012495,27.29757376338127,-4.882258763002076,24.911846136450546
1760681129.6074576,-31.259207261993183,-0.4885412185035972,1.0822159931409148,0.17617608160653286,25.435407796996095,-0.6687577682584747,28.288980221489027
1760681129.6176546,-30.852864146327605,-0.5130725640400615,1.1471702845318759,0.1598366133018179,23.05705473819254,3.9912240888489725,30.639173352958462
1760681129.627453,-30.423690923196972,-0.5300122207434842,1.1932600342017374,0.13064095694228725,20.37063441162981,8.673309897133535,32.025956736313134
1760681129.6378763,-29.98379687982207,-0.5361073685783474,1.2169462875587393,0.08972524211137045,17.62136367936869,12.995343133278503,32.61476399880148
1760681129.64777,-29.542411385800435,-0.5302328996263438,1.217486020944228,0.039310313225263294,15.067722623716982,16.65270556081517,32.65725485930515
1760681129.657812,-29.10540076528368,-0.5135677766196672,1.1970704571644724,-0.01752151535395583,12.951101398489936,19.43906586559503,32.46140947136601
1760681129.6676774,-28.67515664619917,-0.4892146064774843,1.1603612902398854,-0.07714367530030122,11.462846040209232,21.251385753963124,32.3522409667141
1760681129.6776545,-28.250819254231576,-0.46138149524648286,1.1135231015293428,-0.13576324543749113,10.71494256232296,22.081019999170714,32.629755763366745
1760681129.6878245,-27.828786912672165,-0.4343779810824508,1.0630109713777833,-0.18982609759625207,10.72133999428244,21.994954024623063,33.530844070973764
1760681129.697676,-27.40346106393358,-0.41171299641607534,1.0144409540068358,-0.23640575364868135,11.395370826935535,21.112130338405215,35.20040342737526
1760681129.7077215,-26.968165801554466,-0.3955124809505912,0.9718206161172585,-0.27351879875153057,12.56516103695751,19.579417478592987,37.67495804159826
1760681129.7178316,-26.516156247335857,-0.3863393039570257,0.9372764297027977,-0.30030689779084174,14.004437773765218,17.55047801324665,40.88005683352578
1760681129.7277014,-26.041602063200887,-0.38336420121902814,0.9112467636549578,-0.31704227572742727,15.47219296699611,15.169241086955838,44.641116174601024
1760681129.73764,-25.54041871757108,-0.3847558979733176,0.892977196419603,-0.3249488328816203,16.752550263347512,12.558496362326554,48.7060094508364
1760681129.7476583,-25.010832135547748,-0.388146868535958,0.8811011123780826,-0.325875981534341,17.686567734690897,9.813553834311234,52.776403654510524
1760681129.7576585,-24.453602208379515,-0.3910675568396831,0.874120950550341,-0.3219020902816684,18.190305145769976,7.000730577810008,56.543678098728
1760681129.7675357,-23.87188631410943,-0.391291699464199,0.8706960348646766,-0.31496279965025337,18.257246953506375,4.1602256584630055,59.724577638663455
1760681129.777614,-23.27078005006718,-0.3870735360176437,0.8697425810494681,-0.3065872183240648,17.946828910549254,1.3125709176220433,62.09187201183432
1760681129.7876158,-22.656616272782486,-0.37727712518270584,0.8704164051657416,-0.2977864097862944,17.36339366834597,-1.532537872586109,63.49627048829471
1760681129.7976649,-22.036130196539155,-0.3614064728667465,0.8720615392166241,-0.28908936288030906,16.630994732905336,-4.366404682140336,63.87744344587235
1760681129.8076522,-21.415610155286007,-0.3395552476006954,0.8741797415320667,-0.2806807966938632,15.86920663543835,-7.171813366359491,63.263803107152945
1760681129.817829,-20.80015533607166,-0.31230947988758895,0.8764331763607189,-0.27257616528514556,15.173899755460903,-9.91500392382753,61.762264485697116
1760681129.8276706,-20.19315313123726,-0.28064436111262503,0.8786600974869591,-0.26477464166783427,14.605268228824484,-12.540239561454252,59.54030943702092
1760681129.8376718,-19.596063689044712,-0.24584481620206525,0.8808739890567923,-0.2573529251293907,14.183673234722594,-14.968009954711839,56.803296836759856
1760681129.8476682,-19.008553266527027,-0.20945219477344734,0.8832282961817896,-0.25048966480544665,13.892416025775528,-17.097714908038693,53.77017105447981
1760681129.8574355,-18.42895601748485,-0.17321383062431758,0.8859492725521042,-0.24443276209789433,13.685600369505373,-18.815140945801605,50.650565384550326
1760681129.8676732,-17.854980336417327,-0.1390045011402442,0.8892552017581015,-0.23943493784401476,13.49885148947095,-20.0041799452043,47.625799445995085
1760681129.8777232,-17.28452778700369,-0.10870139324645907,0.8932846094820774,-0.23568555089931215,13.260767000275607,-20.561240014487378,44.8354924349909
1760681129.8877852,-16.71647198307788,-0.08401697550475459,0.8980501828721016,-0.23326053189470816,12.90342842879582,-20.40996964101975,42.370595420390366
1760681129.897641,-16.15125549188528,-0.06631454664122449,0.9034241948844652,-0.2321015921834557,12.370897221067306,-19.51356197369669,40.27275008510665
1760681129.9076807,-15.591201288188971,-0.05644209722378916,0.9091510508795551,-0.2320253615988974,11.625178362115019,-17.882209927502096,38.539134629975926
1760681129.917884,-15.040491877307854,-0.05462045204265486,0.9148773248856268,-0.23275596538769433,10.6495566374807,-15.57419398883901,37.1314420441417
1760681129.9274716,-14.504830375432247,-0.06041282815249736,0.9201903367306405,-0.23397132398089088,9.44947058500511,-12.690329602010932,35.98739347575309
1760681129.937437,-13.99084977269925,-0.07278706077910192,0.9246603706039409,-0.23535300891343558,8.051212473104801,-9.362735574681093,35.03320021296827
1760681129.9476702,-13.505369618163728,-0.09026239368921211,0.9278850371339749,-0.2366306721813317,6.498784529861454,-5.739843620419008,34.195575409219835
1760681129.957924,-13.05461066791257,-0.11111512002298274,0.9295345788045903,-0.23761457338538386,4.849266218613357,-1.970107627667231,33.41216843350573
1760681129.9675188,-12.643471193414447,-0.13360671262689808,0.9293946443208687,-0.2382133236295599,3.167095308739727,1.8130589344635146,32.63957553028186
1760681129.977466,-12.274950037353484,-0.15619686815971148,0.9274009413678048,-0.2384374750310994,1.517737613366731,5.502959799336733,31.858330493786706
1760681129.9875078,-11.949776677058223,-0.17771038619745075,0.9236607434952742,-0.2383916614128354,-0.03870472836945849,9.026448652080182,31.074501223322084
1760681129.9978197,-11.666281223653034,-0.19743696070186467,0.9184595311699719,-0.23825869936156455,-1.4533403245753997,12.345306305351638,30.317748417022173
1760681130.0074546,-11.420510071213243,-0.21515353035346618,0.9122548332944456,-0.23827949016635058,-2.6931744336805505,15.452371846593264,29.635981712500385
1760681130.0175977,-11.206567603585887,-0.23106852160758196,0.9056614347612786,-0.23873293079868813,-3.744086949731733,18.3633347492346,29.087091898470195
1760681130.0276744,-11.01714207260079,-0.2456961081878679,0.8994321072243128,-0.2399190072877429,-4.611722266377939,21.10562135814204,28.728624534357483
1760681130.0375934,-10.844155581770638,-0.2596768040254395,0.8944365553520496,-0.2421444026536143,-5.320156159179358,23.706127713221544,28.606634599940257
1760681130.0477047,-10.679465350124909,-0.27356816218701213,0.8916387976802272,-0.2457039683684277,-5.908487613883371,26.17964921350728,28.745238611269528
1760681130.0575702,-10.515537605805925,-0.28763544727774,0.892069920045796,-0.25084676937428535,-6.425775002896259,28.519759018311515,29.138459884332843
1760681130.0674574,-10.346018631369988,-0.3016760718340899,0.8967897381832729,-0.25771651055958006,-6.924952879974087,30.6936117477996,29.745763261624045
1760681130.0774739,-10.166141418646001,-0.3149119551848308,0.9068288790691856,-0.2662648917081817,-7.456502735904392,32.64168735243703,30.492185596609474
1760681130.0874965,-9.972930351054563,-0.32597862833638347,0.9231038887598991,-0.27615040062957313,-8.062702761347138,34.282839782802924,31.273271728449934
1760681130.0978446,-9.765196062345577,-0.33302722920284916,0.9463031668967483,-0.2866486803652666,-8.77324527818638,35.52423768941532,31.964274838690322
1760681130.1076891,-9.54334184641294,-0.3339363266975183,0.9767503840206772,-0.29660814471806507,-9.602868753424042,36.27500841393314,32.43243794631019
1760681130.1176782,-9.309026084315907,-0.3266088748182313,1.0142627750956832,-0.30448257900949754,-10.551383291607564,36.4617736321585,32.55076767074883
1760681130.1276672,-9.064739280828723,-0.3093114626236632,1.0580313042190457,-0.3084606199983615,-11.606083787425836,36.04390748998306,32.211600332642206
1760681130.1376796,-8.81335997869913,-0.28100327782317985,1.1065542525390704,-0.3066918579237206,-12.746099554077734,35.026280681826755,31.338410817102705
1760681130.1476781,-8.557753426311626,-0.24160270545124393,1.1576518640527471,-0.29758429941171477,-13.947808725747386,33.46743195210003,29.894624242073025
1760681130.1579244,-8.300472149571982,-0.19214915883589118,1.2085763853245057,-0.280124218251855,-15.190146039747725,31.481486175972698,27.888548013589887
1760681130.1679146,-8.043608212545175,-0.13483378201676186,1.2562120797043848,-0.25415460740757584,-16.458550796007007,29.23270641496835,25.373877038273577
1760681130.1776826,-7.788831367092696,-0.07289178484813517,1.297340042328294,-0.2205478500982193,-17.746502887391333,26.922339300323582,22.445527552511834
1760681130.1874635,-7.537624515499737,-0.010368276547183664,1.3289304765367322,-0.18122284666093708,-19.05406137324996,24.768385204499,19.230859386624395
1760681130.197463,-7.291698913311526,0.04821438341814438,1.3484244207340539,-0.13898437795031252,-20.38345073665286,22.98003201602511,15.876687942285141
1760681130.2077372,-7.053539266202547,0.0982493965472717,1.353974149685544,-0.09719796145403288,-21.73240455386538,21.729586442064623,12.532883404999842
1760681130.21776,-6.826997339939771,0.13545756349455162,1.3446189474239263,-0.059348636089763415,-23.086561863386052,21.12559901264116,9.333823175438445
1760681130.2278066,-6.61782659774656,0.1562814824310837,1.320377837818912,-0.02855737026315779,-24.4126287323869,21.191241419229907,6.3795026104963055
1760681130.2380173,-6.43403573837832,0.15823136615661573,1.2822481265431693,-0.007137852314693568,-25.654182971525046,21.85163434601656,3.7186338239414005
1760681130.2478263,-6.285943294482085,0.1401580623011069,1.2321130705793308,0.0037304139055448107,-26.731817930092944,22.932715859528365,1.3363848565725778
1760681130.257715,-6.185845156233083,0.10243366571449149,1.1725799539601127,0.004155208572563791,-27.548708156969997,24.172622011127842,-0.8506825272888746
1760681130.2677302,-6.147262723112401,0.04702339767344739,1.106781212221635,-0.004519268016092826,-28.00164655997199,25.244803197628695,-2.9905427738067316
1760681130.2776558,-6.183812570348905,-0.02256514565988038,1.038168849694991,-0.019961523313801268,-27.996321684608372,25.790568853098726,-5.281659081699398
1760681130.2876627,-6.307813811890231,-0.10146647981614403,0.9703179285269635,-0.039254175062069255,-27.46437547419807,25.457648331423435,-7.9494719902699345
1760681130.297695,-6.528813845639606,-0.18378403995687823,0.9067370826183113,-0.05936785382969068,-26.378943245233113,23.940730373531995,-11.21539271789835
1760681130.307934,-6.852258600654183,-0.2630646220821561,0.8506726664986741,-0.077612774874782,-24.765227788138745,21.01973326787506,-15.261733311302706
1760681130.3174882,-7.2785467880808055,-0.33291195103502297,0.804894682242345,-0.09198255516419312,-22.70336454968547,16.591647839865878,-20.197331260061844
1760681130.3276916,-7.802667604696829,-0.38769548764323136,0.7714681583221313,-0.10133556200224329,-20.32229637653658,10.692100226043507,-26.02943471250968
1760681130.337722,-8.41451600628265,-0.4232607382385131,0.7515377295666968,-0.10540104247049284,-17.785220996125055,3.5033331589284926,-32.647204648959786
1760681130.3477862,-9.099831131550635,-0.43751092920779394,0.7451733638123121,-0.1046370581371739,-15.268919779608009,-4.653728924504766,-39.8207341980675
1760681130.357546,-9.84156706139586,-0.4307331439584307,0.7513275778432212,-0.09999330388009173,-12.940499867381174,-13.344106875111535,-47.21708615086529
1760681130.36786,-10.621436171795287,-0.4055871475668432,0.76793428445989,-0.09263979146291261,-10.93551582322531,-22.058712242893158,-54.43214858111944
1760681130.3776941,-11.42138172277365,-0.36674197339240705,0.792145579482285,-0.0837153063436138,-9.341041345073371,-30.26579665534349,-61.03466365449959
1760681130.3876743,-12.224811144528232,-0.3202101888640468,0.8206703953931724,-0.0741340561273017,-8.186221150097367,-37.4679219353787,-66.61688463307301
1760681130.397699,-13.017508862139692,-0.2724794946316223,0.8501586584654877,-0.06447105488761724,-7.441446264128591,-43.25713624424954,-70.84508481512394
1760681130.4077823,-13.788213614686828,-0.22957353864821595,0.8775697563614842,-0.05493100048921447,-7.025853282485395,-47.36080600976915,-73.50269533436635
1760681130.4176795,-14.528881141135008,-0.19618948093545258,0.9004732880196188,-0.045394085194392676,-6.821573650845887,-49.67137103263285,-74.51938388448232
1760681130.427702,-15.234668337679286,-0.17505653211992706,0.9172481963357288,-0.03552450454210589,-6.692211879992376,-50.25506635773706,-73.98111353326364
1760681130.4378698,-15.903683612668784,-0.1666314218655023,0.9271662130587353,-0.02492029644919647,-6.502536968831707,-49.337342649901096,-72.11909874137751
1760681130.4476647,-16.536558734640582,-0.16919142873264478,0.9303616996533423,-0.013275177154411944,-6.136403681748505,-47.26617836166948,-69.27913212086709
1760681130.4576952,-17.13591008233061,-0.17931140779294277,0.9277021506620322,-0.0005174432256990585,-5.510442007557041,-44.458264749943844,-65.87620233674791
1760681130.4679039,-17.70576533064151,-0.19263441272818718,0.9205843434202402,0.01310697393726886,-4.581919318108904,-41.33633812601612,-62.341827616908645
1760681130.4777913,-18.251027379103586,-0.20478425273084125,0.9106902867047169,0.027028687722606026,-3.3502240597425432,-38.26783923236716,-59.072488950581146
1760681130.4877446,-18.77702804669398,-0.21223828749639906,0.8997406240124817,0.04042968313081943,-1.8524908155717086,-35.515075476779586,-56.38679936544301
1760681130.4978719,-19.2891944249622,-0.21298831610419153,0.8892778527386865,0.05238258067955214,-0.1548018462875271,-33.20511525955245,-54.496888218165715
1760681130.507905,-19.79281961585998,-0.20686423929700848,0.8805003028995878,0.06202125776255433,1.6590479459790384,-31.324070447553705,-53.49652790671438
1760681130.5175862,-20.29290565612291,-0.19546793419892605,0.8741565556738216,0.06870068903154095,3.499168249806144,-29.735864283117525,-53.3655233619113
1760681130.5277867,-20.794036062917353,-0.1817475317240336,0.8705024922350663,0.07210720201064139,5.2798814966995655,-28.221013328725952,-53.98745292312175
1760681130.5379303,-21.30024062175395,-0.16931721336474329,0.8693178559170607,0.07229568191482125,6.927632374304899,-26.527432031881837,-55.1763227173722
1760681130.5474317,-21.81483265281901,-0.1616779054509613,0.8699728613664611,0.06965119675789169,8.386036037758986,-24.42353974260407,-56.7070962050459
1760681130.5578544,-22.3402224093682,-0.16150885587484196,0.8715282103108145,0.06479125505319065,9.618120330900005,-21.74422099804328,-58.34525090633345
1760681130.5676935,-22.87773160953391,-0.17017657623254245,0.8728482062564518,0.05843634394481141,10.606188957391671,-18.422186302126114,-59.87134310574115
1760681130.5777314,-23.427445700162963,-0.18755128507679839,0.8727107496082036,0.051278875030483964,11.349963788589905,-14.50043759795145,-61.097885632627275
1760681130.5874465,-23.988137289484648,-0.2121447959630447,0.8699093892094698,0.043876290041215495,11.863757346844467,-10.12520359862859,-61.877483150361165
1760681130.5976954,-24.55727714703083,-0.24150799308392815,0.8633550389528296,0.03658755884594206,12.173370801695382,-5.522226323590627,-62.10286346190302
1760681130.6077986,-25.131125035693945,-0.2727715946190346,0.852190155113693,0.02956632295278346,12.313205172976911,-0.9620103812149186,-61.70087021819849
1760681130.6177049,-25.704870544551927,-0.3031937188532265,0.8359221479397179,0.02281625915265745,12.323755888826758,3.278963304459578,-60.62335309159487
1760681130.6280048,-26.272782490037805,-0.3305942341780075,0.8145690132798068,0.016301355527755287,12.24934433354012,6.95425721415011,-58.838067926127216
1760681130.637513,-26.82833046649072,-0.35360261155633244,0.7887963360250454,0.010086436185875262,12.135763208879347,9.875530856551375,-56.32223819379045
1760681130.6476715,-27.364264622731593,-0.37170707193680214,0.7600167306787415,0.004467578245032451,12.027551473277827,11.929877213268444,-53.0605162777922
1760681130.6576867,-27.872672636722584,-0.38514535939538186,0.7304208579649321,4.630663190905673e-05,11.964827358363243,13.08622600344612,-49.04793359500549
1760681130.6676247,-28.34506322313014,-0.3947038505121854,0.7029113274532607,-0.002289297871458309,11.97987237287807,13.392507378024712,-44.29723587490131
1760681130.6777124,-28.77254075180265,-0.401489640302925,0.6809178479988803,-0.0014908741237496075,12.093861582417087,12.966164994850011,-38.84893439275771
1760681130.6875277,-29.146128483447793,-0.40671988294997524,0.6680868943012409,0.003431311594293808,12.314225282363164,11.98052414398417,-32.78161430438691
1760681130.6977146,-29.45726886081901,-0.4115483920200413,0.6678613981267166,0.013138812904118325,12.633113980971912,10.648799557087354,-26.219657974293288
1760681130.7074835,-29.698485892222607,-0.416933449824452,0.682990356260182,0.027704238335082013,13.02735584156254,9.206632985618258,-19.335673987638785
1760681130.717835,-29.864147562826194,-0.4235456208337031,0.7150294461138195,0.04642108838129732,13.460160473937231,7.893409947514594,-12.345613628082097
1760681130.7276673,-29.951222567321956,-0.43171213402051506,0.7639089406762124,0.06773399025994178,13.884632444607872,6.93247042747846,-5.495731703932478
1760681130.737697,-29.959890043993177,-0.44138905267710354,0.827652480595993,0.0893178057638662,14.248930442629144,6.510713226973501,0.9579799182199839
1760681130.7477262,-29.89384465884157,-0.45215040911201476,0.9023265840158466,0.10830771813172471,14.502695027468652,6.758825229827365,6.775758267957726
1760681130.7577162,-29.760162859749205,-0.4631944876530705,0.9822822490915507,0.1216528586177073,14.604197710363334,7.734196378760942,11.762053128150916
1760681130.7678366,-29.568673695045657,-0.4733879693148254,1.0607130618879348,0.1265364005324581,14.527501877025154,9.409256090192315,15.791325314948978
1760681130.7777195,-29.330895832988286,-0.4813805457964586,1.1304971330352205,0.12078354619082574,14.26871514015744,11.668223140752346,18.82719816225033
1760681130.7877414,-29.05871812379691,-0.48580942992597176,1.1852162330600093,0.10317831371874545,13.850150661077949,14.314792337196758,20.930995542795394
1760681130.7977252,-28.763067053666944,-0.48557608515726197,1.2201686845979147,0.07363769591697672,13.321009415641663,17.091815184345514,22.25711349324815
1760681130.8076694,-28.452799937794445,-0.4801336702501011,1.2331430501786769,0.03323449867684093,12.753287966620006,19.71159838960302,23.03489001986616
1760681130.817979,-28.133999254574004,-0.4696947782586252,1.2247379139975396,-0.01590988744748565,12.232309576272089,21.8926567624555,23.539159592098084
1760681130.8277838,-27.80974849460852,-0.4552743149155691,1.1981210382783696,-0.0708375232533605,11.842683462080348,23.39667476738751,24.05384196647278
1760681130.8378139,-27.48037044273194,-0.43852942249468263,1.1582888746667293,-0.12805285647475081,11.652253825485378,24.058925136832958,24.834193924516846
1760681130.8476543,-27.144026278621993,-0.4214293114954497,1.1110399111236946,-0.18388922779040828,11.697900811264944,23.806642815337874,26.073509202668586
1760681130.8577237,-26.797522612854674,-0.40584598552305484,1.061944062782944,-0.23490910395888437,11.977127070756419,22.662427118511346,27.8791488681814
1760681130.8678718,-26.437160364695465,-0.3931757383795686,1.015555213542535,-0.2782852573960555,12.447995343266928,20.73291849445545,30.261112869546597
1760681130.8779116,-26.059482425410383,-0.3840808912865183,0.9750030727656495,-0.31209858199832996,13.03764557221975,18.185936331035638,33.134303758030704
1760681130.88742,-25.661824328654472,-0.3783978334958538,0.9419658124481676,-0.33549423012323026,13.657168089661207,15.221245594633869,36.33353567039207
1760681130.897593,-25.24262545022834,-0.37521028448400107,0.9169182983640122,-0.3486650995085711,14.218887570873699,12.040782476613495,39.63850400969178
1760681130.907831,-24.80150398326479,-0.37305152276890513,0.8995037338490923,-0.3526737400847119,14.651677958472026,8.823560997247123,42.80462458160101
1760681130.917687,-24.33913357296185,-0.370182646895058,0.8888912153028569,-0.34916494173668583,14.91086382386454,5.708911008261428,45.59507890319597
1760681130.9277527,-23.856983615121905,-0.3648919442722544,0.8840367171443143,-0.3400451704533821,14.981128710932904,2.7896131941803044,47.80961639415235
1760681130.938011,-23.356997282625642,-0.3557665620694912,0.8838300100518943,-0.3272030290813588,14.87289766557944,0.11441487475660171,49.30655071592346
1760681130.9478574,-22.84127967263532,-0.34189894907766,0.8871582802322292,-0.3123198143925621,14.614215067087391,-2.3022121827424953,50.01572430479452
1760681130.9579947,-22.311855279421906,-0.32300615251957054,0.8929345869460428,-0.29678297500026957,14.240859370872895,-4.46611404545452,49.94171151344017
1760681130.9677105,-21.770534768468615,-0.2994577414564924,0.9001279801092539,-0.28168283041797443,13.787316605103848,-6.3885190822845095,49.15788967350362
1760681130.977672,-21.21891056273788,-0.27222356589167734,0.9078070621845715,-0.26785501929905564,13.280476424496294,-8.072992373976811,47.79303710664515
1760681130.9878235,-20.658480252368832,-0.24276110158914407,0.9151876482884108,-0.2559304300395188,12.736834597954171,-9.506480473913621,46.01277994426528
1760681130.997777,-20.090874797005903,-0.2128618871186141,0.9216679362836696,-0.24636675528057778,12.162938672873736,-10.655794431093218,43.9985499595772
1760681131.0077617,-19.51814499916586,-0.18447113203648544,0.9268401540576449,-0.2394538106098243,11.558084284803032,-11.469893687570872,41.926763722500986
1760681131.0179303,-18.94304015212446,-0.15949155096834475,0.9304783861802655,-0.23530037634210987,10.91798427929444,-11.887295587801777,39.9506840800457
1760681131.0277324,-18.369206238075993,-0.13958671955521634,0.9325107239799484,-0.23381818501286242,10.238249809897123,-11.847003429779047,38.186891072673795
1760681131.0377064,-17.801243595963868,-0.12600708116409087,0.9329863430234456,-0.23471805545559776,9.516890740826586,-11.300711817563446,36.70754573687932
1760681131.0478253,-17.24459257579308,-0.11946395579884904,0.9320450878853278,-0.23752709605746056,8.755483372878162,-10.223858825255533,35.538789709365375
1760681131.0581615,-16.70525019419324,-0.12006884032322045,0.9298918780035929,-0.24162848100303672,7.959032685184888,-8.623395638422775,34.66479988341509
1760681131.0678873,-16.189351414837876,-0.12734160029270916,0.9267742440069618,-0.246319504687345,7.134817747740579,-6.540856270209897,34.03632416363916
1760681131.077667,-15.702670501049926,-0.14027974878949717,0.9229602656883927,-0.2508804857153094,6.290655678802184,-4.050255994024752,33.58206452476294
1760681131.0877423,-15.250109869479218,-0.15747541259267173,0.918715683677114,-0.25464627797608885,5.433068784924057,-1.2513120461206038,33.221102810172766
1760681131.0975187,-14.835246220442086,-0.17726519521410988,0.9142813528908391,-0.257072737223574,4.565797868135942,1.7407388802692028,32.87467779595353
1760681131.1078024,-14.45999657279083,-0.19789785321800907,0.9098538214157974,-0.2577915783275913,3.6889803804291335,4.806990025890388,32.47596875219958
1760681131.1175032,-14.124450290417938,-0.2177038276422298,0.9055719576439334,-0.2566481858549974,2.7991375473584896,7.836530917697612,31.977038319390594
1760681131.1276765,-13.826888370033823,-0.23524956757385249,0.9015116832176928,-0.25371832013029877,1.8899428113281083,10.736272050919467,31.352627516171417
1760681131.1379204,-13.563981583417137,-0.24945968611488376,0.8976898536896751,-0.24930192368398288,0.9536201256416862,13.43770151397895,30.600966308291977
1760681131.1483984,-13.331130626182755,-0.25969282263222954,0.8940777014412197,-0.24389564644180767,-0.01724536303080387,15.899929625558086,29.742084026342237
1760681131.1577294,-13.122891380942816,-0.26576338557231116,0.8906241745899965,-0.23814936368000986,-1.0277388526060052,18.108986537053912,28.814246390422916
1760681131.1677322,-12.933421571102995,-0.26791000686279803,0.8872896510619135,-0.23281400856997722,-2.078785102851642,20.073857841696533,27.869133386882936
1760681131.1776881,-12.756891393247706,-0.26671965520386504,0.884089978810575,-0.22868696501733649,-3.1657819899763133,21.82010591367385,26.966270056643516
1760681131.1876185,-12.587815963223973,-0.26302121581784477,0.8811487075157978,-0.22655716954277308,-4.277988294096977,23.382117244396692,26.167110127987506
1760681131.1977978,-12.421286289230343,-0.2577634300807476,0.8787515660650174,-0.22714723909643225,-5.398813421150036,24.79507259899946,25.52910295176412
1760681131.2077804,-12.2530944562694,-0.25189117959607527,0.8773923613080521,-0.23104770075407652,-6.506951564162706,26.08770123010439,25.100050142111876
1760681131.2176392,-12.079766743024473,-0.2462333822402426,0.8777952192847495,-0.23864039188855027,-7.578137791119471,27.27675613939576,24.9130509132818
1760681131.227598,-11.89853465392201,-0.24141535507351872,0.8808971764742834,-0.25001312023225697,-8.58726178686853,28.36389455998278,24.98232096195519
1760681131.2376873,-11.707284766415555,-0.23780604506040726,0.8877797391588906,-0.2648736598700737,-9.510659314488219,29.335250361262766,25.30014486071936
1760681131.2476978,-11.504528490364036,-0.23550411902468021,0.8995479074863945,-0.28247698944730276,-10.328538870916143,30.16351587546201,25.835187533577464
1760681131.2577128,-11.289419506840643,-0.23435786170763123,0.9171676438579164,-0.3015844154733612,-11.027589147089335,30.81195356502655,26.53234339450908
1760681131.2679787,-11.061822596861754,-0.23400606610869548,0.9412842200949766,-0.32047517784615454,-11.603778212675588,31.239562155770322,27.314241996971706
1760681131.2776961,-10.8224107969249,-0.23392458242866163,0.9720509664593935,-0.3370285278269665,-12.06519308519716,31.406660438259127,28.084463659463502
1760681131.2877338,-10.572748734574812,-0.23346788825113451,1.008998873394769,-0.34888617475870093,-12.43453883558139,31.280340368602953,28.732453055053668
1760681131.297755,-10.315316697214655,-0.2319051804815911,1.0509729472015792,-0.35369187025690263,-12.750710381508988,30.83943076914173,29.140045021734934
1760681131.3079152,-10.053443543180064,-0.22846026107452705,1.0961532553075477,-0.3493889309207842,-13.068754003002145,30.07867772147872,29.18941071134245
1760681131.3179119,-9.79114038539496,-0.22236733414344018,1.1421682777298976,-0.3345410605371654,-13.457605937735623,29.011750454896013,28.772072176772816
1760681131.3276682,-9.532851310159572,-0.21294840277908555,1.1862953157881926,-0.3086300598948471,-13.99524202542857,27.672502065331518,27.798428727306973
1760681131.3378916,-9.283154992320418,-0.19970606306820157,1.2257278927980613,-0.27227818501912954,-14.761257515025196,26.113822024714516,26.207028098910342
1760681131.3477256,-9.046459748538465,-0.18241543218091824,1.2578757147529456,-0.22734474014236244,-15.827352170973494,24.403582009468597,23.972639547641833
1760681131.3578997,-8.826735899732435,-0.1611966817224641,1.2806522262307758,-0.1768572149407738,-17.246642904227677,22.617669718844677,21.112074361859083
1760681131.3677874,-8.627325733768163,-0.136556356953221,1.2927014753809423,-0.12475753667802637,-19.04307863299646,20.83084321993361,17.686684689112372
1760681131.3778272,-8.450864336803257,-0.10939741386224298,1.2935224882199834,-0.07547331914750124,-21.202413717165705,19.106883450606592,13.800585043025075
1760681131.387955,-8.299334266371153,-0.08100762070172791,1.283466665397332,-0.03335932003828533,-23.666172872907865,17.489963439503068,9.593906888466304
1760681131.3977845,-8.174262499906913,-0.05303649815520288,1.263610050774172,-0.002088839077409401,-26.329835209482773,15.999041721690533,5.230856085595708
1760681131.407895,-8.077047777177023,-0.02745968199164625,1.235531397010248,0.015901683405470334,-29.046129812036845,14.62636104733394,0.8830428091551319
1760681131.4178753,-8.009380005273245,-0.006512184683480768,1.2010490156326494,0.019809513407713517,-31.633902602062253,13.339976896091908,-3.290541572973989
1760681131.428007,-7.973683774703272,0.007439943891877612,1.1619766525364825,0.010622483647599112,-33.892474607652005,12.089068965259443,-7.164596579262334
1760681131.437694,-7.973492337141274,0.012116931172456966,1.1199498242751815,-0.009001568858525953,-35.6207289989553,10.810096482759185,-10.666619873047926
1760681131.447979,-8.013646408046883,0.005638119439252276,1.0763531000652515,-0.03511914011877993,-36.63932776476652,9.431969504778333,-13.790733207401553
1760681131.458013,-8.100222875128823,-0.013096914602910632,1.0323509424661836,-0.0630888396584028,-36.813565110924515,7.879302193528697,-16.603140586486457
1760681131.4677694,-8.240136052011035,-0.044022864139188586,0.9889957970988943,-0.08826678927986548,-36.073648311915775,6.0741408248284285,-19.23698120627661
1760681131.4778883,-8.440415848383713,-0.08561072428838025,0.9473646583262562,-0.10669461831765921,-34.42894318623585,3.9378086614188654,-21.875777696748443
1760681131.487912,-8.70724420368417,-0.13475923166715406,0.9086665923597085,-0.11566618873813538,-31.9731335164708,1.3951854919972986,-24.726522540965167
1760681131.4977374,-9.044907279075714,-0.18696149780880306,0.8742718859073381,-0.11408040087840637,-28.878374975330235,-1.616537690693636,-27.98543504484726
1760681131.5076597,-9.454870096867687,-0.23678274572315994,0.8456364242500416,-0.10252403764705913,-25.378266752543105,-5.133963875006155,-31.801251883710616
1760681131.5177839,-9.935172490307377,-0.27860362600270366,0.8241267290578066,-0.08307534231918279,-21.741528165576852,-9.149977369517487,-36.24215198897057
1760681131.5277717,-10.480270197208934,-0.3074964952806127,0.8107838846305763,-0.058870016466895436,-18.24016805155793,-13.5963554229978,-41.272561465985035
1760681131.537738,-11.081333009113232,-0.32005075014230244,0.8060886366738548,-0.03351627726453935,-15.117106427952955,-18.331556004713978,-46.74487578006892
1760681131.547895,-11.726917531367732,-0.3149722557936563,0.8097955694471693,-0.010471471943354283,-12.558290460933588,-23.138545143587063,-52.40878541897079
1760681131.5577,-12.403890019449024,-0.293339184311027,0.8208869783402805,0.007507945661846028,-10.673405476228874,-27.735856254366972,-57.93794374476178
1760681131.5676937,-13.098477401949843,-0.2584706427209278,0.8376623061445053,0.018755509904026003,-9.48769914472367,-31.8024147736943,-62.970737263978435
1760681131.5777209,-13.797341134045496,-0.21543142297542725,0.857940965198255,0.022873606303009747,-8.945614017107,-35.01370687448681,-67.15934374233868
1760681131.5877154,-14.488576147452248,-0.1702492671681127,0.8793305541037372,0.020694830380893477,-8.925125821954412,-37.084249846248156,-70.2194454946844
1760681131.5977328,-15.162534746488904,-0.12896349495172876,0.8995071787634057,0.014054861257709867,-9.26009388052797,-37.809457555390416,-71.97226552540482
1760681131.60766,-15.812377394655687,-0.09665752781719904,0.9164661265621333,0.005429117034788531,-9.766750346084672,-37.09916932373943,-72.37138322553332
1760681131.617484,-16.43427592151886,-0.07664622534336889,0.9287172251596905,-0.0025048409722796925,-10.269944039566996,-34.995629545407496,-71.5092576738827
1760681131.6277175,-17.027246791768174,-0.06997903928684385,0.9354099347868813,-0.007314463209847012,-10.625093932405486,-31.67085631776,-69.60223617560705
1760681131.638094,-17.592662160544556,-0.07537087362095767,0.936379029901919,-0.007203556117224678,-10.732918849930341,-27.402050907479115,-66.95710704995949
1760681131.64776,-18.133549677137754,-0.08958615569445347,0.9321084822123865,-0.0012876631021780445,-10.545559641203429,-22.528282718458616,-63.92572717401563
1760681131.6577878,-18.653824848236507,-0.1081986205265458,0.9236201178449738,0.01028861787252693,-10.064311794279604,-17.39599061234673,-60.856030404203786
1760681131.6677332,-19.157594127424826,-0.12656117344244674,0.9123010955325361,0.02640466262021701,-9.330552234016823,-12.303710531845363,-58.047615313255186
1760681131.677936,-19.64862982739505,-0.14077345853358794,0.8996892768701812,0.045167925090539046,-8.412368752336869,-7.457040284564173,-55.718439515288644
1760681131.6879535,-20.130063033588307,-0.14844166147242166,0.887241677711679,0.06422639022768321,-7.389739693213804,-2.9429078067894,-53.986447951426435
1760681131.697777,-20.60428326155802,-0.14908208032846637,0.8761193039668719,0.08113458650139148,-6.340847911878768,1.2718503304306754,-52.866903930475736
1760681131.7079444,-21.072988931512697,-0.14410937418683623,0.8670258504029627,0.09371603960939738,-5.33139822821212,5.3177302459009805,-52.283489342054544
1760681131.717724,-21.537311291281842,-0.13644578454909936,0.8601307177413602,0.10036977222366997,-4.407891452393804,9.380705205601537,-52.08940552897625
1760681131.7276032,-21.997937164539707,-0.12986334325020343,0.8550879021906932,0.10027881987562282,-3.5949300697105784,13.650036342113731,-52.093884533107556
1760681131.7377098,-22.455175503181888,-0.12821103425020164,0.8511392554270922,0.0934945834550518,-2.895958203124099,18.26623632321499,-52.08957454949944
1760681131.7479343,-22.908939139557628,-0.1346806444203826,0.8472741362614638,0.0808909743615242,-2.296451883280023,23.279256873397582,-51.87695837527464
1760681131.7577653,-23.358638659110287,-0.15123727287216235,0.8424134475507348,0.06400303165817263,-1.768476372465097,28.624679314393436,-51.283084346006774
1760681131.7677696,-23.803006526246936,-0.17829620939440988,0.835592357646618,0.04478210750501789,-1.2756606496310232,34.12206537818352,-50.17324516728204
1760681131.7777767,-24.239885823762886,-0.21467838953867,0.8261261820483894,0.02531189279874678,-0.7779222988591654,39.495372724961506,-48.455614271688965
1760681131.7877386,-24.666028502540712,-0.2578292801282385,0.8137518261781964,0.007534648855494159,-0.23561726913790762,44.41126452537989,-46.07999741908967
1760681131.7977207,-25.076951624571688,-0.30424627086528533,0.7987388839817617,-0.006967953420472921,0.38690168714057177,48.52804762608894,-43.032589146552084
1760681131.8077967,-25.466896270702808,-0.350031781181707,0.7819592941181609,-0.01711064948727199,1.118133715369248,51.54642127714386,-39.328881310850925
1760681131.817728,-25.8289232348217,-0.39147532460009726,0.7648965805058777,-0.0223501710078943,1.9764576481289382,53.2533843530303,-35.006716316399775
1760681131.8278582,-26.15516349897688,-0.4255682819040201,0.7495726042459566,-0.02265472780026487,2.9672255750941603,53.552366683196375,-30.121016530587756
1760681131.8377957,-26.43722173369923,-0.45037104832303404,0.7383767580101734,-0.018425864938001163,4.080041986338504,52.47551429830386,-24.741051859560113
1760681131.847785,-26.666711059577516,-0.46518295795785397,0.7337989282893622,-0.010405145442315033,5.286636922381307,50.17749124566301,-18.950335887079206
1760681131.8576798,-26.835880842550996,-0.4705056693614669,0.7380879789646668,0.0004095926899277379,6.540004722892576,46.913448269224645,-12.848502264818174
1760681131.8677373,-26.938288050163703,-0.4678305764239312,0.7528763813759173,0.012829470210447372,7.775613940202679,43.00621123650807,-6.553923855590555
1760681131.8777368,-26.969455154399753,-0.45930976970634024,0.7788259244749122,0.025528052273365902,8.915401225088111,38.80875543559027,-0.20546377504056684
1760681131.8877835,-26.9274517331224,-0.44738242005744505,0.8153580260282823,0.03709767225499456,9.874898876572633,34.66762417972147,6.038334073209023
1760681131.8984141,-26.813333853018747,-0.4344252364105653,0.8605330671633713,0.04612088251296252,10.57324082826889,30.891520191556392,12.003986794745437
1760681131.9080942,-26.631378965528302,-0.4224813603594486,0.9111320842391316,0.05126042845557398,10.945041774246183,27.727416451813305,17.51236383823873
1760681131.918139,-26.389067451982203,-0.4131000457893075,0.9629660985005762,0.05136195548748904,10.952415186222472,25.34473319471844,22.392111143760722
1760681131.927792,-26.096784123933404,-0.40729141581744394,1.0113926092574854,0.045559410829534734,10.594906224439004,23.826828553685985,26.495756977251048
1760681131.9375682,-25.767240077745047,-0.4055711457995605,1.0519638396175903,0.03337418999070584,9.915070105412466,23.168504398499895,29.716255066583784
1760681131.9479992,-25.414644428802692,-0.40804955543747423,1.0810848931092458,0.014800372805485342,8.997936311685429,23.278449645526987,32.00129452362767
1760681131.95752,-25.053686005084675,-0.4145185692271072,1.096542221523753,-0.00963538763279485,7.963622183314043,23.98627937232468,33.362681764528936
1760681131.9680977,-24.69841592568947,-0.4245087621984968,1.0977866038829691,-0.03885828060334149,6.953682284837416,25.054621533287325,33.878484522495945
1760681131.9778366,-24.361148045885074,-0.43731578257413284,1.0859168612853434,-0.07129647741196457,6.113065324924911,26.19702442853356,33.686474419634436
1760681131.9876184,-24.05150631174361,-0.4520150383746926,1.0633887845161998,-0.10501350493024877,5.5704597098128135,27.10194162614736,32.968768596461764
1760681131.997786,-23.77573655685008,-0.46748608761063015,1.0335379903569886,-0.13791656214502818,5.420136535786391,27.461750074841174,31.929319276033194
1760681132.007692,-23.536361426289737,-0.4824562614630973,1.0000348606064304,-0.16801114602696404,5.708133048336907,27.004171664455384,30.767615935855254
1760681132.0180488,-23.332198420729448,-0.4955586550183414,0.9663821585891961,-0.19365445333974304,6.424899538463572,25.522268666917686,29.653104260555658
1760681132.0277557,-23.158700669189756,-0.5053944998787328,0.9355331197724238,-0.21375641457413974,7.505547182842531,22.89886473944759,28.704957435925458
1760681132.0380192,-23.008537616351283,-0.5105962642106453,0.9096659635430226,-0.22788856332851007,8.837736995667337,19.121928578493662,27.98082005582521
1760681132.04776,-22.87231855882739,-0.5098978504925774,0.8901133935909569,-0.23628226611190076,10.276149492677261,14.288880924420983,27.476232689120543
1760681132.0577044,-22.739373756714766,-0.5022231850041879,0.877419911028632,-0.23972242834336474,11.661482845070017,8.599452291871959,27.13419358325841
1760681132.0678775,-22.598535853503755,-0.48680115803471885,0.8714864508530623,-0.23936444686614666,12.841184405874156,2.3381824780974383,26.86234037438454
1760681132.0780053,-22.43889529039748,-0.4633039502053445,0.8717584879443394,-0.23651570546419118,13.688770683754814,-4.151291189476888,26.55399294647052
1760681132.0878713,-22.250523173244613,-0.43198915861843434,0.8774175715889458,-0.2324252510804029,14.118748954095238,-10.497361211131528,26.108996425929455
