timestamp,angle,linear_acceleration_x,linear_acceleration_y,linear_acceleration_z,angular_velocity_x,angular_velocity_y,angular_velocity_z
1760515573.3062072,-0.5189511150482845,-0.09336475355357941,0.937884449811238,-0.41540803696284806,5.1696980761064015,2.9186234436018412,3.9705916674236397
1760515573.3161492,-0.5560033408161951,-0.08695719665335468,0.9409422911518719,-0.4176260624515843,4.370244583002566,3.3652155496219525,3.483760260935792
1760515573.3262346,-0.5860644205955748,-0.06926119613432373,0.9446653924132268,-0.4169524322153272,3.7380860230168445,4.313189824040941,3.1953280641603583
1760515573.3362057,-0.6028131284280628,-0.03955663498428075,0.9488863210736611,-0.4133004494787372,3.3420943188418217,5.840604658083294,3.1346971903274827
1760515573.3462288,-0.6003266398838101,0.0013232500369119889,0.953250498683377,-0.4068800464220175,3.2277206845722586,7.959672980542384,3.3114489054414196
1760515573.3563378,-0.57355204404327,0.05055982747143157,0.9571870250547007,-0.3982635937183673,3.403439589246643,10.5928814667256,3.708440272482929
1760515573.3665183,-0.5189082907078919,0.10307084272339438,0.9598971943385446,-0.38841326642982166,3.829185676308641,13.555394798040716,4.276082086689229
1760515573.3762503,-0.4350029006994049,0.15148215289047287,0.9603681455527652,-0.3786586418179935,4.409084167174808,16.548197179309323,4.929057507460157
1760515573.38622,-0.3234003915122335,0.18643980558098316,0.9574215562880268,-0.37061992661916765,4.990703699854348,19.16604721323761,5.5467981900832495
1760515573.3961666,-0.18932991959283235,0.19732527028113572,0.9498062542498317,-0.3660789132922404,5.372637629667236,20.923235684650436,5.978879817681745
1760515573.406181,-0.04218694396585641,0.17338614685730877,0.9363389469176633,-0.36680405425789764,5.32142145413395,21.29828080747895,6.056083259183124
1760515573.4161353,0.1043307789395555,0.1052306045968315,0.9160893618305441,-0.3743354934047234,4.597611590708804,19.796096595582483,5.6071820021316965
1760515573.4263015,0.2326147241509152,-0.013438043062478939,0.8885947440144769,-0.38973422931562524,2.9893202022542154,16.022991068424137,4.480601354229498
1760515573.436166,0.32219974189050066,-0.1840564077624701,0.8540747973695868,-0.41330826158066414,0.3497598570235088,9.766371583246965,2.5690222713368684
1760515573.4462237,0.3515253203015979,-0.40171459310339647,0.813606098783724,-0.4443544136248167,-3.36634588482256,1.0675851761193,-0.1661273930610652
1760515573.4562192,0.300288733637998,-0.6543328911570758,0.7692116291888966,-0.48098557119091556,-8.07396207139977,-9.726567954401398,-3.674363564919047
1760515573.4662304,0.15209879692838307,-0.9228816985214331,0.7238304907861843,-0.5201254517256572,-13.543625528798522,-21.94936446095725,-7.80468670174634
1760515573.4763453,-0.10298030809543815,-1.182907308566092,0.6811520263127557,-0.5577340845124902,-19.40848591596649,-34.65046024048272,-12.307457551219944
1760515573.4861846,-0.46643407161336337,-1.407401358645565,0.6453184076042664,-0.5892831229233357,-25.196650812643746,-46.6900431055744,-16.852808933012973
1760515573.4961796,-0.9302368346738348,-1.5707316879478743,0.6205099123066817,-0.6104399977556358,-30.3885040554644,-56.886155931568204,-21.06622386228855
1760515573.5062292,-1.4769858716997637,-1.652960263352763,0.6104271848153371,-0.617847841580977,-34.49208945391533,-64.19462114311428,-24.578041244193336
1760515573.5161748,-2.0813006312557083,-1.643532689635895,0.6176991986963704,-0.6098192256769801,-37.12232487463672,-67.88488294997778,-27.078971171079747
1760515573.5261881,-2.712329263793675,-1.5432921265381665,0.6433029691002988,-0.5867355040243767,-38.06523416795156,-67.6673705337836,-28.369874539613786
1760515573.5364401,-3.336999190854884,-1.3642294177428194,0.6861551850171917,-0.5510061572409393,-37.31059354524336,-63.737532109169145,-28.393702765295835
1760515573.5461693,-3.9235278659049517,-1.1271465465596333,0.7430450116800894,-0.5065944304120868,-35.04571317641008,-56.72709120607167,-27.241981223499526
1760515573.556253,-4.4447023698192405,-0.8580232120066451,0.8089801950662475,-0.4582728403130405,-31.614717433093873,-47.580833205297665,-25.13567028449737
1760515573.5661654,-4.880523703736976,-0.5840418639239144,0.8778755071696309,-0.4108282037970304,-27.455966349761628,-37.39393582905621,-22.386793600841386
1760515573.5762422,-5.219943392254654,-0.3300270586047594,0.9434173435562989,-0.36837836864690554,-23.032952774925775,-27.247218887514833,-19.350366039962335
1760515573.5862172,-5.46154844431965,-0.115740345621164,0.9999252125025919,-0.33387541951893834,-18.77215548041302,-18.07007455253093,-16.376025048470485
1760515573.5967786,-5.613160670349238,0.04578767259538083,1.0430687324928734,-0.30881945158625324,-15.016942452883832,-10.548851908620808,-13.766835109292025
1760515573.6062255,-5.690423408570158,0.14886955349988962,1.0703456013067152,-0.2931887858120874,-12.001499701487429,-5.086268904643799,-11.750204215238243
1760515573.6161683,-5.7145666069151115,0.19480214869842286,1.0812675341705464,-0.2855780477356712,-9.84428954870606,-1.8074878571454378,-10.463246318943915
1760515573.6262612,-5.709657431883283,0.19071141302539052,1.0772461400792808,-0.2835156213795375,-8.557551203684355,-0.6018426761364919,-9.952425152828305
1760515573.6362295,-5.699726744979125,0.14785369961622805,1.0612242261101834,-0.28391277458077574,-8.068006687145674,-1.1860164875834855,-10.185141945077113
1760515573.64641,-5.70618158781669,0.07966214865169187,1.03714493561,-0.2835827063826598,-8.24383292119241,-3.174493404267318,-11.069386319238674
1760515573.6562533,-5.745852684791709,-0.0001840255718320437,1.0093674137300914,-0.2797583344336128,-8.923518814240277,-6.145624444104748,-12.476873287081824
1760515573.666398,-5.829887961791325,-0.07942365390837076,0.982117514679104,-0.2705328730225112,-9.943001732823188,-9.695471225559833,-14.265269467460678
1760515573.6763794,-5.963523503139144,-0.14841844243337632,0.9590263946408748,-0.2551518511805207,-11.15827841169378,-13.475543307015323,-16.29603301297591
1760515573.6862664,-6.146600255553392,-0.20078916195839994,0.9427840583016203,-0.2341056924773505,-12.461509653550007,-17.213881064619333,-18.4458056386752
1760515573.696177,-6.374595050874847,-0.23348675986310788,0.9349247710361764,-0.2090071803020954,-13.789567596957042,-20.721360207380762,-20.61090355408871
1760515573.7063215,-6.639907577280574,-0.24640656171188424,0.9357563033415748,-0.18227601418192643,-15.125028138557221,-23.8865634321733,-22.70597093061654
1760515573.7166162,-6.933172172462861,-0.24171090411748725,0.9444367227630676,-0.1566823432647217,-16.49063611417589,-26.663162761625554,-24.659029306380447
1760515573.7264628,-7.244422519725173,-0.22302968060423892,0.959189544710502,-0.13482275949729883,-17.939014474341988,-29.053652705363262,-26.40576265811395
1760515573.7361794,-7.564010995219573,-0.1946797078586815,0.9776312064117243,-0.11861864738752675,-19.539712229293812,-31.09266549243108,-27.885790571264007
1760515573.746255,-7.883256891077083,-0.1610035105671324,0.9971659485018562,-0.10893298768976732,-21.365663219131307,-32.83216263276885,-29.042908115851635
1760515573.756178,-8.19485587452471,-0.12588778384130342,1.015386943022623,-0.10538776023222159,-23.48091393680334,-34.32974239304545,-29.829967925660764
1760515573.7662246,-8.493117618904261,-0.09248434449303554,1.0304150259931495,-0.10642539673501833,-25.93113323535866,-35.64039196953026,-30.21754320776998
1760515573.7764761,-8.774104269931946,-0.06312001411844172,1.0411135021092812,-0.10960217537019795,-28.737893848803058,-36.81143186599271,-30.204142119513897
1760515573.7863455,-9.035721143470932,-0.03934886200298385,1.0471418203753744,-0.11204765654008443,-31.896997817294807,-37.8801563823874,-29.824962958813945
1760515573.7963674,-9.277774677254056,-0.02208040331258522,1.0488477598314212,-0.11099014650077853,-35.3803148777308,-38.87366784639576,-29.1562568608872
1760515573.8061633,-9.501978379109255,-0.01171941004909423,1.047035912620993,-0.10424082987928616,-39.139908850812056,-39.810524480357536,-28.313269708829274
1760515573.8161738,-9.711868568000465,-0.008274765947415651,1.0426780221796264,-0.09054617523095825,-43.11281167798795,-40.703956417244854,-27.441145240592878
1760515573.8261676,-9.912592540798236,-0.0114246449336687,1.0366406562025274,-0.06975311024654705,-47.22478440419679,-41.56643198927405,-26.69966489823237
1760515573.836179,-10.11054960395692,-0.02055088031495719,1.0294959665102639,-0.042774950606751946,-51.39186714185554,-42.41522247775576,-26.243946418662922
1760515573.8464434,-10.31289268100925,-0.034768008318923294,1.021454923578094,-0.011386426812246919,-55.51945978593151,-43.27834615462836,-26.20402002737723
1760515573.8562682,-10.526924748292894,-0.05296796829497106,1.0124259994728946,0.022096025321897066,-59.499876493952236,-44.1999347240517,-26.666427346042944
1760515573.866175,-10.759441711456216,-0.07388416983274958,1.0021659970883647,0.0551810380598446,-63.21035117799811,-45.243732002958645,-27.660616570110708
1760515573.876183,-11.016079599556491,-0.09616224049895515,0.9904658212570863,0.0855523860006158,-66.51385519530375,-46.493181576170315,-29.15206044951151
1760515573.8863099,-11.300723474403728,-0.11842347106029534,0.9773116919081263,0.11135315249004323,-69.26455180277736,-48.04647662207872,-31.042960032501227
1760515573.896214,-11.615033630385629,-0.13932230770214787,0.9629815669725158,0.13137281725039793,-71.3184054371924,-50.005226665718574,-33.18040142466915
1760515573.9062252,-11.95814232660127,-0.15761481180070086,0.9480648683150865,0.14512332590445182,-72.54789985812873,-52.45635278171041,-35.37106320287154
1760515573.9165478,-12.326566452622272,-0.17225122877960958,0.9334132802202451,0.1528072726360813,-72.85856862739327,-55.44859978264063,-37.40097451726997
1760515573.9262362,-12.714362326267874,-0.18248257780383964,0.9200348856472121,0.15519796333747277,-72.2044340995702,-58.96727262435207,-39.0582335859135
1760515573.9362345,-13.113517958466398,-0.18794883156051348,0.9089443439672464,0.15346244353483493,-70.59948819126171,-62.912576888225736,-40.155970719760525
1760515573.9463184,-13.514542012599293,-0.18871397341509652,0.9009916255744452,0.14896063698484385,-68.1228532195904,-67.08735394569923,-40.55236947604541
1760515573.9564834,-13.907176742118967,-0.18523246091150186,0.8967076416360171,0.14304917008546164,-64.91611103482107,-71.19866999497117,-40.16456927571714
1760515573.9665751,-14.281143296413719,-0.17825788721471844,0.8962093137921269,0.1369133045216804,-61.172490111869415,-74.87501054172314,-38.97406542279354
1760515573.9762177,-14.62682845581644,-0.1687209944006482,0.8991881177708683,0.13144772970862045,-57.119102889977334,-77.6976178600028,-37.02288812476919
1760515573.986191,-14.935843698639934,-0.15760509251899738,0.9049737700217011,0.1272049955398541,-52.99487042643157,-79.24172421796318,-34.40200294816172
1760515573.9961696,-15.201424126593714,-0.1458397758497877,0.9126401343529468,0.12442414108484637,-49.02757700016566,-79.12173081902792,-31.23516969289243
1760515574.0061657,-15.418672923533624,-0.134227951713108,0.9211187687698013,0.12313681085849272,-45.413337591754726,-77.03396622404613,-27.662124675542646
1760515574.01617,-15.58468372041535,-0.12341805490673108,0.9293022583598324,0.12332497701437967,-42.300869731955736,-72.79135337108978,-23.82432366703472
1760515574.0264416,-15.698582271828002,-0.11392698540498343,0.9361366016910108,0.12508334966224202,-39.78186940480353,-66.34580475404356,-19.85517295262694
1760515574.0363421,-15.761520950228864,-0.10620549672777457,0.9407068848638372,0.12873312535572415,-37.887886870708606,-57.796122169018105,-15.87529267605243
1760515574.0461624,-15.77664000107126,-0.10072183457281167,0.9423152177184568,0.13484616743638653,-36.59348098229682,-47.381225481996985,-11.992182311261544
1760515574.0561755,-15.748986962728134,-0.09803166764785372,0.9405424862702336,0.14416423190527322,-35.82500499341047,-35.46032668509642,-8.302809483972814
1760515574.0661693,-15.685369809104152,-0.09880589615462584,0.93528056577735,0.15742802627685107,-35.47398792621945,-22.483021441814824,-4.8972479173145995
1760515574.0761662,-15.594116708484101,-0.10379861949855651,0.9267216480412805,0.17515921245699442,-35.4136174446986,-8.953116283280936,-1.8615891697504454
1760515574.08622,-15.48472751318097,-0.11375374692543734,0.9152989483955027,0.1974576717977077,-35.51631589092652,4.609716226518676,0.7211846083270752
1760515574.096201,-15.367426167915118,-0.12927044054042902,0.9015873979934635,0.22387675399659812,-35.66998211681935,17.706631373681837,2.773028237815654
1760515574.106185,-15.252650105022486,-0.15066703363216724,0.8861874215968573,0.25341511474214384,-35.79040033717133,29.891510673589373,4.225293661365119
1760515574.1163015,-15.150529930671723,-0.17788717473078924,0.8696217515470647,0.2846236722188548,-35.82782354414287,40.79584839652464,5.025051614621062
1760515574.1263616,-15.070413063648854,-0.21047543379323796,0.8522707321551012,0.3157916157298593,-35.76685294774522,50.14537969665831,5.141969700906921
1760515574.136188,-15.02047108495151,-0.24762073411494775,0.8343579842062325,0.34516220331961533,-35.620189337321555,57.76798376735768,4.574213512532866
1760515574.1462674,-15.007410655221403,-0.28824050107071764,0.8159820205474267,0.37113476638638687,-35.41814933722757,63.59293002349194,3.3519791953603537
1760515574.1561759,-15.036290090360746,-0.33106941338604384,0.797177046989326,0.39242220699296676,-35.19655445866373,67.64201693415264,1.5377337500978807
1760515574.1661751,-15.11043341400956,-0.3747265139259576,0.7779813776565784,0.4081468282697045,-34.985505192244695,70.01379108486057,-0.7771052875363957
1760515574.176205,-15.23143240362797,-0.4177550116720128,0.7584943232585144,0.4178710986142031,-34.800822183371636,70.86280228470454,-3.4786511273556364
1760515574.1861868,-15.399232066824249,-0.45864935925125666,0.7389096395120669,0.42157292127326174,-34.6390140060393,70.376521049854,-6.439260853492222
1760515574.1962247,-15.612300018146513,-0.4958953049570931,0.7195231534456185,0.4195834182802969,-34.475904865127376,68.7528947087585,-9.527247068350826
1760515574.2062204,-15.867877959566531,-0.5280436900557903,0.7007203523169409,0.4125060408114893,-34.2686204882701,66.18142425703525,-12.616279226120655
1760515574.2161765,-16.16229936231776,-0.5538180607836645,0.6829522416248124,0.4011305000923337,-33.96033778132544,62.83006231485737,-15.593272088308202
1760515574.2261808,-16.491335076204642,-0.5722337951682346,0.6667048431405314,0.38634876269250273,-33.486898382894076,58.83920594734545,-18.363815593812834
1760515574.236219,-16.850509803101957,-0.5826991931117774,0.6524643698311705,0.36907705622625464,-32.784074978918746,54.322743693660485,-20.854608322358935
1760515574.2464743,-17.23532943001545,-0.5850776694414679,0.6406798178836574,0.3501876176047959,-31.794110243233202,49.374785886700586,-23.01288330189973
1760515574.256495,-17.641376053527264,-0.5797024801933676,0.6317263266150188,0.3304549150193163,-30.470275430924787,44.07969813691587,-24.803344158772546
1760515574.2662256,-18.06425818313846,-0.5673430710663077,0.6258737005272103,0.31052146664038976,-28.77866082745845,38.52264550101344,-26.20351629853097
1760515574.2761827,-18.49943733088115,-0.5491263168216978,0.6232639231076882,0.29088721379767724,-26.697112800540644,32.798125544796065,-27.198583170591075
1760515574.286257,-18.94197952428079,-0.5264203620521225,0.6238996472101671,0.27192372234113676,-24.211977318283033,27.014790834167403,-27.776726698632093
1760515574.296198,-19.38629626451529,-0.5006947976053093,0.6276435658671795,0.25391072370634554,-21.313890488477384,21.295947126617044,-27.925767546271285
1760515574.306211,-19.825943262777635,-0.4733768935443631,0.6342276570646368,0.2370880421314558,-17.994130538036476,15.776137699737417,-27.631562292731758
1760515574.316246,-20.253537894918477,-0.4457263754379894,0.6432721160873892,0.2217115752223104,-14.242971192965355,10.59496703706851,-26.878233870842333
1760515574.3262143,-20.66083900275289,-0.4187484549802491,0.6543147913850609,0.2080995326837255,-10.051084210052567,5.889708374122605,-25.6499773914689
1760515574.3363838,-21.039007373640377,-0.3931566443832584,0.6668508787208598,0.196656623310474,-5.4143775937122145,1.7882817285273052,-23.933975046871783
1760515574.3463454,-21.37903464681646,-0.36938514384647053,0.6803793516849824,0.18786932813368062,-0.3417936412286923,-1.5961017356911766,-21.723896818179398
1760515574.3562963,-21.672295517665034,-0.3476379506650364,0.6944490985531939,0.1822721471184548,5.1353215440369056,-4.167886870244653,-19.02351084229202
1760515574.366258,-21.911147494590484,-0.32795244970353987,0.7086959673439481,0.18038965434826992,10.954372069700081,-5.849623308470907,-15.849986536935344
1760515574.3762307,-22.089482375410448,-0.3102542921112438,0.7228629742797124,0.18266109509953135,17.01552958319207,-6.5803912509023474,-12.236467130357203
1760515574.3862305,-22.2031345964723,-0.2943905334665889,0.7368001603998416,0.1893539776788577,23.180626294761506,-6.313073407463898,-8.233427351396418
1760515574.3961935,-22.25007957782871,-0.2801457525707562,0.750447150984968,0.20047261585096085,29.278128367958864,-5.011589278530359,-3.908342334438029
1760515574.4062424,-22.230403920559066,-0.2672616539113452,0.7638079064014665,0.21566855883185596,35.11434441020285,-2.649328425528506,0.6565953102868918
1760515574.4162452,-22.146081200148387,-0.25548412338156046,0.7769297478821653,0.23416294742713728,40.48996785800655,0.7900664693894989,5.368579261970645
1760515574.4264383,-22.0006234118831,-0.24464863816894092,0.7898948065908791,0.2546957953126948,45.22009158457411,5.308837278132805,10.1295659253434
1760515574.4363632,-21.798688773625617,-0.23479076695425685,0.8028239136577483,0.2755223595833269,49.154989941164914,10.888215119247082,14.842101737136538
1760515574.4462783,-21.545712312899994,-0.22624622213236442,0.8158877403859606,0.29447803295364666,52.19836411068356,17.479495308460976,19.41473993327125
1760515574.456208,-21.247595682140517,-0.2196980110179199,0.8293210966760651,0.3091260258027289,54.319660874835755,24.99493127965153,23.76639359202406
1760515574.4662411,-20.910461069165297,-0.2161418291889239,0.8434375599494367,0.316986555993475,55.55772903054584,33.30071654142614,27.829337441018712
1760515574.4761903,-20.540454122425498,-0.2167678955400166,0.8586362255132233,0.3158281367974475,56.014479814962016,42.21407248890343,31.55089789839844
1760515574.4861991,-20.143578329505942,-0.22278446669051438,0.8753851326666086,0.3039869762205106,55.83915881408787,51.50550602931913,34.89400324202457
1760515574.4962115,-19.72555456631376,-0.23522497181147228,0.8941685465399988,0.2806713729679343,55.205889934582956,60.90590241001179,37.836707382664144
1760515574.5062492,-19.291715200020555,-0.25478289027553175,0.9154000758491478,0.2462040156956031,54.28863123407862,70.11673241051585,40.37063480159469
1760515574.5162196,-18.846952979351045,-0.28170603306072617,0.9393193131605069,0.20215659866976685,53.23793903110324,78.82086487853,42.49812166572347
1760515574.5262294,-18.395745605363928,-0.3157593561411621,0.9658944933641614,0.1513376685586588,52.16294454439638,86.69183299861292,44.22782275136838
1760515574.5362067,-17.942266203683015,-0.3562419711421465,0.9947477023774175,0.09760503295605183,51.12042153279916,93.40092111311866,45.56888993755737
1760515574.5461886,-17.490569623528064,-0.4020285891299792,1.0251121997251609,0.0454911709389593,50.11159075530132,98.62333899311331,46.52448213154034
1760515574.5561936,-17.044818734165645,-0.45160368593442035,1.055830407205914,-0.00034045863312946473,49.08663419200096,102.04601805645328,47.086069737902896
1760515574.5661776,-16.609490897314313,-0.5030696667318508,1.085403194584184,-0.03574869927802592,47.95645459522783,103.37970641962707,47.230393265640096
1760515574.5761693,-16.189491566321223,-0.5541343532385915,1.112098847051655,-0.05777487650167301,46.610577783768925,102.37713782364574,46.9207670904717
1760515574.586327,-15.790107020208778,-0.602108983964123,1.1341200250021948,-0.06517887720228413,44.93911223439038,98.85734670967398,46.11360597316332
1760515574.5962737,-15.416754735573077,-0.6439643127549224,1.1498112856886589,-0.058721971973192254,42.855560561978905,92.73399756006204,44.76970444690103
1760515574.6062174,-15.074534676356276,-0.6764898505977942,1.1578734311260688,-0.04110749773198209,40.31648840642538,84.04345242448302,42.86825163238901
1760515574.6161928,-14.76763750868261,-0.6965762303126456,1.1575413834212152,-0.016564952305051582,37.33417807790141,72.96697684626821,40.42036876958471
1760515574.6262314,-14.498711028850067,-0.7015993156892124,1.1486874749538807,0.009848498885106976,33.97974010123515,59.84152028096772,37.478681594820806
1760515574.6362138,-14.268309177857736,-0.6898414915684179,1.1318334371106236,0.03308379266221803,30.37634711774654,45.154938778226324,34.14030914306151
1760515574.6462,-14.074541024508479,-0.6608560948592385,1.1080818957251968,0.048900495089303594,26.684347785543377,29.523968358503243,30.54235373765715
1760515574.656202,-13.913002079938572,-0.6156776369376189,1.0789967982719184,0.05448315132153855,23.081234345365853,13.656093043257988,26.85085656527931
1760515574.6663043,-13.777017884406447,-0.556810431277515,1.046463416030226,0.04878210715297586,19.739713541940084,-1.7009944100466556,23.245601534919643
1760515574.676198,-13.658174504940767,-0.48798565271165933,1.0125456740812115,0.03255152161948307,16.806920771582824,-15.816901132490884,19.903721159995193
1760515574.6862075,-13.547065696909476,-0.41373911492401566,0.9793433013834315,0.008108250088387864,14.387499704189295,-28.036826284973703,16.984727388328743
1760515574.6962235,-13.43416068776835,-0.3389021629284098,0.9488450778180023,-0.021129523330157888,12.532838453700297,-37.83452302029565,14.618640572921352
1760515574.7061758,-13.310691451717146,-0.26810308195389687,0.9227802478185109,-0.05123965912399045,11.237990927935149,-44.85446962136877,12.897810310677801
1760515574.716236,-13.169467353635886,-0.20535211778478976,0.9024813882661294,-0.07842926163064898,10.446638186024394,-48.93891844790411,11.872252467605307
1760515574.7261927,-13.005537301268761,-0.15374525224677416,0.8887789782838835,-0.09960300230908613,10.063070786631283,-50.13703003551724,11.548055987927066
1760515574.7364225,-12.81662876634763,-0.11528732611339225,0.8819457613747331,-0.11278262202082848,9.968958446582754,-48.695125186523725,11.888533396494898
1760515574.7465596,-12.603302890431355,-0.09081693679405344,0.8816999784457686,-0.11732205573888779,10.041909404938913,-45.02907075409057,12.817999181859541
1760515574.7563038,-12.368785192499084,-0.0800165020867499,0.8872659900878819,-0.11389633534092455,10.172658503882534,-39.68179598142292,14.228079720467472
1760515574.766187,-12.118469023135503,-0.08150184044151519,0.8974825481177412,-0.1042783888493558,10.27817972523029,-33.270648922528125,15.986221364137675
1760515574.7763832,-11.859141558661213,-0.09299336111513969,0.9109440466437299,-0.09095286469599205,10.308976495961257,-26.430416172379434,17.94572638593733
1760515574.786194,-11.59803853847068,-0.11156824415582058,0.9261571846717963,-0.07664382537774568,10.25001740403873,-19.758102880473842,19.956414705052808
1760515574.7963028,-11.341877845865364,-0.13398084370749624,0.9416930547222038,-0.06384613382568012,10.115969314393949,-13.765003522028351,21.874972253285215
1760515574.8062067,-11.096036488222666,-0.15702162005700773,0.9563137684547814,-0.05444435281960143,9.942297973918363,-8.840431418000595,23.574167846149113
1760515574.81648,-10.864009103349717,-0.17786851847672036,0.9690565958200434,-0.049479429353585506,9.774315751099351,-5.229995542784296,24.95032880290887
1760515574.826207,-10.647221100665462,-0.1943756194547791,0.979268710626315,-0.04908920641384964,9.65631413516698,-3.029646716853506,25.9287088802395
1760515574.8362129,-10.445185020527349,-0.20524866244174617,0.9865991229788598,-0.05261348837043102,9.62257827097513,-2.1949240831396626,26.466602739618875
1760515574.8463867,-10.255912182829746,-0.2100770454276674,0.990965126998676,-0.058825941284937386,9.691473645782395,-2.56308851000754,26.554194972980422
1760515574.856289,-10.076447293322689,-0.2092226093559809,0.9925122152011342,-0.06623707700379218,9.863089166805791,-3.8844256306471454,26.213168908060773
1760515574.8662558,-9.903396354093807,-0.2036009739050772,0.9915767166527787,-0.07340536998424663,10.12027293733723,-5.858216544734828,25.493118391033402
1760515574.8762622,-9.733366791831562,-0.19442168993468686,0.9886461674107689,-0.07919736369600908,10.432412249679887,-8.168830409638195,24.465909139633624
1760515574.8863914,-9.56330579673398,-0.18296095105181556,0.9843066042232965,-0.08295261884300906,10.761022566516344,-10.518007205948182,23.218362133572523
1760515574.8962271,-9.390765817887722,-0.17041337436821857,0.9791745507026764,-0.08453329870327415,11.066103924485125,-12.650456378744952,21.84391625929442
1760515574.9062245,-9.214122227425264,-0.15782314066807726,0.9738253477836791,-0.08426516620252324,11.312261785358466,-14.37115592212925,20.434159843411635
1760515574.9164753,-9.032733169547885,-0.14606176052869638,0.9687352720229863,-0.08279921535521777,11.473737849537175,-15.553976557227568,19.071211308842173
1760515574.9263468,-8.847000516170834,-0.1358162676121973,0.9642496145715854,-0.08093530779094547,11.537725018726558,-16.14230000282247,17.8218314905768
1760515574.9362454,-8.65828795410194,-0.12756890314492159,0.9605792246756595,-0.0794493518857514,11.505625953570014,-16.14304218104803,16.733864296311438
1760515574.9462023,-8.468678698459804,-0.12156960473794472,0.9578202216629151,-0.07895608345346683,11.392228394395634,-15.61589810038607,15.835195767797492
1760515574.9562857,-8.280595140877193,-0.11781403971406437,0.9559871781179391,-0.07982499838435267,11.223069643512849,-14.65971309373944,15.135014383285961
1760515574.966224,-8.096337249368151,-0.11604059012946663,0.9550484623236992,-0.08215253883706525,11.030498702751416,-13.39771484820608,14.626849422317921
1760515574.9762282,-7.917615268547339,-0.11575410907227446,0.9549536866256864,-0.08578316898530716,10.849081817965079,-11.963012934851672,14.292694324833924
1760515574.9863408,-7.745153587882579,-0.11627733339602757,0.9556473825068454,-0.09036673828739795,10.711024262850184,-10.485403295554946,14.107476518966948
1760515574.9962792,-7.578430250102896,-0.11682529447362591,0.9570683680705347,-0.09543811694971419,10.64221123051062,-9.080189621133925,14.043194764597175
1760515575.0062587,-7.415596600980044,-0.11659507767373722,0.9591384780070289,-0.10050529352577829,10.659329340038326,-7.839481005637799,14.072194366238834
1760515575.0162926,-7.253598611087977,-0.11486222443200629,0.9617466449688626,-0.10513280837207935,10.768342958094454,-6.826236552827439,14.169270828413987
1760515575.0262299,-7.088496148273227,-0.11107415683024727,0.964735162684143,-0.10900895879564243,10.964392542677379,-6.071185113720961,14.312552570892636
1760515575.0362504,-6.915949125228724,-0.10492981497007813,0.9678944402367616,-0.11198839724169737,11.23298691719389,-5.572630066051948,14.483366923984162
1760515575.0462723,-6.731813504977679,-0.09643466324211732,0.9709703847818931,-0.11410622027148522,11.552206311958276,-5.299025111868518,14.665487254904956
1760515575.0562022,-6.532771423037885,-0.08592246994936382,0.9736849087053556,-0.11556426976778009,11.895533575264952,-5.194056130341241,14.844247922406177
1760515575.0663042,-6.316912121373601,-0.07403917612444548,0.9757661459104185,-0.11669418341109876,12.234891856040674,-5.183788720334836,15.005974538806502
1760515575.0762742,-6.0841816911169495,-0.06168719324183285,0.976982466670369,-0.11790414896386957,12.543490866626618,-5.185262175981202,15.138016008336214
1760515575.0863304,-5.8366226042248295,-0.04992868690912059,0.9771742246749794,-0.11961724878367486,12.798169355781322,-5.115755086437942,15.22942458553883
1760515575.0963721,-5.57832971846491,-0.03984805919956592,0.9762787460423751,-0.12220924186127663,12.9810521050502,-4.901842908114603,15.272085492417567
1760515575.1063297,-5.315076208370206,-0.03238538188481236,0.9743456934545043,-0.12595302086428817,13.080481332658447,-4.487344827642336,15.261930423075013
1760515575.116212,-5.053627006011611,-0.02817261017736028,0.9715402589893459,-0.1309757886209177,13.091297652732973,-3.839346153156189,15.19983297630437
1760515575.126221,-4.800842406319497,-0.02741613179266659,0.9681312441909414,-0.1372335422026457,13.014609808076267,-2.9516885380600013,15.091878066195704
1760515575.1362407,-4.562736177679093,-0.029858097590031316,0.9644625050897739,-0.14450649157727807,12.857197331953225,-1.8456101719129714,14.948869423523231
1760515575.1462078,-4.343659909763309,-0.03482185838207327,0.9609110087068706,-0.15241859951410822,12.630647451058445,-0.5675414077016568,14.785118056818273
1760515575.1562123,-4.145746096684358,-0.04132359702927412,0.9578405330680356,-0.16048301178048008,12.350268406344155,0.8156256478469213,14.616688088134154
1760515575.1662295,-3.9686848688160192,-0.04822337933167226,0.9555622844462269,-0.16817082265378763,12.033785490644835,2.223214261335817,14.459347699699956
1760515575.176218,-3.809852157536482,-0.05438920230218057,0.9543102660356193,-0.17499356994131623,11.699838689378785,3.568638856588983,14.326490695577453
1760515575.186411,-3.6647533817265314,-0.05884893030041517,0.9542323600722094,-0.18058376679047236,11.366356387620177,4.76766807581152,14.227277244852388
1760515575.196404,-3.527698301283691,-0.060906773846639506,0.9553920895086095,-0.18475717758907967,11.048944453984435,5.746285721942927,14.165208700855334
1760515575.2062051,-3.3925898839525455,-0.0602078057137533,0.9577740661276335,-0.18754590879845873,10.759467047546298,6.447436901920291,14.137310400952353
1760515575.216283,-3.253704186394323,-0.0567466995961865,0.9612886761308861,-0.18919868555469685,10.504991562448271,6.836058256012525,14.134045222887469
1760515575.2262764,-3.1063587664684653,-0.05082959651126325,0.9657763292989229,-0.19015020255776313,10.287234054649435,6.9019381653078264,14.140010796982134
1760515575.2362394,-2.9474010451293404,-0.04300446018695765,0.971014823260061,-0.19096494338388273,10.102582180233536,6.660152962700406,14.135382800808847
1760515575.2463126,-2.7754832153205444,-0.033975646333241606,0.9767324954206087,-0.1922639358923338,9.942693893434765,6.149084267748247,14.097964804208923
1760515575.256286,-2.59112442267238,-0.024517468890136493,0.9826261105413427,-0.19464575318952465,9.795582580578845,5.426301997880488,14.005607100319814
1760515575.266243,-2.396592731049608,-0.015400216076015856,0.9883799010158388,-0.1986136615096224,9.64702419693917,4.562826176136957,13.838681905894587
1760515575.2762482,-2.1956585489142335,-0.007336357560534225,0.993683074643587,-0.20451764819955637,9.482080663743353,3.636414384058098,13.582271613994752
1760515575.286499,-1.9932681234940015,-0.0009447241830886151,0.9982454738981013,-0.2125150567215706,9.286535722480131,2.7245814259500674,13.22775797315036
1760515575.2965,-1.7951674544236524,0.0032762753464226136,1.0018118783474366,-0.22255039154808418,9.048079681821724,1.898082952695483,12.773597060890008
1760515575.3063846,-1.6074918549030357,0.004973567704777126,1.0041745792867134,-0.234354433228474,8.757144162954082,1.2155708057516128,12.22521081107876
1760515575.3162143,-1.436332738927393,0.0039638333762264406,1.0051835469462682,-0.24746244731036654,8.40735980219982,0.7199990877501568,11.59408559589982
1760515575.326217,-1.2872945993314344,0.00025580858601894117,1.0047546046843767,-0.2612488690405697,7.995672786212357,0.43711210583247784,10.896299883508231
1760515575.3362179,-1.165058151681744,-0.005932624298783519,1.0028768087315456,-0.27497274814163153,7.5221999942057005,0.376030813089829,10.150770566351884
1760515575.346219,-1.0729775713609828,-0.014170414156019627,0.9996192415610062,-0.2878272177155508,6.989924899048894,0.5316401601469144,9.377499680842792
1760515575.356266,-1.0127607079911045,-0.02383473943285018,0.9951358505625937,-0.29898842886483284,6.4043380055918515,0.8882148673002185,8.596044247400929
1760515575.3663096,-0.9842921608676213,-0.03416541477321502,0.989667147919606,-0.30766375588187184,5.773106222310356,1.423551239317615,7.824361939822389
1760515575.376432,-0.9856415643776472,-0.04434609214362044,0.9835396745910685,-0.31314326644058466,5.105817187787242,2.1128422906843185,7.078122143368864
1760515575.3862345,-1.0132588971051506,-0.05359456781808289,0.9771652814816633,-0.31485965430587565,4.413797382947442,2.9316611277435647,6.37050415259609
1760515575.3963532,-1.0623188637851442,-0.06124376008278732,0.9710396933769844,-0.31245839766389477,3.7099622912426526,3.857679594401872,5.712421178338304
1760515575.4063382,-1.1271560153668694,-0.06680241054005329,0.9657341763667943,-0.3058728748966372,3.008633387707837,4.871085800417924,5.113023092518271
1760515575.4162436,-1.2017345476639398,-0.06999356274343085,0.9618695292792018,-0.29539189344752376,2.3252512962208516,5.953994921853119,4.580266823236074
1760515575.426234,-1.280114422035791,-0.07077524938024729,0.9600621464217118,-0.28170310042522023,1.675926449518009,7.089387869419677,4.121318167951998
1760515575.436237,-1.3568957069935574,-0.06934936732292397,0.9608386968927997,-0.26589706511105166,1.0768014240407051,8.260194673295775,3.7425702821403846
1760515575.4463317,-1.4276329330729092,-0.06616103116571163,0.9645269486443606,-0.2494233748969943,0.5432471470180632,9.449041014785339,3.4491328127571617
1760515575.456285,-1.4892088917554376,-0.061885791451082126,0.9711410253950028,-0.23399915047568012,0.08895268179275935,10.638930252330953,3.2437521500464808
1760515575.4662697,-1.5401533669915755,-0.057401090372116104,0.980285475876637,-0.22147718124480328,-0.275031063246644,11.814808048206727,3.125252889157369
1760515575.476311,-1.5808916924252965,-0.05373941099503391,0.9911030368652255,-0.21368209008480185,-0.54126558923068,12.965629264208022,3.086735965041826
1760515575.486215,-1.6138982248309865,-0.05201731936510848,1.0022882934594173,-0.21222021180944764,-0.7069161445098965,14.086304914276559,3.1139278893059843
1760515575.496488,-1.64370156312525,-0.05332876488934233,1.01218450275566,-0.21826768447706882,-0.7747386708253878,15.178857422871221,3.184219375245251
1760515575.5064769,-1.67666191220585,-0.05859482595069876,1.0189714642947267,-0.23234716694965965,-0.7539603274525654,16.252314815466043,3.2669737591296486
1760515575.51623,-1.7204534816329553,-0.06838205158871175,1.020936821755715,-0.25411965104265594,-0.6608487268702409,17.321224887413734,3.3255114682549904
1760515575.5262377,-1.783248566361249,-0.08272577905959239,1.0168014386552393,-0.2822402400966368,-0.5187175588096739,18.4029210990121,3.320738553273918
1760515575.5362377,-1.8726859129028262,-0.1010039534105179,1.0060413580134617,-0.31434105659922806,-0.35719014824047296,19.51366150104511,3.215785168533379
1760515575.5463293,-1.9947725659610163,-0.12189576150182295,0.9891211267255599,-0.34719373173166806,-0.21071675902241277,20.663623694786246,2.9804991778087393
1760515575.5562346,-2.152896899323038,-0.1434405837811821,0.9675488500353289,-0.37706581726143457,-0.11649492235232048,21.850802275548062,2.5944797955738417
1760515575.566319,-2.3471260826872045,-0.16320002455127716,0.94370509541069,-0.4002348103030448,-0.11195709378912262,23.05429533456854,2.0476648935927133
1760515575.5762227,-2.5739305282754064,-0.17851934543472975,0.920474738994999,-0.41357584334597974,-0.23187802087580123,24.22808326989312,1.3381748503220405
1760515575.58628,-2.8264205949473675,-0.18687513911972023,0.90077796269119,-0.41510204005124723,-0.5050570400990282,25.296787003844635,0.46788644215665653
1760515575.5962484,-3.09510188136417,-0.18627672416880287,0.8871153287128887,-0.4043239173119487,-0.950596035717416,26.154801142929156,-0.5631621083613438
1760515575.6062508,-3.369071436505365,-0.17566176090870317,0.8812118469528615,-0.38232951623446515,-1.5740605272042894,26.669746361102447,-1.762047247995562
1760515575.6164048,-3.6375037243585253,-0.15520286228916813,0.8837988734715814,-0.3515701874050302,-2.3641917862199655,26.690647964612165,-3.146326637681587
1760515575.6262372,-3.891216835850199,-0.1264366177616156,0.8945441091946534,-0.3154243674903428,-3.291164600004091,26.060705103510994,-4.744129928202798
1760515575.6362467,-4.124071125813451,-0.09215101746537363,0.9121319184604527,-0.277654668189227,-4.307462202833444,24.633825217809783,-6.590202284726441
1760515575.6463451,-4.333951383014517,-0.05602268745681464,0.934486428115076,-0.24186563150231774,-5.352123655035614,22.293227427621982,-8.718079743013604
1760515575.6562939,-4.52313881525568,-0.02206911936039577,0.9591059905730744,-0.2110389088055902,-6.358430902128312,18.969657819492987,-11.14970476000087
1760515575.6662374,-4.6979894860110045,0.005954475807647955,0.9834509329367074,-0.18719604132198267,-7.264255832927932,14.656525442757244,-13.884728810965719
1760515575.676284,-4.867973338730712,0.025066064225056292,1.0053139102733315,-0.17122235879254447,-8.023569012305053,9.419720466349576,-16.892098766375636
1760515575.6863573,-5.044252148542278,0.03337454669773408,1.0231091312818592,-0.16286786150130847,-8.617220075088875,3.4007701297262214,-20.106114676920555
1760515575.6963363,-5.238053287696373,0.030186276844470627,1.0360370442034907,-0.1609120053929082,-9.061066820525577,-3.1871160118319564,-23.42816503508207
1760515575.7062263,-5.459115190636844,0.015947045182164814,1.0441064317883415,-0.1634460730412397,-9.409792465621253,-10.06998727436676,-26.734201772080993
1760515575.7163033,-5.714444136258289,-0.007913741906235382,1.0480236807557013,-0.16820802706710497,-9.75530360510226,-16.930754374376075,-29.887053468244012
1760515575.7262263,-6.007547504918399,-0.03918217556586098,1.048985980481857,-0.17290817866170777,-10.219533120806624,-23.433028300362455,-32.75199683111967
1760515575.73651,-6.338217018496178,-0.07507101853333219,1.0484286619752043,-0.17550039013231344,-10.94277465185392,-29.2502684086897,-35.21355159608551
1760515575.7462282,-6.7028439935502675,-0.11243497283310949,1.047769631495494,-0.17437266573693486,-12.069985632888939,-34.09805172018546,-37.19117180727422
1760515575.7566144,-7.095170601919848,-0.1479998938076541,1.0481819446302765,-0.16845031765556306,-13.73807995570542,-37.765538835543026,-38.651424021131355
1760515575.7667048,-7.507328392813093,-0.17862391027409247,1.0504253358631044,-0.15722207002001137,-16.066460546735954,-40.14098150167197,-39.614516816345095
1760515575.7764542,-7.930995632639989,-0.20160095150945348,1.0547647137534621,-0.14070811014734672,-19.15110646255312,-41.22642618492192,-40.153800733877674
1760515575.786239,-8.358515381107322,-0.2149878096583255,1.0609787454758048,-0.1193859396808621,-23.06054395010203,-41.13882095940028,-40.38803075732875
1760515575.7962668,-8.783844617275786,-0.21789611350642163,1.0684305293864695,-0.09408225585848759,-27.831200426558468,-40.097683009312746,-40.46749158508853
1760515575.806352,-9.203241443523554,-0.2106751772483691,1.0761658457380863,-0.06583897993329792,-33.46034957166542,-38.40213465505242,-40.55618985559717
1760515575.8163157,-9.615639100838967,-0.19493842184589483,1.0830240580361037,-0.03577009586250029,-39.896595049461844,-36.40169970984459,-40.812960040582844
1760515575.826344,-10.022697580049874,-0.17342865619495232,1.087767043518131,-0.004931970139762662,-47.0297365807008,-34.46553897227755,-41.37432314227494
1760515575.8363109,-10.42855739455851,-0.14974342404168864,1.089233146901684,0.025773557129059148,-54.68314914772582,-32.953884008646284,-42.341204775184636
1760515575.8463485,-10.839340556500261,-0.1279519566720508,1.0865079253851242,0.05565071368198758,-62.6120543143432,-32.19370196981001,-43.77037397787076
1760515575.8565636,-11.262453508356257,-0.11214657429725891,1.0790856225780052,0.08420647367969845,-70.51024536686297,-32.45880096942454,-45.670213255005734
1760515575.866331,-11.705750621376922,-0.10598207754213573,1.0669863100434382,0.11108738976973659,-78.0262293846331,-33.953395061040155,-47.99969830226586
1760515575.8763065,-12.176617422350382,-0.11225175529456588,1.050796417499867,0.1359678871779459,-84.7878074848639,-36.797962143556084,-50.669506888786245
1760515575.8862588,-12.681032063148523,-0.1325271941522361,1.0316135441268355,0.15842794220820716,-90.43233414721522,-41.0169331417706,-53.5448760462554
1760515575.8962471,-13.22266615616987,-0.16687179638101654,1.0108962550685203,0.17787772616340114,-94.63876577472121,-46.52888214894988,-56.45073625448412
1760515575.9062278,-13.802096166386095,-0.21364608699458118,0.9902399216131557,0.1935811970917035,-97.15740940955983,-53.14085231975616,-59.18017198988519
1760515575.9162405,-14.416212846556219,-0.2694549388927951,0.9711171792465676,0.2047962882841687,-97.8339123991644,-60.54881020831239,-61.50701495890992
1760515575.9262803,-15.05792979729917,-0.3293151134267518,0.9546360732356158,0.21099915355652943,-96.62507825114366,-68.34598576180672,-63.20249759613604
1760515575.9362555,-15.716289005283901,-0.38711113613795844,0.9413745513224228,0.2121159847652427,-93.60512606624289,-76.0404196670458,-64.05485063601812
1760515575.946229,-16.377028930156953,-0.4363448541156796,0.9313348994527095,0.2086728461597756,-88.96180118139291,-83.08258111984483,-63.889897883802554
1760515575.9562774,-17.023617967834387,-0.47109163903124257,0.9240233994695515,0.201804316909197,-82.98228425075088,-88.9031083993393,-62.59019252714709
1760515575.9662747,-17.638675730991704,-0.48699587852141774,0.9186157172630451,0.19311904402876368,-76.02935780770007,-92.95928290275194,-60.1101139986593
1760515575.9763079,-18.205626686358272,-0.48209783933024525,0.9141443750806032,0.18447010745277304,-68.50915617001766,-94.78698662443009,-56.484738453854774
1760515575.9864273,-18.710372800015822,-0.4572880174286989,0.909656216218071,0.1776991477554111,-60.83329537342423,-94.05294130192246,-51.831154326235456
1760515575.9963648,-19.14274712431856,-0.41623894346428725,0.9043227343052874,0.17441572622450732,-53.38004136194978,-90.60018973076065,-46.3418530706434
1760515576.0063484,-19.49753031521198,-0.36478236358618815,0.8975150295817879,0.1758451463756202,-46.46062475839806,-84.47859169374516,-40.270614072899505
1760515576.0162432,-19.77488104883959,-0.30986506326787017,0.8888585455456129,0.18274262520588402,-40.29672790163897,-75.95259116609967,-33.912044610761384
1760515576.0265174,-19.980134768206185,-0.2583517497957706,0.8782660040226886,0.1953520626003494,-35.01292819765018,-65.48146717657333,-27.576810575252157
1760515576.0366178,-20.123032584793027,-0.2159682149048073,0.8659313569330248,0.2133964837956237,-30.644131708175347,-53.672406810456614,-21.565405942895936
1760515576.046557,-20.216524758206553,-0.1865926494280039,0.8522700660309988,0.23610833679749033,-27.15440994916368,-41.21248287843372,-16.1436298442117
1760515576.0562694,-20.275338146649208,-0.171974936772666,0.8378104520319384,0.26231415958520393,-24.461564194354875,-28.790057703673206,-11.522586692424122
1760515576.0663042,-20.314506598569356,-0.17185323115932646,0.8230625676600047,0.29057322170958605,-22.4615414426588,-17.018120539703812,-7.845201334784218
1760515576.0762475,-20.348045633202187,-0.1843669375655088,0.8084021339971079,0.31934866264059664,-21.048052638829432,-6.371483175921412,-5.180251730942683
1760515576.0862448,-20.387915007491745,-0.2066353276163854,0.7940035311771507,0.3471774817538608,-20.124734082540385,2.852976383790064,-3.523949710891816
1760515576.096326,-20.443360264184577,-0.2353722546613931,0.7798398544683325,0.3728065048048633,-19.6093853551016,10.548069927739508,-2.8082474857777413
1760515576.1062489,-20.52066385861031,-0.2674286718750631,0.7657457024798812,0.39527226956968886,-19.431728388161364,16.77997900894674,-2.9143806268862718
1760515576.1163054,-20.623277666653635,-0.3001879360897603,0.7515186809655914,0.4139188999031794,-19.527340750575917,21.74835381396009,-3.689697900518173
1760515576.1262589,-20.75226199762776,-0.3317783386209985,0.7370262896946597,0.4283642181457379,-19.830692650983632,25.730798257304002,-4.965595702247607
1760515576.1362906,-20.90692798550597,-0.3611057834375124,0.7222871535730228,0.43843609851248483,-20.269670365763595,29.021610040757768,-6.574422336825826
1760515576.1462486,-21.085570231731566,-0.38774019268280524,0.7075055530879075,0.4441053142236665,-20.763002699466192,31.87486064684844,-8.363561947635365
1760515576.1562967,-21.28618121625585,-0.4117092988092661,0.6930525552736673,0.44543591161576784,-21.221060267094327,34.46057602708128,-10.205474614429034
1760515576.1663451,-21.507054272364666,-0.4332621442786506,0.6794032083806547,0.4425611860423553,-21.549788127911064,36.84020364237899,-12.003126245679196
1760515576.1765547,-21.7472029986388,-0.45265949273101114,0.6670517950275155,0.43568009104470806,-21.65703783577991,38.964134624424716,-13.690868251022042
1760515576.186411,-22.006547573658477,-0.4700295094087857,0.6564301946440814,0.4250630065245209,-21.46018804629209,40.69030938564896,-15.231347726534352
1760515576.1965282,-22.285842842275382,-0.4853018992382801,0.6478480818598659,0.4110579397368118,-20.893658803436686,41.819449900760866,-16.609411322210462
1760515576.2063658,-22.58635377538825,-0.4982130545514822,0.6414635896543059,0.39409348901498736,-19.91481041503363,42.13982425999018,-17.824196376848057
1760515576.2163286,-22.909322939869075,-0.5083641858782173,0.6372840785080911,0.37467855243068454,-18.506885838265045,41.47316424407839,-18.880669994138806
1760515576.2262492,-23.255315813760927,-0.5153116242151434,0.6351902442402841,0.3533991190022952,-16.67815138065533,39.71365302527954,-19.781778543005952
1760515576.2363014,-23.623561298844418,-0.5186692242371131,0.6349733867585025,0.3309106676196681,-14.45713494327216,36.85362073136528,-20.522138386794143
1760515576.2462466,-24.011415715560382,-0.5182051630189638,0.6363758501101072,0.3079233865321461,-11.884683046438202,32.9922803557857,-21.083900007489884
1760515576.2562575,-24.414062721128605,-0.5139183572624524,0.6391276345450397,0.28517835233706773,-9.004268815507748,28.32692763877458,-21.435112014027993
1760515576.2662497,-24.82451883667937,-0.5060820009810457,0.6429756052592078,0.26341531476272756,-5.852420819639981,23.128936527154366,-21.53062296837509
1760515576.276313,-25.2339525808343,-0.4952439314154758,0.6477039235462153,0.24333520300520786,-2.451201992480965,17.70914230049858,-21.315296001200874
1760515576.2862966,-25.63226081396189,-0.48217815093419414,0.6531455892409982,0.22556200358167144,1.195656966722344,12.378569623966438,-20.729091473565646
1760515576.2965126,-26.00879771190204,-0.4677903384007153,0.6591863980191284,0.21060886190909156,5.101978959305809,7.410898287790721,-19.713416300386417
1760515576.306359,-26.35313267478706,-0.45299079692539457,0.6657646075037047,0.198851881486655,9.293501714394136,3.012629286428414,-18.218048233407995
1760515576.316261,-26.65572510101496,-0.43855707347114536,0.6728712537600358,0.19051257078390604,13.798012747824213,-0.6943223157110152,-16.207903041281604
1760515576.3262618,-26.908438249219454,-0.42501231153925656,0.6805556078136461,0.1856474415255411,18.632747290702657,-3.6748450344228605,-13.668901357958266
1760515576.3362672,-27.10485823262937,-0.41254326674613123,0.6889371651359077,0.18414214452031902,23.791286395052836,-5.96738843509925,-10.612199947694165
1760515576.346381,-27.240423439715833,-0.4009741942008753,0.6982216541395345,0.1857083586545652,29.232638350349685,-7.657653006435787,-7.076088916715701
1760515576.356263,-27.312393803066502,-0.3898012931168601,0.70871610945089,0.18988429308676757,34.87509865764954,-8.843968907882525,-3.1249663593372583
1760515576.366257,-27.319696558297593,-0.3782814626047029,0.7208376553727424,0.19604311899264634,40.59671842707162,-9.600677387297935,1.1549415906351956
1760515576.376365,-27.26268294989084,-0.3655637845669297,0.7351116504669716,0.20341599743535876,46.24288219008921,-9.946205152350029,5.662996284875321
1760515576.3865423,-27.142828432969374,-0.3508525468725129,0.7521563828493636,0.21113593247289275,51.63999952726964,-9.821697287323166,10.293958298978845
1760515576.3962579,-26.962411363142866,-0.33359076889403194,0.772652245320984,0.218305589964444,56.61309320300066,-9.084400482889277,14.948767582009838
1760515576.4064615,-26.724209842566573,-0.31364771447727635,0.7972921594925259,0.2240877651518774,61.004351975242834,-7.517912979261079,19.54428492177453
1760515576.4165444,-26.43125933352315,-0.29148434407367546,0.8267080877913253,0.2278116388432255,64.68951992123351,-4.859190304230078,24.01976519238269
1760515576.4263287,-26.086711306880645,-0.2682631201521171,0.8613693373108307,0.22908094991796907,67.58926687080836,-0.8398604214413222,28.33820320381049
1760515576.4364219,-25.69382216903662,-0.24586737672659476,0.9014548570502237,0.22786293822956588,69.6734088091016,4.762961681033216,32.48171722772966
1760515576.4463418,-25.25608034111444,-0.22680200377319204,0.9467119608341692,0.22453252422158043,70.95697943215396,12.07323527977933,36.4415792669994
1760515576.45638,-24.777450498413447,-0.21396090241604948,0.9963220183525,0.21984864626843434,71.48855399103577,21.068031837248487,40.20489698746917
1760515576.4663563,-24.2626846612568,-0.21026500918064622,1.048797420708849,0.2148518233425962,71.33271788503643,31.543063327867603,43.740843899586594
1760515576.4762673,-23.71762832864679,-0.21819774776531903,1.101938462524597,0.21069095111761527,70.55003640885229,43.09826419142241,46.98954441214935
1760515576.4862666,-23.149443003332646,-0.2392968253441608,1.1528852577221294,0.20840290593001765,69.17912102717321,55.14759958527763,49.856377830000106
1760515576.4963193,-22.56667664482308,-0.27369704552551866,1.1982973470795657,0.20867394584626028,67.22587616696225,66.95444084096255,52.21373217267031
1760515576.506305,-21.979136527611022,-0.3198352970128308,1.2346704089267755,0.21161471676009957,64.66406210482778,77.69075568815097,53.91111087019134
1760515576.5164573,-21.397547463814107,-0.3744076640663421,1.258760878881164,0.2165915475324994,61.448690393078365,86.51500928040423,54.79296423445909
1760515576.526264,-20.833009056504643,-0.43261923549533676,1.268053392545757,0.2221684450156657,57.54008883099981,92.66035873303461,54.72189422059181
1760515576.536376,-20.29629921891724,-0.48871345895319096,1.261184528138572,0.22620644505872858,52.93296253426845,95.5221567055011,53.60336785453058
1760515576.5463023,-19.79710504323973,-0.5367194296031321,1.2382322000284933,0.22613219880218094,47.68271474110116,94.73268633077573,51.40722122134229
1760515576.5562515,-19.34328602451372,-0.5713075412989402,1.2007979289619095,0.21934089352137082,41.92148383594655,90.21184486705923,48.18144895182257
1760515576.566258,-18.94027514351555,-0.5885994514606532,1.151852286774071,0.20366172213950895,35.858840339042644,82.18533791651609,44.05526847576875
1760515576.5764587,-18.590693632268955,-0.5867589158231726,1.095370896306284,0.1777984299219244,29.766080602662573,71.16671894697446,39.23095751661034
1760515576.5864294,-18.294203339864453,-0.5662220110059081,1.0358375650384837,0.1416619145809366,23.947178581169112,57.905496678178345,33.966608327947604
1760515576.5962625,-18.047567722806644,-0.5295130447073397,0.9777157516917522,0.09653114911958989,18.702356333573356,43.30896543980209,28.553625790337854
1760515576.6063645,-17.844862293707013,-0.48070568745830505,0.9249841887609019,0.04500788118527931,14.291247499771048,28.348922496093078,23.292927868685346
1760515576.6163878,-17.677781280889274,-0.42467953296583344,0.8808011637073978,-0.00923570901959857,10.901971168269549,13.965610943299966,18.47267994375632
1760515576.626347,-17.53602402113614,-0.36635612695734177,0.8473186491881711,-0.06188468804435624,8.630745943888819,0.980625018311544,14.348886280502587
1760515576.6362803,-17.407787626356367,-0.3100714375559748,0.8256313120138131,-0.1085258230008078,7.474511380745191,-9.971240457815378,11.129105791044035
1760515576.646255,-17.280409531916458,-0.259174678748052,0.8158280784365645,-0.14523133592791085,7.3367546296546315,-18.48398969875618,8.9593096798169
1760515576.6563013,-17.141176728856603,-0.21586750794485984,0.8171134409588197,-0.1690948465164553,8.044673510239754,-24.392897639205845,7.914280234648048
1760515576.6663094,-16.978258478220496,-0.1812399618864448,0.8279732754774921,-0.17863444634482703,9.374243270413269,-27.758551445945184,7.9924832561556585
1760515576.6765757,-16.78165697463933,-0.15543278587315953,0.8463684037372159,-0.1739945648346624,11.07892512845673,-28.82775496862513,9.116548321734752
1760515576.6864312,-16.54403475244992,-0.1378565888260591,0.8699447448865868,-0.1569097140206376,12.917744155211606,-27.979563292765594,11.140116018749602
1760515576.6966093,-16.261281219901903,-0.12741465311617256,0.8962502331380657,-0.13043437653463344,14.679160008681224,-25.665926542463364,13.860947309259553
1760515576.7065332,-15.932720379698626,-0.1226976535348999,0.9229463878521086,-0.09848569496159158,16.198281800320967,-22.355795487913596,17.03914569497494
1760515576.7165027,-15.560925841026695,-0.12213912069364569,0.947998674121287,-0.06527970840928837,17.36622683508916,-18.48939537612386,20.4184417314504
1760515576.7263653,-15.151182986604313,-0.12413730728515883,0.9698270195046295,-0.034759354732479146,18.131587704162953,-14.446351202122559,23.747975205383867
1760515576.736287,-14.710706111982025,-0.12715988612072726,0.9873984257692179,-0.010108842806825035,18.49498708371195,-10.528265707163289,26.802025893901444
1760515576.7463064,-14.247763750190401,-0.12984917889660585,1.0002496349781582,0.006574091251812615,18.498516322541672,-6.953946224217735,29.395665609607097
1760515576.7562804,-13.770872188878487,-0.13113450965478113,1.0084392836813723,0.014411925384612338,18.212338253988708,-3.8641401037974137,31.39512384395559
1760515576.766352,-13.2881799439014,-0.13033924173096711,1.012442346263264,0.013689295173791156,17.72075512372988,-1.3323383873213,32.72250480303569
1760515576.7765172,-12.807098766304629,-0.12725568414810093,1.0130097141059293,0.005638359811574878,17.109631791149532,0.6213794387927211,33.355175051771646
1760515576.7863042,-12.334165806880748,-0.12216070605258751,1.0110193835505266,-0.007875362269077176,16.456421086415222,2.015768163911902,33.32060430970821
1760515576.7963474,-11.8750680840104,-0.11575669212429024,1.0073434519250373,-0.024702117358029737,15.823385250371905,2.894714434258506,32.68772549726342
1760515576.806273,-11.43473330894609,-0.10903886078829304,1.0027492434977867,-0.04273352312037018,15.254080060942403,3.3154819217776943,31.556028537622556
1760515576.8163934,-11.017390641297627,-0.10310531832356931,0.9978448040514304,-0.06016155371759003,14.772800113334533,3.3396087471663076,30.043626444417782
1760515576.8262742,-10.626528290850851,-0.09893881161045588,0.9930686553034821,-0.0756468153077832,14.386448813903124,3.026884103475895,28.275439160965263
1760515576.8362985,-10.264720499803271,-0.09720040237750764,0.988712072638358,-0.08839017881075317,14.088157376270473,2.43253398453536,26.372466285147997
1760515576.8465004,-9.93336082255303,-0.09808414682864434,0.9849539665713019,-0.09811675829114365,13.86190953515931,1.6073460038518639,24.442916931696324
1760515576.8562934,-9.632403335465417,-0.10127815116424713,0.9818898133230173,-0.10499219391565728,13.6874234142832,0.5999880959599359,22.575765278657787
1760515576.8663003,-9.360241981716484,-0.10604978687860918,0.9795472166673788,-0.10949768065300143,13.544597196202451,-0.5396279805190063,20.83708865077367
1760515576.8762705,-9.113822080858634,-0.11142800802940667,0.9778932188956864,-0.1122912305759295,13.416945329477187,-1.757250779491502,19.269280957794205
1760515576.8863664,-8.888989630840543,-0.1164201044417446,0.9768432265330056,-0.11407816400402201,13.293644061916147,-2.9926153508390843,17.892906247640585
1760515576.8964012,-8.680993604182596,-0.12019604119008447,0.9762773568082983,-0.11550580675795641,13.170060886402146,-4.179916550727146,16.710607890272072
1760515576.9065132,-8.48501081647305,-0.12219814139070392,0.9760629961226786,-0.11708941859333487,13.046921094800902,-5.250592465211687,15.712201639880837
1760515576.916273,-8.296574721556246,-0.12216781184039337,0.9760775965189624,-0.11917118866225603,12.928502167044464,-6.138035539073327,14.879952799836795
1760515576.9262695,-8.111841344932134,-0.12010775603274501,0.9762247844924001,-0.1219113010870606,12.82038729563429,-6.783432449765359,14.193137542744214
1760515576.9362755,-7.927688478363971,-0.11621061176495193,0.9764392790326903,-0.1253073175567939,12.727326680993789,-7.141710697467198,13.631301103961647
1760515576.9463687,-7.741691980841158,-0.11078317076892602,0.9766803865300411,-0.12923466064363934,12.651654553647322,-7.18656353384627,13.176040679722798
1760515576.956339,-7.552042709337989,-0.10418490496124946,0.9769179199155621,-0.13349829659896412,12.592524424653291,-6.9137237380136325,12.811513984933551
1760515576.9662714,-7.35746188726665,-0.09678797660432556,0.9771168768053574,-0.13788535176332167,12.546009493342085,-6.342008103138018,12.524106841916245
1760515576.9764588,-7.157151206867517,-0.08895707840868214,0.9772273275391697,-0.142210241075481,12.505925211943595,-5.512060377030855,12.301758807463118
1760515576.9863164,-6.9507845785423115,-0.08104104136213573,0.9771834851927018,-0.14634658353594224,12.46510145987359,-4.483068395638278,12.13336829277456
1760515576.996368,-6.738518599509849,-0.07336459480084381,0.9769121183156337,-0.15024268025265342,12.416775398792401,-3.3279438631968565,12.008525918765768
1760515577.0062728,-6.520980897149343,-0.06621122228061242,0.9763474760907852,-0.15391976216050288,12.3557953637271,-2.1275168641102584,11.917617975262848
1760515577.0163388,-6.299202414507182,-0.059797741662939476,0.9754485476057974,-0.1574551423522709,12.279412048484422,-0.9642583457140952,11.852165487615707
1760515577.0262644,-6.074490735121167,-0.054251909347021426,0.9742139976030206,-0.16095551881167994,12.187556043916487,0.08402166136612492,11.80517060514651
1760515577.0363333,-5.848277233686372,-0.04960697845145794,0.9726902689139012,-0.16452751303088012,12.08261860688179,0.9500846488472086,11.771250080997426
1760515577.0463595,-5.6219870610207545,-0.045819067100347444,0.9709701144625595,-0.1682519600457025,11.968834542327663,1.582356239960195,11.746426196666691
1760515577.0562966,-5.396968604832341,-0.04280094487336393,0.9691823234776513,-0.17216614805319053,11.851404578515295,1.9487614290594684,11.727575996506108
1760515577.0663035,-5.174489570168103,-0.04045862321256592,0.9674764872081157,-0.1762557401243642,11.735500730359531,2.038910295265562,11.71166313440779
1760515577.076293,-4.955780087890893,-0.038718620869286714,0.9660069047768762,-0.18045625902102364,11.625291173912998,1.8643736240467077,11.694954524054973
1760515577.0863132,-4.7420920604103145,-0.03754070691537442,0.9649172309398901,-0.1846627385781272,11.523113643693913,1.4569781744628598,11.67243756491097
1760515577.0965617,-4.534748928737439,-0.03691802434095287,0.9643246818269329,-0.18874527777535205,11.42891345854536,0.8652625006256146,11.637608176718247
1760515577.1063204,-4.335174018311568,-0.03687054372718977,0.9643020435998164,-0.19256757849705328,11.340030076334193,0.14944128648882243,11.58271448520988
1760515577.1163101,-4.144899110493842,-0.03743784635790633,0.9648581744728355,-0.1960054517680961,11.251360948757474,-0.6245956606022877,11.499436017301267
1760515577.1263497,-3.9655597151883675,-0.03867368079757354,0.9659219780300469,-0.19896364098063812,11.155867542026028,-1.391607934795823,11.379873905180881
1760515577.1362977,-3.7988761089134746,-0.04063932568687576,0.9673381185185086,-0.20139169360801426,11.045336793038404,-2.092984033828724,11.217649307034268
1760515577.1463432,-3.6466047169992626,-0.04338930521620615,0.9688819670100643,-0.2033005025056571,10.911283600550018,-2.6817676128742955,11.00887997191733
1760515577.1565516,-3.510436118646364,-0.04694528553643687,0.9702955755292755,-0.2047786963420274,10.745873044393576,-3.126242966019131,10.752837088952136
1760515577.1662765,-3.3918240849959824,-0.051261073012572496,0.9713383020941269,-0.2060036815366067,10.542747373027622,-3.41175011433073,10.452161469615435
1760515577.1762893,-3.29175187575359,-0.05618795120789702,0.9718391831572901,-0.2072393185342062,10.297662245890459,-3.540586865170279,10.112612888190787
1760515577.1863248,-3.21046712289216,-0.06145168196441338,0.971736682965073,-0.20881365941576038,10.00887220038771,-3.5300596430981255,9.742414892984266
1760515577.196276,-3.147237503573588,-0.06665146985584898,0.971095807231667,-0.21107603396787888,9.677249087162211,-3.4089429859283715,9.351322821784745
1760515577.2062767,-3.100191397763367,-0.07128807275342094,0.970100224853032,-0.21434042587808458,9.306151912314913,-3.2127785200143895,8.949575797205688
1760515577.2162855,-3.0663045351917715,-0.07482197361559938,0.9690236731648938,-0.21882751463444705,8.901082688032139,-2.9785777430673464,8.546893513578857
1760515577.2265952,-3.0415704574398355,-0.07675346539933463,0.9681874460744314,-0.22461827650740288,8.469166888376716,-2.7395780244628973,8.151651763773781
1760515577.2363281,-3.0213540947943223,-0.07670875835956453,0.9679097616547283,-0.23162831011879906,8.018500499649988,-2.520716517663927,7.770324602006887
1760515577.2463143,-3.000888632982953,-0.07451466383956251,0.9684517753295441,-0.23960712525337574,7.557415318633072,-2.3354108045617834,7.407223634162547
1760515577.2564297,-2.9758494411553023,-0.07024904962873184,0.9699662113498239,-0.24816244126904585,7.093732509902602,-2.1840677234364745,7.06450818710048
1760515577.2663612,-2.9429260917781903,-0.06425984136984939,0.9724563124061317,-0.25680539742017733,6.634097301306554,-2.054506254532989,6.742400842799051
1760515577.2763577,-2.90030880788326,-0.05714849707393226,0.9757521477382617,-0.2650080304498395,6.18349854408908,-1.924206069276569,6.439532167045091
1760515577.2863302,-2.8480098561401954,-0.04971700775796872,0.9795083870842282,-0.2722615889218403,5.745056342256051,-1.7640112688909764,6.153352176066697
1760515577.2963858,-2.7879587003364734,-0.04288280725493983,0.9832251393115089,-0.2781256819969268,5.320107557330247,-1.5426724697124157,5.880569523186142
1760515577.3065374,-2.723840345506727,-0.03757114503585894,0.9862929186972059,-0.2822632933925595,4.908551549226435,-1.2314544421031293,5.617598464675219
1760515577.3162916,-2.6606810330077773,-0.03459703043566596,0.9880624585513034,-0.2844619123976649,4.509360244279863,-0.8080167734470031,5.361001110995887
1760515577.326321,-2.6042197712829718,-0.03455018430693957,0.9879364615711379,-0.28464327885933866,4.1211249427013525,-0.2589074573196293,5.107910678284742
1760515577.3363242,-2.560139859235368,-0.03769890713994357,0.9854726459312194,-0.2828632023037126,3.7425171226985596,0.4197273316063529,4.856419554486495
1760515577.3463326,-2.5332711520731657,-0.04393132073816823,0.9804798144583977,-0.27930103366733433,3.372582365673719,1.2232682003196886,4.6059206747748975
1760515577.3563764,-2.5268988861489867,-0.052749912569487696,0.9730868542065646,-0.2742382924571519,3.010856197162502,2.1412631200229773,4.357401258192111
1760515577.3664122,-2.542307883327297,-0.06332392913533497,0.9637698547244331,-0.2680282222421359,2.6573698590932233,3.160929976812097,4.1136989831642
1760515577.3763995,-2.5786449491463745,-0.07458875588437125,0.9533305600226715,-0.2610607964060035,2.312672813395806,4.270637841660645,3.8797312073813472
1760515577.3863642,-2.633117270012527,-0.08537254197596102,0.9428256707298749,-0.25372831905575816,1.9780012425015663,5.462437260910798,3.662678010221911
1760515577.3963969,-2.7014885110042637,-0.09453158645250996,0.9334520898011165,-0.24639502914614936,1.6556520485982738,6.732888908600696,3.472027384341304
1760515577.4065878,-2.778794759885582,-0.10107989774514267,0.9264020622443698,-0.23937367793974368,1.3495047228505723,8.081806016026068,3.3193024403241123
1760515577.4162922,-2.8601685657646256,-0.10429757888358326,0.9227132736002197,-0.23291563705996962,1.0655202989462214,9.508989467099163,3.217249203624777
1760515577.426338,-2.941627924041642,-0.10380034029276386,0.9231442689722299,-0.22722427291763644,0.811982110027972,11.009507459019492,3.1783198592129795
1760515577.436374,-3.020675995797816,-0.09955726495499768,0.9280982344871603,-0.2224966774212464,0.599245720748572,12.568452838030396,3.2124386977265544
1760515577.4463234,-3.096589371104794,-0.09185838522044161,0.937601075098395,-0.21898593129231578,0.43882888913247525,14.156272014202576,3.3242458006284727
1760515577.456365,-3.1703484578407397,-0.08124906161181183,0.9513230111677237,-0.21706174683426085,0.3417802371505077,15.725636711442814,3.510227040971012
1760515577.4664202,-3.244252086673421,-0.06845217774161919,0.9686253192198608,-0.217238597668389,0.31640503205781645,17.2105281491823,3.756305586382594
1760515577.4765277,-3.3213173179678264,-0.05428804896100171,0.9886177211751536,-0.22014153443957005,0.3655898979542052,18.52792710597125,4.036531153339041
1760515577.4864826,-3.404573884021597,-0.03958585607034613,1.0102236308429418,-0.2263932113355677,0.48413735428127763,19.58235794502678,4.313414962173909
1760515577.4963293,-3.496334655988188,-0.0250754590302118,1.032261582248603,-0.23643124793075307,0.6566530918579233,20.273420580527908,4.540219395372775
1760515577.5063562,-3.597494101250605,-0.011264428222573477,1.0535509298425467,-0.2502978840623101,0.856561030531451,20.50616238882977,4.665162699818787
1760515577.5163236,-3.7069107848269853,0.001662604819152514,1.0730329276087625,-0.2674709616979202,1.046704296927827,20.203598040506005,4.637101065388807
1760515577.5264778,-3.820981337588093,0.013859497196917932,1.0898751817645582,-0.286808337199037,1.1817291961882828,19.3199962100506,4.411873094359345
1760515577.5363324,-3.9335827888753614,0.025697290752763304,1.103521369403145,-0.30664671924613573,1.2121092045735529,17.85296600804368,3.958244759464508
1760515577.546331,-4.036574206536157,0.03751190082971628,1.113670798330103,-0.32504300739344183,1.0893375921552007,15.852125370897333,3.2624416874068327
1760515577.5564172,-4.120937899519267,0.049304831291175404,1.120210060717034,-0.3401005970636483,0.7715848681878886,13.422361932175843,2.330685078347215
1760515577.5663202,-4.17841751352902,0.06052995388400808,1.1231461286874955,-0.3503040890999977,0.22905472987332035,10.720387118681847,1.1897452826122221
1760515577.57633,-4.203290222716371,0.07007597684535591,1.1225871023708738,-0.3547882619877424,-0.5515786275353296,7.94418131293218,-0.1141381452400324
1760515577.5864582,-4.193823684391184,0.07646233385510387,1.1187809433232239,-0.3534795492528432,-1.5639613950675815,5.315691921234723,-1.5177593854312512
1760515577.5963354,-4.153052007230811,0.07817020233600819,1.1121778086749277,-0.3470734876643142,-2.7800988624465988,3.0577113061065244,-2.945022209221598
1760515577.6063485,-4.088690744567646,0.07399816159109246,1.103463462177153,-0.33685470266238987,-4.149594627129209,1.3665314756259195,-4.312912562818197
1760515577.6165915,-4.012207623659645,0.06336411901824407,1.0935301145241967,-0.3244112693557254,-5.600262524348237,0.3830392715298162,-5.539515403696998
1760515577.6265388,-3.937225442889918,0.04651592846351173,1.0833848475785082,-0.3113172231152394,-7.040628312144529,0.16621486578478534,-6.553795257148225
1760515577.6363232,-3.877551445938182,0.024623294882182643,1.0740205714875537,-0.2988507666035279,-8.365027695939453,0.6739000040726894,-7.306325926500247
1760515577.6463716,-3.8452036996345833,-0.00028472733956505595,1.0662850257587084,-0.28779834456458453,-9.461836097310307,1.755567814139221,-7.779617110649673
1760515577.6565146,-3.848818283200965,-0.025562890583845796,1.060784376694445,-0.27837889717751974,-10.224812473284455,3.160446933177396,-7.996251795399114
1760515577.6663606,-3.8927429300444154,-0.04835556832480289,1.0578508634149753,-0.27030411914059965,-10.5667469191158,4.5620192426763015,-8.022866489631417
1760515577.676394,-3.9769574371834464,-0.0660883641575634,1.0575857106826498,-0.2629611695933238,-10.433803047199225,5.597137544112012,-7.968236476326938
1760515577.6863272,-4.097762163887622,-0.07693332321791631,1.0599603076755642,-0.2556677899218736,-9.818394844335062,5.915262402682858,-7.974461759596052
1760515577.6963372,-4.249015257378933,-0.08014480943409068,1.0649317974381969,-0.24792344463517957,-8.768322397007262,5.2309517070623714,-8.201427521249117
1760515577.7065032,-4.423621818583825,-0.0762070442137911,1.0725176130934744,-0.2395808358685579,-7.390249555570319,3.3711518511256173,-8.8061160458773
1760515577.7166393,-4.614983769864996,-0.06678553267145626,1.082783268335864,-0.23089130100126237,-5.8463332715099865,0.3085811067678222,-9.919669017269618
1760515577.7263346,-4.818176444580766,-0.054508471523781764,1.0957297844125131,-0.22241897201668148,-4.3437770267896445,-3.8259924597262716,-11.626038388016703
1760515577.7363403,-5.030692052111792,-0.04261423279130601,1.1111166127853287,-0.21485242421057124,-3.118200830160046,-8.756512963174636,-13.9463626688722
1760515577.7463765,-5.25266640308627,-0.03450268679612832,1.1283001749752934,-0.20876180052981722,-2.412881527614839,-14.098864113707261,-16.83265186385092
1760515577.7565663,-5.486591603374417,-0.03324107311817559,1.1461752262258895,-0.20435974911013807,-2.4568248065438723,-19.417088514216076,-20.172873974446034
1760515577.766386,-5.736617814634983,-0.04109722812280346,1.1632663326091601,-0.20132977774075964,-3.4448727008351447,-24.289014975152277,-23.807304866761353
1760515577.7763267,-6.007635300861467,-0.05918190617770363,1.177951458578756,-0.19877836480628996,-5.52239485463154,-28.369598999544166,-27.553522497928125
1760515577.78645,-6.304362577951423,-0.08726293011923231,1.1887412333964726,-0.19533710394010068,-8.775765229765355,-31.440761378860323,-31.235336315078545
1760515577.7964728,-6.630631717728504,-0.12377425507395362,1.1945130506071335,-0.18939397296729943,-13.22837640941147,-33.43926666564792,-34.709887162202655
1760515577.8065875,-6.988979523106451,-0.16600178366245533,1.1946229956296741,-0.1793940770936737,-18.840952331246083,-34.45838103123407,-37.88752542830706
1760515577.8163917,-7.380559863852092,-0.21040148989125126,1.1888784036125097,-0.1641406406777404,-25.51454557720711,-34.72378843641266,-40.74070761997789
1760515577.8263328,-7.80531604786888,-0.2529989050296243,1.1774137348468374,-0.14304075744541225,-33.09471437148879,-34.548661131823295,-43.30046052105836
1760515577.8363218,-8.26230673914771,-0.2898246038933025,1.160542385849168,-0.11625889191675522,-41.37589797567449,-34.27604263731783,-45.641428577916
1760515577.8463476,-8.750067549302956,-0.3173471348550706,1.1386515073252825,-0.0847563834541715,-50.10591989359838,-34.21824497873033,-47.85876728913806
1760515577.856325,-9.266907310075307,-0.3328659225849862,1.112176214025438,-0.05020926309605616,-58.991591957638825,-34.602756771321246,-50.041714619343736
1760515577.8663473,-9.811071728233562,-0.33482223654967547,1.0816495827360064,-0.01481168506550211,-67.70712081056914,-35.5325880865614,-52.249139067317046
1760515577.876663,-10.380746396406131,-0.32298762083051774,1.0477932919337443,0.019010667172103143,-75.90707346873529,-36.966501535423035,-54.4916564939246
1760515577.886347,-10.973909260750771,-0.2985088541092132,1.0116023552600224,0.04893461330240455,-83.2449329436076,-38.721622035098925,-56.72332956866991
1760515577.8964136,-11.588075327406553,-0.26381985575777583,0.9743850883302404,0.07306554981950213,-89.39689718621267,-40.49794022466278,-58.84397124920232
1760515577.9064186,-12.219997964263696,-0.22244909079752515,0.9377364314289849,0.09020081210429748,-94.08886839110609,-41.92165494226833,-60.711148679421115
1760515577.916312,-12.86539579223127,-0.17874074105402762,0.9034397890145835,0.09998935474073628,-97.12302912838027,-42.6023338283292,-62.159517381282285
1760515577.9263587,-13.518760935157353,-0.13748299473342385,0.8733066690890724,0.10296409444044742,-98.39953731495044,-42.19731119220901,-63.02420937894936
1760515577.936364,-14.17328041205805,-0.10342775861826715,0.8489751896624601,0.10043681954969808,-97.92900245782499,-40.47504276588909,-63.16448915480174
1760515577.9463449,-14.82087965537919,-0.0807107643682558,0.8316960204136654,0.09426043473203106,-95.8324115809698,-37.36697730196015,-62.483706036604346
1760515577.956501,-15.45238389166327,-0.07222951456928126,0.8221360734072213,0.08649048873325667,-92.32678092514887,-32.99584200453874,-60.941932734031525
1760515577.9665482,-16.057789100069083,-0.07908554802790818,0.8202310338535692,0.07901689992868735,-87.69708455131651,-27.669505790780878,-58.55885889506818
1760515577.9765782,-16.626635273954534,-0.10023360594181757,0.8251208555840187,0.07326558939490223,-82.25811492482859,-21.835889093357856,-55.40649539137773
1760515577.9865322,-17.1484785365502,-0.1324906447934452,0.8352004800174855,0.07005653658694143,-76.31319066021416,-16.0050752360021,-51.593686365506755
1760515577.9964979,-17.61346065623139,-0.17100358614858552,0.8483022742202476,0.06964218484851016,-70.11839382354562,-10.655826249472614,-47.24668460205019
1760515578.0064268,-18.01296383871617,-0.21012991781961604,0.8619972934841754,0.07187686269781304,-63.859944612890104,-6.149663979586441,-42.49121065126596
1760515578.0163364,-18.340309350842382,-0.24451412783939283,0.8739678886317929,0.07643366493636751,-57.64863742177508,-2.6731594738713125,-37.44067534807279
1760515578.0264142,-18.591421272311674,-0.2700644309604417,0.8823755728282234,0.08299801261082303,-51.530634310077765,-0.21952301960921666,-32.19271795113818
1760515578.0363212,-18.7653535513358,-0.2845917433991376,0.8861370216911596,0.09139793634349037,-45.51019671774519,1.3908058001970731,-26.833153738632532
1760515578.0466394,-18.86458580762177,-0.2880063267778972,0.8850394672787041,0.10165612923775635,-39.57806434973196,2.459579023595743,-21.444244550525454
1760515578.0563467,-18.89502673880496,-0.2820974897717584,0.8796756419032143,0.11396547000073594,-33.73896178295708,3.3439952496172913,-16.11348653158333
1760515578.066401,-18.8657023981562,-0.2700049524048555,0.871232302608711,0.12860449310028393,-28.03251775924877,4.389149241532357,-10.939612356491022
1760515578.0765173,-18.78813749088499,-0.25552466648622196,0.8611939561930921,0.14582183061749848,-22.543434343339268,5.873594909350279,-6.033708104782942
1760515578.086365,-18.675471939215843,-0.2423986032068718,0.8510251120510078,0.16572069906384113,-17.398982437073144,7.977551474602023,-1.5148377498580416
1760515578.0963452,-18.54140423424975,-0.2337272678944418,0.8418896950379281,0.1881646066096586,-12.754520993743204,10.776829365024428,2.4989081176986425
1760515578.106448,-18.399104049601277,-0.2316052161516009,0.8344595271455325,0.2127137891103953,-8.770207750292451,14.258873930816712,5.901759165502495
1760515578.116532,-18.26025881085153,-0.23701399779167362,0.82884744372265,0.2385966995766934,-5.583915175867794,18.352335822710398,8.611193306408866
1760515578.1263347,-18.134394867121976,-0.24993733291421247,0.8246719871142211,0.264720849851706,-3.2861980393109107,22.95948383313493,10.575863666138655
1760515578.1363306,-18.028553114214038,-0.26961583610879875,0.821225189528184,0.2897272019936242,-1.9026625648531519,27.981792409232668,11.77893907099438
1760515578.1463575,-17.947326650625453,-0.2948448684040842,0.8176862038408664,0.31208846694705944,-1.3872381110282388,33.33245732142232,12.23662142761676
1760515578.156316,-17.89320681969386,-0.3242362943227534,0.8133170611437583,0.33024373298064114,-1.6271281790533498,38.9341735422431,11.99282067885216
1760515578.1663227,-17.867144505227024,-0.3564003411714867,0.8075961684830075,0.34275324160863824,-2.4575065033476156,44.70493839997957,11.111721716822359
1760515578.1763146,-17.869215866955496,-0.3900405879092971,0.8002768535540289,0.34845251404381905,-3.682211261910508,50.537856049556915,9.6701514642993
1760515578.1863656,-17.89928099451819,-0.42398050154296407,0.7913835833764665,0.3465859757104115,-5.0961715915249615,56.28227394913125,7.751314836154912
1760515578.1963542,-17.957536185896753,-0.45715040427423353,0.7811682234411637,0.33690427162172104,-6.505855471053387,61.73297190088388,5.4408069938880095
1760515578.2063587,-18.04488359211059,-0.4885628105424008,0.7700467115075472,0.3197135511006676,-7.745145792423263,66.6319374247408,2.825058840103474
1760515578.2165878,-18.163072544902683,-0.5172962960180909,0.7585313887149487,0.2958686675992541,-8.685293275542412,70.68417099275992,-0.00827680258191767
1760515578.2264771,-18.314599322342392,-0.5424972095433475,0.7471703171211057,0.2667071069571203,-9.238708736813743,73.58571201723976,-2.9689241315631687
1760515578.2363272,-18.50238113590375,-0.5633987393666082,0.7365013551093792,0.23392766665227824,-9.357240238168208,75.05934482391584,-5.96265440680318
1760515578.246362,-18.72924420952646,-0.579351861991919,0.7270239774565069,0.19942658494534757,-9.026212440038664,74.89174575973584,-8.890992035287113
1760515578.2564433,-18.997287345032145,-0.5898636937598069,0.7191865164446151,0.1651113930714261,-8.255884338758767,72.9653948292445,-11.652573968436549
1760515578.2663476,-19.30720341508892,-0.5946426960041197,0.7133824135757159,0.1327169070809317,-7.072098132573814,69.27935457556949,-14.146314200811878
1760515578.2763212,-19.657658495545622,-0.5936508449842441,0.7099468463768951,0.1036480164155918,-5.507740186967603,63.954825834679774,-16.276062579084808
1760515578.2864194,-20.044833629073153,-0.587156465560299,0.7091448773491121,0.07887067504608801,-3.5962317291822226,57.223959760084284,-17.956084717222176
1760515578.2963305,-20.462220425018227,-0.575771725488952,0.7111450391621401,0.05886552761859409,-1.3676788195723204,49.40338413284059,-19.116485641731327
1760515578.306353,-20.90072757796581,-0.5604540711641849,0.7159785714579604,0.04364804945111239,1.1523283285132313,40.85678482664246,-19.70767614411482
1760515578.3166463,-21.3491058856075,-0.5424558125660929,0.7234927809524988,0.03284709151110006,3.9418028511946224,31.953011842723917,-19.70314311175182
1760515578.326391,-21.794644518081817,-0.5232185028194648,0.7333141653514225,0.025823625787417516,6.980160759011762,23.026972269432118,-19.100110661064953
1760515578.3364153,-22.22404412773747,-0.5042230207426087,0.7448399729716327,0.021805768891413866,10.245583456410625,14.34984532277915,-17.918077351351613
1760515578.3463526,-22.62434450678159,-0.4868171181294229,0.7572736353164978,0.020015770832907114,13.712639467628222,6.113154893661762,-16.19554897482356
1760515578.3563285,-22.983781633710105,-0.4720468627997741,0.7697101486086969,0.019769278118869686,17.35065898425317,-1.5715461606092713,-13.985464380020732
1760515578.3663466,-23.29246920063728,-0.4605169615531593,0.7812651186127185,0.020535303227639724,21.123187139143976,-8.658576799315401,-11.349843943081051
1760515578.376528,-23.54283510281531,-0.4522992842089899,0.7912300784760401,0.021954616535500345,24.98869635201929,-15.143309704018654,-8.354154670092036
1760515578.386371,-23.729783374836202,-0.4469012855080231,0.7992293997905119,0.023822602337817897,28.90255159068377,-21.03192345757335,-5.061845391409671
1760515578.3963275,-23.850587915553657,-0.4432987563524424,0.8053509677826086,0.026048552094686248,32.81995117674492,-26.311500290841416,-1.5294586850863185
1760515578.4064398,-23.904553076551604,-0.4400332704751048,0.8102237094804914,0.028605762330486437,36.69922814568128,-30.92565915759,2.197344444965139
1760515578.4163606,-23.89250088344943,-0.43537495290985345,0.8150206869532076,0.031485469924344166,40.504599781396536,-34.75956606712964,6.086546412296754
1760515578.4263315,-23.816168156266382,-0.4275507744511734,0.8213767541575319,0.034664626357967056,44.20737144445749,-37.6366195588257,10.12091380101743
1760515578.4363394,-23.67761497661554,-0.4150281061651235,0.8312222212995956,0.03809539460939656,47.7848519779487,-39.32784047115588,14.29687371331058
1760515578.4463458,-23.478749876188306,-0.39681949390356175,0.8465448075463446,0.04172273893866335,51.21675032213111,-39.57394243323589,18.62034222036496
1760515578.4564188,-23.221061239948476,-0.37274861105971896,0.8691005273097092,0.04553192928940321,54.47939408586683,-38.11875146510779,23.09897769673583
1760515578.4664373,-22.905610922715024,-0.3436097060338623,0.9001035117651265,0.049616347809587555,57.538577988486296,-34.750825456283515,27.73110362043454
1760515578.4768975,-22.53330268356416,-0.3111754000048665,0.9399367991880785,0.05423865256472087,60.34217281789257,-29.34814534126648,32.4926187051541
1760515578.4866228,-22.105392913927172,-0.27804813454489863,0.9879347695203619,0.05984476222182738,62.81385805628456,-21.919321907583214,37.32416337698106
1760515578.4963686,-21.62416921552457,-0.24738254847621235,1.0422845819231412,0.06699360943476369,64.84954407524089,-12.634423450529596,42.12130524232828
1760515578.5064602,-21.09368605354266,-0.22251577719426685,1.1000773974854694,0.07619097919192803,66.31817689490146,-1.839342066309521,46.73045368599157
1760515578.516337,-20.520419786954236,-0.2065389169010156,1.157516584930214,0.08765379369318907,67.06847957841238,9.950651875165342,50.952663631955275
1760515578.5263433,-19.913695286421337,-0.2018427216301972,1.2102665548406493,0.10106548128101152,66.94254559774677,22.080052556915657,54.55646994103961
1760515578.5365412,-19.285751384844765,-0.20968304593479908,1.2539064636222648,0.11539956674453347,65.79595780419989,33.80377073280224,57.299444162616
1760515578.546343,-18.651357124037972,-0.22983468627099446,1.284438727901243,0.12888023124768241,63.522411453601215,44.35471184555248,58.9564528083382
1760515578.556323,-18.02696285842612,-0.26042460193880423,1.2987912635080692,0.13911635574881223,60.07908153732842,53.02047589951634,59.35092074230726
1760515578.5663433,-17.429458410104743,-0.29803393975000014,1.2952428714891886,0.14340011646309228,55.507782903418544,59.21892702224389,58.38411603414266
1760515578.576328,-16.874694111346933,-0.3381091096208092,1.273697172589292,0.13912006378422356,49.946912685604865,62.56141037572991,56.05699005354754
1760515578.5864058,-16.37597573477372,-0.375629882608386,1.2357432252805478,0.12421581843812982,43.63052063424507,62.8935976564356,52.47988810517431
1760515578.59637,-15.942754118237564,-0.40589040451713804,1.1844792659941554,0.09759854457515922,36.873350902849246,60.307510903998676,47.86767044022804
1760515578.6063616,-15.579693304062587,-0.4252079120684979,1.1241313509634343,0.05946980646476072,30.04356550873048,55.123449175889924,42.5209277661231
1760515578.616482,-15.286231510171563,-0.43140282763796717,1.0595457966592081,0.011482937645885354,23.527206172868283,47.84587170077302,36.79689323354186
1760515578.6263945,-15.056669241081401,-0.4239723071813657,0.9956513834265351,-0.043295849213466964,17.68972249164753,39.10139445532711,31.075277950812275
1760515578.636609,-14.880747381555283,-0.4039679595883466,0.936972718288944,-0.10064920670763504,12.840030132325994,29.56914417507856,25.724254470574877
1760515578.6463444,-14.744625432767188,-0.3736542383895595,0.8872455682101407,-0.15568242677504324,9.201781120235399,19.91360820429059,21.07058914289169
1760515578.6563408,-14.632138363234484,-0.33605279613155603,0.8491561125235394,-0.20345405527872473,6.8950910791393705,10.728155408158546,17.376210242799242
1760515578.6663692,-14.526197331901221,-0.2944734357542275,0.8242072359110783,-0.2396662564475959,5.930190669223968,2.4943535301984467,14.821982569598982
1760515578.6763656,-14.410200643855607,-0.2521071692707752,0.812704557001488,-0.26129490383359366,6.212736521201761,-4.440996802378256,13.498563198660197
1760515578.6863656,-14.269333227800955,-0.21172509483679663,0.8138480364165913,-0.2670443387915725,7.5591393400924565,-9.871884338692874,13.403964366344594
1760515578.696371,-14.091652949224727,-0.17549731004005673,0.8259092057835274,-0.2575424296595265,9.719365912270565,-13.724886225014133,14.447536151836943
1760515578.706366,-13.868886822941104,-0.14492246057135444,0.846469463986947,-0.23523877743461719,12.404229699034964,-16.040674452242182,16.460105130765267
1760515578.7163513,-13.59688593864897,-0.1208421457431887,0.8726923714924031,-0.20402205594202133,15.314121580941643,-16.94965217981542,19.209745135293588
1760515578.7264822,-13.275713375116515,-0.10350714802676224,0.9016029316206775,-0.1686225788775787,18.166338095892893,-16.645924932408953,22.42215231289324
1760515578.7365968,-12.909367135776883,-0.09266589017762579,0.9303495383797455,-0.13390552430264027,20.7185193213133,-15.362970781101788,25.8040313122137
1760515578.7463918,-12.50517288071942,-0.08765763378039733,0.9564294128978031,-0.10418063419192886,22.78614176059856,-13.353098592015504,29.067448302920475
1760515578.756349,-12.072916075813668,-0.087506832505507,0.9778650996058159,-0.08264832339122759,24.25257233185407,-10.87135929142443,31.952887718606185
1760515578.7663884,-11.62381165111902,-0.091022745628878,0.9933255715823579,-0.07106903035348701,25.070998481650577,-8.163365896951483,34.24882548856578
1760515578.7763455,-11.16942357581963,-0.09690698233053631,1.0021881799809196,-0.06969159358846225,25.258616414282358,-5.455824297410512,35.805997235455436
1760515578.7863889,-10.720644854197348,-0.10386503191427805,1.0045376955367387,-0.07742324567789202,24.884578898433706,-2.9486297276069724,36.54513415592902
1760515578.796391,-10.286832658357106,-0.11071172601722994,1.0010996658541398,-0.09218226611143475,24.05405694103599,-0.8079967241779523,36.45768620343143
1760515578.806389,-9.875166529999852,-0.11645735584298234,0.9931099463790614,-0.11135076958114334,22.89110389915248,0.8391544870674295,35.599873293222
1760515578.816362,-9.490262983940202,-0.12036097564869588,0.9821305514278609,-0.13223931328965682,21.52276021040516,1.908914858389655,34.081194150088514
1760515578.826348,-9.134044150251171,-0.12194174392653101,0.9698328056562264,-0.1524843209901608,20.066148203485934,2.3617104603465355,32.049136483179005
1760515578.8365405,-8.805832690557061,-0.12095061378225383,0.9577798236348113,-0.1703217035287024,18.61946510788807,2.20123541927088,29.67213661232374
1760515578.8465521,-8.502638741946692,-0.11732074936410294,0.9472460443194867,-0.18471233867617784,17.2570599957984,1.4713934623543585,27.12278180771569
1760515578.8565998,-8.219611257884646,-0.11112375622919479,0.9391054040166963,-0.19532867166536788,16.028291314627094,0.2516693814676738,24.562906486155722
1760515578.8666916,-7.9506280003609575,-0.10254991324789892,0.9338011148014274,-0.20243557929159117,14.95954386464494,-1.3488634120515317,22.131743696877027
1760515578.8763509,-7.688984873037195,-0.0919105309097821,0.9313869590199572,-0.2067085971234025,14.058529142608846,-3.198816177045289,19.937777677827796
1760515578.8863587,-7.428122894943431,-0.0796457393413715,0.9316136614363444,-0.20903240553976427,13.319789904797261,-5.152849645785814,18.05447377284422
1760515578.8964372,-7.162314085257882,-0.06631933063329926,0.9340303219781744,-0.21031624525814996,12.730265886062629,-7.060733253488597,16.519676689067396
1760515578.9063737,-6.887225919702852,-0.05259023097513076,0.9380779985290242,-0.21135236636403795,12.273926974700906,-8.776578637446711,15.338183890972514
1760515578.9163609,-6.600300000044204,-0.039161018391151284,0.9431636745501678,-0.21273068880206386,11.93482700822199,-10.167762011158947,14.48681580528339
1760515578.926387,-6.300908547903645,-0.026712045405876066,0.9487123345144244,-0.214810241616924,11.69838336144885,-11.123176424289122,13.92120338049878
1760515578.936356,-5.99028341311297,-0.015832801913844417,0.9542004956673963,-0.21773758702699683,11.551127236924579,-11.560538150938905,13.583480522421505
1760515578.946554,-5.671240310371824,-0.006961491525204804,0.9591766815341235,-0.22149555328077897,11.479494076323514,-11.432425912639985,13.410094103836284
1760515578.9564908,-5.347743244434788,-0.00034151891172790115,0.9632742122795555,-0.2259633707082203,11.468367197040646,-10.730587744962135,13.339020671513614
1760515578.966371,-5.02436921111944,0.003999261680777397,0.966220453532617,-0.23097228227370856,11.500036905615698,-9.487914293478449,13.315798591978378
1760515578.976362,-4.705740765792181,0.006243723614268967,0.9678448475844678,-0.23634725651317715,11.554030060290613,-7.777458812181302,13.297936838942947
1760515578.9863775,-4.395994384909976,0.006755333582628422,0.9680859381256302,-0.24193228564109884,11.607973667764824,-5.708051981826089,13.257434796704555
1760515578.9963589,-4.098347357976771,0.006025583029950128,0.9669959048199374,-0.24760187866458172,11.639362108555439,-3.4164166406902923,13.1813306899868
1760515579.0063775,-3.814817201997562,0.004603466524869792,0.9647404552162612,-0.253264642664066,11.62786910305939,-1.056173222395045,13.070383037850513
1760515579.0163605,-3.546134561841585,0.003012968214758438,0.961591946003528,-0.2588659465492142,11.557724052499406,1.2153529805173457,12.93617393203792
1760515579.0265248,-3.291868942125261,0.0016676307519155143,0.9579137502711025,-0.26439462026080834,11.41967071165617,3.2511633185164515,12.79709186357093
1760515579.0363762,-3.0507532588895705,0.0007958812965009307,0.9541343720276055,-0.26989379422163634,11.212130171755575,4.927822228262816,12.67378139562552
1760515579.0465178,-2.8211521519849105,0.0003939024024942956,0.9507112440542912,-0.2754707019266154,10.941361256967522,6.156236803869175,12.584707436935382
1760515579.0563796,-2.601582558262344,0.00022083663546234735,0.9480864201781135,-0.28129743039330074,10.620597507150817,6.888573049665866,12.54244813413142
1760515579.066382,-2.391179106005491,-0.0001577241415494413,0.9466384398493236,-0.28759590651870787,10.268297056058655,7.1204370369607854,12.551195683301712
1760515579.0763612,-2.190012541362182,-0.0012858418545121245,0.9466356653476912,-0.29460566092924534,9.905752087443618,6.888182920889283,12.605731136297077
1760515579.0864446,-1.9992128605450674,-0.00371326900313324,0.9481967176381428,-0.3025395239745518,9.554373412072978,6.2619734626467,12.691894783533405
1760515579.0963812,-1.8208985747935504,-0.007894926791650669,0.95126381249409,-0.3115362799926597,9.233000657295067,5.335817679913974,12.78834947125774
1760515579.1064293,-1.657944623779051,-0.014109379158949416,0.955594303746566,-0.32161852885226394,8.955583030376939,4.216121034481752,12.8692684508144
1760515579.1163783,-1.5136267586742425,-0.022400497005056648,0.960773991718806,-0.3326611412481854,8.729516529770121,3.010299193203693,12.907491387556579
1760515579.1263587,-1.3911738100360342,-0.03254114146777979,0.966253381429853,-0.34437445821933454,8.554815223538169,1.8167971743067233,12.877682768632788
1760515579.1363664,-1.2932590655511236,-0.04402002432032652,0.9714057372239125,-0.35630718822533586,8.42416714926835,0.7175038531830247,12.759082944033663
1760515579.1464844,-1.2214748165423248,-0.056057838975427064,0.975602825792226,-0.36787419952677486,8.323815726185112,-0.22687250485699628,12.537544415747176
1760515579.1566188,-1.175855149300872,-0.0676609199598019,0.97829993050967,-0.37841191758309795,8.235131384785626,-0.9783406434312063,12.206675803270594
1760515579.1664174,-1.1545303070306159,-0.07771717825817746,0.9791169564931257,-0.38725883408074846,8.136685740686865,-1.5203563912559355,11.768056088924597
1760515579.1764483,-1.153599278200446,-0.08512935716398258,0.977899326826243,-0.3938515575653197,8.006594669265416,-1.8543635429846723,11.230616542901501
1760515579.1863742,-1.1672871995027718,-0.08896762162276024,0.9747429756082167,-0.3978189395882651,7.824855573686647,-1.9949750892489915,10.609398499619784
1760515579.19639,-1.1884101381657117,-0.08861379306874739,0.9699740293306811,-0.39905191577827714,7.575389360896375,-1.9646865338268078,9.92395642267882
1760515579.2064075,-1.209109279518935,-0.0838688683017595,0.9640862502681207,-0.3977299185504673,7.2475360904744175,-1.788936208910351,9.196667128194477
1760515579.2164543,-1.2217511068634022,-0.07500223804914916,0.9576531821996161,-0.39429519512571726,6.83684980075538,-1.4921428064660316,8.4511389306182
1760515579.2264597,-1.2198355310495,-0.0627299515500721,0.9512377234649176,-0.389377699586363,6.345166679100953,-1.095100872634193,7.710833059379569
1760515579.2364185,-1.1987323585476775,-0.04812052650898915,0.9453154550966377,-0.38368243720970413,5.780046441508106,-0.6138548494564663,6.997949584000193
1760515579.2463937,-1.156097698194064,-0.03244316053509176,0.9402174954965185,-0.3778599512374079,5.15378689331527,-0.05994308727995398,6.332586761855526
1760515579.2564328,-1.0919052511428091,-0.016991040122470692,0.93609476534439,-0.3723887015432536,4.482271017677278,0.5582783994121299,5.732135098627307
1760515579.266539,-1.0081356204563825,-0.0029217681340271808,0.9329087542427752,-0.36750044350354144,3.7839050631944366,1.2336479398679787,5.210817877914763
1760515579.276369,-0.9082563335823038,0.0088500124420233,0.9304558514145621,-0.36317055328133907,3.0788276021151537,1.9580185246714743,4.779264995834394
1760515579.2864375,-0.7966565652642654,0.017695133853566566,0.9284272838492026,-0.35917445891054844,2.388418358609256,2.720349318238652,4.444027907034554
1760515579.2963727,-0.6781633944203646,0.02326134515446825,0.9264963273225584,-0.35518878415850297,1.7349541414647633,3.5054866431727496,4.207006989259728
1760515579.3064866,-0.5576930429894136,0.025441482896981314,0.9244142101355599,-0.3509049470856064,1.1411200118028493,4.293998632034423,4.064844515382084
1760515579.316367,-0.44003062979108604,0.024340723146270588,0.9220911505995701,-0.3461279862506433,0.6290558911740904,5.063314198303749,4.0084087886759425
1760515579.3265326,-0.3297075403072828,0.020250576113363457,0.9196418920819035,-0.3408459249561964,0.21872787583758585,5.790157285951905,4.022539100068085
1760515579.3364296,-0.23093974710607196,0.013628418541460989,0.9173849569845293,-0.33526384700544815,-0.07437153141737121,6.453888786195019,4.086227006512733
1760515579.3464057,-0.14758260658803243,0.00508075678153677,0.915797387976191,-0.3297990762357398,-0.24193481578809306,7.04004027384419,4.173371529616592
1760515579.3564777,-0.0830533610723429,-0.004652982085501686,0.9154369859179586,-0.3250359794479573,-0.2854778917039381,7.543188210478019,4.25416587039692
1760515579.3666677,-0.04018968587735416,-0.014725904118156441,0.9168494598004512,-0.3216470114721802,-0.21828939240371678,7.9683694242446785,4.297067656322726
1760515579.376599,-0.02104869250659374,-0.024232324770995402,0.9204790656518108,-0.32029655118889183,-0.06608482537180609,8.330415078669278,4.271205330316406
1760515579.3864152,-0.026681734249874824,-0.03228744978296425,0.9265995641373913,-0.32154678603403714,0.13407649436491414,8.65090400414654,4.1490080602302015
1760515579.3964407,-0.056930886529776584,-0.038132686009878694,0.9352782760589315,-0.3257788814425115,0.33677727374624805,8.952989897535039,3.908817925716731
1760515579.4063852,-0.11029035773391711,-0.041249957526204764,0.9463802680685013,-0.3331341210236852,0.4929791905624013,9.255107671511661,3.537234768732769
1760515579.416368,-0.18386929317657727,-0.04146060589338126,0.9596125099213035,-0.34347382959669265,0.5560512729352994,9.56528463934203,3.0309482794499885
1760515579.4263916,-0.27347673104134,-0.03897740695240183,0.9745987502693403,-0.3563553141681783,0.48834190873560146,9.87813156995671,2.3978383624404027
1760515579.4363832,-0.37382313914827114,-0.034377888484811915,0.99096635631737,-0.37102420027516914,0.26730739763498146,10.176201475161543,1.6571823979948848
1760515579.4465017,-0.478814097424891,-0.02848455803556826,1.008420271098246,-0.3864301785707292,-0.10989581834697658,10.436069675126186,0.8388871998977431
1760515579.4564304,-0.581920323862726,-0.022170117349980745,1.02677757835987,-0.40127772435309067,-0.624354110020928,10.637514919147279,-0.01826317133262861
1760515579.4664261,-0.6766364282538196,-0.016133507459824756,1.0459366422769871,-0.4141173286610533,-1.236614077123596,10.772462526846004,-0.869316514681625
1760515579.476419,-0.7570541203302111,-0.010698207835426172,1.0657605803067798,-0.42346468469743775,-1.8915675455112861,10.849795549736893,-1.6668032669905923
1760515579.4867382,-0.818544486579024,-0.005666246764177407,1.0858768817805895,-0.42791873035890954,-2.5269771122782614,10.893049632671465,-2.365342940205015
1760515579.4967964,-0.8584695210798732,-0.00023252026299376433,1.1054355393833246,-0.42625175810603727,-3.0850773669311513,10.930039166716268,-2.9272079961069197
1760515579.5063741,-0.8767620182922292,0.00705438130774756,1.1229053950111783,-0.41746594772338014,-3.526049626002047,10.97596226512598,-3.3287481899685876
1760515579.5165107,-0.8761839674737126,0.01828737274966743,1.1359928621433926,-0.40083497974946564,-3.8415694879931914,11.013758650265032,-3.5673785525288584
1760515579.5263793,-0.862140281517179,0.03611841436373044,1.141734290279866,-0.3759645940327614,-4.0662442637483815,10.976753597212735,-3.6685262048888276
1760515579.5364027,-0.8420674249166903,0.0635396220131097,1.1367680161176084,-0.3429055234715471,-4.284694304910559,10.73852638196197,-3.6915145545995847
1760515579.5463614,-0.8245510113771491,0.10349187787465819,1.1177607843701654,-0.30232842804399135,-4.63228983233111,10.113655585398256,-3.732907176288613
1760515579.5563686,-0.8183732514248787,0.1583315596701121,1.0819517560372998,-0.2557252792322902,-5.288073220013234,8.871102082814097,-3.925527934850811
1760515579.5664406,-0.831645759879385,0.2292514674552479,1.027773314859913,-0.20555748831285142,-6.459111842581539,6.760040332345142,-4.431463620241334
1760515579.576463,-0.8711098365468557,0.31577035511499835,0.9554904194632984,-0.15525677153673215,-8.356441124858684,3.5461451868491456,-5.427987250146018
1760515579.5864007,-0.9416494066730672,0.41536767167157684,0.867755403214111,-0.10901435702853336,-11.16395652030471,-0.9452575631667752,-7.08646928546497
1760515579.5963724,-1.0460694697340385,0.523281597060858,0.7699179224542207,-0.0713570652812441,-15.003154702698057,-6.784048319476913,-9.5458100843658
1760515579.6064074,-1.185199302521393,0.6324709619702931,0.6699074382944559,-0.046569718387564095,-19.898395429038942,-13.89416084673096,-12.883612527903367
1760515579.616506,-1.3583341502032478,0.7338057588655906,0.57755957517417,-0.03804386813530214,-25.74901639820131,-22.023810717899106,-17.090080890564238
1760515579.6264076,-1.5639266478892813,0.8166523400054791,0.5033802983575144,-0.047616266621028386,-32.31563597168767,-30.735939907059407,-22.05100866744971
1760515579.636432,-1.8003361757110892,0.8700306792576736,0.45688882673896347,-0.07496168522370211,-39.22764665506945,-39.427578360954975,-27.546369969758768
1760515579.6464052,-2.0664233334819735,0.8843438007057205,0.4448229812844418,-0.1171694512625572,-46.01659672447179,-47.38347211130863,-33.26923135585519
1760515579.6564264,-2.361871575317487,0.8533541417768622,0.46962368014232264,-0.1687306561354284,-52.17547262828315,-53.86258003348431,-38.86571059559828
1760515579.6665683,-2.6872669360654213,0.7757856027062481,0.5286818553524041,-0.22217019363203291,-57.236999970262424,-58.20709831493661,-43.99086129723414
1760515579.6767533,-3.0440574647251872,0.6558963622873742,0.6146914866069172,-0.26933983133472944,-60.85654949931709,-59.954953130812356,-48.36903770202226
1760515579.686384,-3.434484135717467,0.5027330092089242,0.717059572904513,-0.30300787316907624,-62.880552485874006,-58.93191865675243,-51.8433348949329
1760515579.696378,-3.8614664841882704,0.3283794370461441,0.8239078123865284,-0.31816315523164834,-63.38296143623783,-55.30166002457203,-54.400071599199606
1760515579.7064838,-4.328344062730677,0.14592284858052781,0.9240694840383212,-0.3126299159232379,-62.660151818988844,-49.56061999350825,-56.161394121362704
1760515579.716377,-4.838392544919908,-0.032215200228569725,1.0086591256677189,-0.2869865414846751,-61.18483852289478,-42.476576765482804,-57.34894400962332
1760515579.7264762,-5.3941343748523,-0.19532702553876424,1.0720383773524504,-0.24404584057323395,-59.528184141961226,-34.981652900870365,-58.229823558795154
1760515579.7364182,-5.996571772586677,-0.3349242889714266,1.1121520134727976,-0.18817073835395914,-58.26486924950959,-28.039709563683246,-59.0596493580281
1760515579.746423,-6.6445209916849395,-0.4448920984370152,1.1302780867972302,-0.1245894426060531,-57.878301592049176,-22.511769760815163,-60.035586332311496
1760515579.756388,-7.334206596433122,-0.5214631838713205,1.1302957797507447,-0.05877281973012134,-58.68229543445062,-19.040747887507923,-61.26675289826994
1760515579.7664373,-8.059205823665927,-0.5631320542696778,1.117643220774349,0.004113129089989052,-60.77187781250258,-17.970632855512726,-62.76345913171892
1760515579.7765658,-8.810750768717224,-0.5705696431759463,1.0981833784641228,0.05967629868911376,-64.0102954284834,-19.30838165576114,-64.44278324564688
1760515579.7865784,-9.578328728998207,-0.5465369427838449,1.0771884381157042,0.1046734937777237,-68.05274688275998,-22.730634238922548,-66.14645756045527
1760515579.7964275,-10.350481174476037,-0.49575035565279807,1.0585960607985085,0.13725971761689104,-72.40094539471644,-27.63226187081092,-67.66701636350537
1760515579.8063917,-11.115688575642343,-0.42463777626233556,1.0446129124871204,0.15707590900140547,-76.47774405530187,-33.209795463474656,-68.77861429355877
1760515579.8164067,-11.863234048872682,-0.3409411367637617,1.035667992608491,0.16515519406790788,-79.70885892885852,-38.56990390479416,-69.26925780064288
1760515579.8263967,-12.583952872234647,-0.25315256972045025,1.030664683652628,0.16365857891007174,-81.59928581892876,-42.850876617331046,-68.97118429360593
1760515579.83642,-13.270787864747422,-0.16980296993580063,1.0274498097273872,0.1554826448083694,-81.79438405687686,-45.342891059768846,-67.78584129197807
1760515579.8463802,-13.919080057668513,-0.09865116525550333,1.0234048770707027,0.1438030902181751,-80.11866011662791,-45.59070321099078,-65.69973538267476
1760515579.8563886,-14.526537672515511,-0.04585394892928992,1.0160581469592118,0.1316271575636571,-76.58851189907895,-43.461604037501736,-62.787902062151005
1760515579.866397,-15.092856394692587,-0.015229723139288366,1.0036120851711725,0.12142540017126817,-71.39870870510775,-39.164171000493695,-59.20331432970468
1760515579.8765924,-15.619016984522071,-0.0077490066223110474,0.9852903407864192,0.11489672079378814,-64.8862296628631,-33.21076413758966,-55.15314136714397
1760515579.8864288,-16.106358436654467,-0.021383991298696926,0.9614459062504735,0.11289196425236186,-57.47872553115019,-26.32800597261849,-50.865801305300444
1760515579.8964028,-16.555601250353863,-0.051418381836731544,0.9334330599664667,0.11548820517009158,-49.637329014345944,-19.331786285549953,-46.55533492594896
1760515579.9064226,-16.96604815862431,-0.09123699577872905,0.9033045931477867,0.1221759462685246,-41.803879708408516,-12.992473683350722,-42.39076859662195
1760515579.9163961,-17.33518534589679,-0.1334790626568716,0.8734251099677159,0.13210231759777874,-34.36047706885256,-7.917872804658925,-38.47705804087838
1760515579.9263957,-17.658831152002968,-0.17131038662016826,0.8460837337295424,0.14431222605720415,-27.605269258123474,-4.474838374675284,-34.85104139948823
1760515579.9364004,-17.931852927511393,-0.1995303516425493,0.8231637180150442,0.1579447547036077,-21.7440511168067,-2.7587504317333877,-31.491871863520736
1760515579.9464278,-18.149338410448035,-0.21529641054085924,0.8059047612914854,0.1723628639177967,-16.89412786733435,-2.6086532158029088,-28.3421700690004
1760515579.956581,-18.308001842927425,-0.21836701062849184,0.7947801489964291,0.1872109108948405,-13.095766341935423,-3.658117632032258,-25.33434346872463
1760515579.9665484,-18.40754739234485,-0.21087784521173303,0.7894953450250362,0.2024041980086371,-10.327168425575485,-5.408210538898611,-22.416102983763253
1760515579.9763873,-18.451711831113307,-0.1967521397298332,0.789093635716606,0.21805963532753359,-8.520298777514077,-7.308323885038381,-19.56993278872404
1760515579.9864292,-18.448762785175234,-0.1808970472106135,0.7921365059807263,0.23438061336396473,-7.576048725690721,-8.83195326897197,-16.82292098857686
1760515579.9965057,-18.41132498862801,-0.1683522339293399,0.7969209127273646,0.2515160311883771,-7.3777312677910825,-9.537231269961017,-14.24559755386868
1760515580.0063984,-18.355525025719224,-0.16353512744360663,0.8017007976770336,0.26942259610397634,-7.802101435852751,-9.10587958149398,-11.940771149141826
1760515580.0165744,-18.29956441248365,-0.16968040096125148,0.8048872919588893,0.2877648174363177,-8.727402840515248,-7.358802961007649,-10.02531105447461
1760515580.026381,-18.261931939484228,-0.18851708922672794,0.8052079430301731,0.30588090155327496,-10.038383603830944,-4.250900404389911,-8.608976063831943
1760515580.036399,-18.259529448299354,-0.22018210220151518,0.8018134040819616,0.3228238112405173,-11.628582796195413,0.14918916358729647,-7.774534883779762
1760515580.046402,-18.305994334629816,-0.2633395973315499,0.7943305040096676,0.337464235759679,-13.400375150595732,5.687315153879569,-7.562631705642355
1760515580.056396,-18.410453928215574,-0.31545854299658665,0.7828677021762639,0.3486284134996197,-15.263388678273754,12.153248226825342,-7.963476279700253
1760515580.066385,-18.576858699776267,-0.3731928665935349,0.767979069108089,0.3552427440377069,-17.13206861021189,19.306089594127137,-8.915932505998724
1760515580.0764952,-18.803941631891313,-0.43280814183668537,0.7505895249034897,0.3564636086896944,-18.923290790049826,26.892594229385008,-10.313308019786806
1760515580.0864327,-19.085762289109255,-0.49060261805553046,0.731883092207051,0.35177812100579603,-20.554891681156864,34.65759701876521,-12.014293625328426
1760515580.0965414,-19.412724783218877,-0.5432767612060061,0.7131610597102688,0.34106677496766213,-21.945712361869788,42.347693627799885,-13.857091779758449
1760515580.1063879,-19.772910088738115,-0.5882157596645387,0.695687734200437,0.32462254989431993,-23.01731527678039,49.71079381919451,-15.674736633858299
1760515580.1164021,-20.15353621484562,-0.6236636669056639,0.6805512203740637,0.30312510835907136,-23.697076737462112,56.49494567254166,-17.309820806160555
1760515580.1265578,-20.54235794343492,-0.648783274385467,0.6685660772303738,0.2775748029103373,-23.92202643076742,62.449699140988926,-18.62718261590358
1760515580.1365037,-20.92884248779157,-0.6636103348376352,0.6602319021805149,0.24919767400194476,-23.64266753481666,67.33217832782314,-19.52350446020829
1760515580.1464288,-21.305002305922173,-0.6689230686083989,0.6557446691725213,0.2193361888937179,-22.826073735876466,70.91828878167517,-19.933212807443137
1760515580.156634,-21.665819738359495,-0.6660560038797211,0.6550446219861742,0.1893399473843608,-21.45778920169506,73.0177101178782,-19.830529122211416
1760515580.1665382,-22.009250773058067,-0.6566898239961345,0.6578793500226331,0.16046750311830504,-19.542374578021203,73.490079325198,-19.227935994819347
1760515580.176431,-22.335842967215846,-0.6426460180668666,0.6638632700712586,0.13380697915667944,-17.102725172370164,72.25934646531685,-18.171627435477376
1760515580.1865172,-22.648043218256813,-0.6257075768429443,0.6725227774912277,0.1102204694309957,-14.178438936468812,69.32367863218214,-16.73468328860069
1760515580.196406,-22.94930276397192,-0.6074776456819485,0.6833256271081041,0.09031504885338229,-10.823520334420177,64.75924640035164,-15.008760661206612
1760515580.2064016,-23.24310859971141,-0.5892810043607132,0.6956997126398878,0.07444066571292511,-7.103632869970817,58.71734712879981,-13.095048476441239
1760515580.2164893,-23.53208052492182,-0.5721091988275409,0.7090488720687773,0.06271211556748377,-3.0930334549504512,51.41526887396748,-11.095101063519117
1760515580.2264364,-23.81726569270658,-0.5566061159801671,0.722772062585886,0.05504922599913792,1.1287124001563853,43.12200129668853,-9.102000667132709
1760515580.236637,-24.097731318505012,-0.5430854306475773,0.7362882181345882,0.05122668298099123,5.480110898681863,34.14047690174991,-7.192181231497499
1760515580.2464716,-24.370500747339758,-0.5315672125842016,0.7490645969012507,0.05092315390930857,9.881038373770851,24.788530856982966,-5.418243730366685
1760515580.256545,-24.63080905818494,-0.5218209756474821,0.7606446324153917,0.05375952911760965,14.255756226816008,15.38102703293708,-3.803199551165648
1760515580.2664754,-24.87259118432198,-0.5134067265216865,0.7706733134107003,0.059318877015707476,18.53548647532949,6.215371574470414,-2.336717000715086
1760515580.2764165,-25.08907730417654,-0.5057119595024844,0.7789217426177885,0.0671458532405772,22.66049028517795,-2.4381158445846074,-0.9740210416947354
1760515580.2864084,-25.273366861901714,-0.49798848239547466,0.7853147333876642,0.07672968326621239,26.581691308245038,-10.340577906085912,0.36197359166641413
1760515580.2964091,-25.418881396448043,-0.48939657180198637,0.7899643754535031,0.08748044340637647,30.26194299888513,-17.28443419691894,1.7749785664285624
1760515580.3064392,-25.51964502725737,-0.4790641489101999,0.7932081210094059,0.09871115209556541,33.6770249702555,-23.0901073754269,3.3862226187489544
1760515580.3164327,-25.57039348749347,-0.4661653550231133,0.7956434330747628,0.1096374217574396,36.81636168725277,-27.60143062649892,5.322578659836252
1760515580.3264334,-25.566554059357628,-0.45001786192401516,0.7981456507181032,0.11940278210689238,39.68331893224435,-30.681406503006286,7.7030811668208115
1760515580.3366377,-25.504163185983714,-0.43019451924771474,0.801854614103964,0.1271323949134144,42.29479554310659,-32.209756036737645,10.625280539648704
1760515580.346655,-25.379796308324078,-0.4066432374113609,0.8081190939346392,0.13201212987792807,44.679728122963645,-32.08352996889144,14.152874460931935
1760515580.3564112,-25.190577628892573,-0.3798056157733702,0.8183941094393491,0.13338541277433658,46.87610297519494,-30.221915509698697,18.30578007475763
1760515580.3664467,-24.93431689501301,-0.35071616148219853,0.8340928978770236,0.13085725806751528,48.92615797324899,-26.576023736213376,23.05341773061483
1760515580.3766088,-24.609788224869863,-0.3210528809803975,0.8564021309515248,0.12439204705993892,50.86967212388787,-21.143658960975067,28.31162199317792
1760515580.3864963,-24.2171288800449,-0.2931049247983883,0.886076094149446,0.11438769792643866,52.73557857534703,-13.98787916889487,33.94333234663321
1760515580.3964148,-23.75830234076814,-0.2696298939692011,0.9232324976406123,0.1017050452956822,54.532589780400656,-5.256862102064902,39.76302850119578
1760515580.4064791,-23.237546675266476,-0.25359076888126086,0.9671784859347401,0.08763058219666596,56.24005206802654,4.798425136600612,45.54475170686477
1760515580.4165766,-22.66171854232301,-0.2477839532150184,1.0162999457999995,0.07375617579367637,57.80073488727378,15.812778761680075,51.03348767076957
1760515580.4264936,-22.04044491529237,-0.2543917197293248,1.0680494331463055,0.06177246391723434,59.11754001918918,27.305594292726155,55.959652248713624
1760515580.4365532,-21.386008266023538,-0.2745146424480066,1.1190640698198535,0.05319297976472524,60.056033981236446,38.69360079665368,60.056354893210155
1760515580.4466894,-20.712917528804837,-0.3077624311363016,1.1654303187669681,0.049050261248240204,60.454137106429684,49.31993849939529,63.07890125267203
1760515580.4567223,-20.037158086542746,-0.35199992342048014,1.2030883515619712,0.04962565076467462,60.13918835954775,58.499766814041905,64.82552325400562
1760515580.4665058,-19.375167008979815,-0.40334628846689247,1.2283388458478808,0.05428119695468518,58.95108042776872,65.5792845802219,65.15761506174402
1760515580.476571,-18.74263591666649,-0.4564941190882475,1.2383819777752496,0.0614483596004305,56.76857474826989,70.00152550928694,64.01703410934017
1760515580.489053,-18.15328981175594,-0.5053468718362902,1.2317886145952157,0.06879550154438484,53.53466663238479,71.36984595041025,61.43764906193908
1760515580.497274,-17.617812697839902,-0.5438856764930123,1.2087946991756526,0.07355451725526847,49.27633625504733,69.49948091401515,57.54858338749687
1760515580.5064263,-17.143078927822227,-0.5671012475274271,1.1713379450149333,0.07295127956094881,44.11450230542805,64.44881925654947,52.567632107114484
1760515580.5164444,-16.73179886439473,-0.5717926666914941,1.1228175356299561,0.06466631869582304,38.26155992464218,56.524624004513164,46.78497672806366
1760515580.52642,-16.382608669198696,-0.5570578495383666,1.0676287489604142,0.0472517646304875,32.00611974283965,46.25896975386952,40.53915373523087
1760515580.5365589,-16.090550324771645,-0.5243753635267837,1.0105775663207497,0.020439461220157766,25.686783427713927,34.35993304820272,34.18865604663604
1760515580.5464566,-15.847824258921568,-0.47727824989839046,0.9562972105819773,-0.014713519434305704,19.65851129972008,21.642388297515936,28.083116003794924
1760515580.556562,-15.644669721204556,-0.42071437295196795,0.9087668106128316,-0.05587941571695479,14.256199331500794,8.948515498872307,22.53761694022884
1760515580.5664928,-15.470242505303267,-0.36024850500028904,0.8709863961484102,-0.09972379963829212,9.760435863934113,-2.9311246898472794,17.812536043119515
1760515580.576405,-15.313406422232388,-0.30127551819915227,0.8448153529924144,-0.1423491644185589,6.370023387371252,-13.32598740352853,14.09992182493108
1760515580.5864313,-15.163410761416415,-0.2483828105981552,0.8309507346285414,-0.1798486761435605,4.18477274618066,-21.735898586367817,11.516279581821285
1760515580.5965865,-15.010464640593593,-0.2049399212163833,0.8290109743687318,-0.20887576783100884,3.20045404406021,-27.859071614825694,10.101053587799251
1760515580.6064162,-14.846226524178348,-0.17292851852554336,0.837692940104933,-0.2271323992199664,3.3158983349343107,-31.596833861823,9.819993874577841
1760515580.6164205,-14.664207727603548,-0.1529761784790793,0.8549772422822774,-0.23369499189750775,4.350474992138019,-33.03716272699331,10.572720972350064
1760515580.626573,-14.460060664161317,-0.14453170182749925,0.8783627684519261,-0.22912515103609418,6.068880554568582,-32.42161952711038,12.203895232464006
1760515580.6364632,-14.23170663523017,-0.14611782027312467,0.9051149739707441,-0.2153478055242349,8.209552453497054,-30.10194427039519,14.517328448503742
1760515580.6464248,-13.979266143285516,-0.15561143639625916,0.9325135687271595,-0.1953192590696199,10.513043450726428,-26.493175910379176,17.29216270463101
1760515580.656427,-13.704784842768955,-0.1705205242129824,0.9580840751857772,-0.1725453712395052,12.747183959055151,-22.029580157570145,20.299981826671935
1760515580.6664174,-13.411786406991219,-0.18824056675958944,0.9797951598054013,-0.15053607794465904,14.7265972880812,-17.128048462291098,23.321519689208504
1760515580.6764193,-13.104714114928717,-0.2062793726883529,0.9962020601919469,-0.13228999211325565,16.32495970923696,-12.161381710401189,26.16156288346621
1760515580.6864245,-12.78833964320773,-0.2224428714123038,1.0065194059694118,-0.11989271282612414,17.47926357473207,-7.441597139140978,28.660750144421755
1760515580.6965141,-12.467223571622242,-0.234980951087682,1.0106168116964802,-0.11429011896549848,18.186258798413053,-3.211726266335725,30.703264057531193
1760515580.7064319,-12.14530730709499,-0.24269622431300333,1.0089455332887587,-0.11526629182823024,18.49219122948173,0.3561361094874458,32.21988607013959
1760515580.716648,-11.825692277850447,-0.24501168695771502,1.002416522079725,-0.12161621658004676,18.47779859555955,3.1585944679446536,33.186477493933396
1760515580.7264612,-11.51061820433959,-0.24198208303590416,0.9922532006757645,-0.13146473765335942,18.241073511844228,5.155930464666856,33.61853164035107
1760515580.7364352,-11.201604873358336,-0.23423523612164282,0.9798382004080132,-0.14265986961675328,17.88041920112762,6.365010033988695,33.562889073540475
1760515580.7464225,-10.899692113251707,-0.2228471344301528,0.9665683416116172,-0.15316618927357012,17.480501398648745,6.850382493397182,33.08793996870082
1760515580.7564309,-10.605706567753034,-0.20917314905352177,0.9537287490669247,-0.16139493684391393,17.10244868544129,6.713679722381507,32.27363885214833
1760515580.76642,-10.32049215578966,-0.19466343045138348,0.9423938763971532,-0.16642302374215417,16.779228615064653,6.081521039021448,31.202468888179677
1760515580.7764091,-10.04505301653531,-0.18068406655327374,0.9333598979195155,-0.16807277790142233,16.51617777459059,5.092422322263149,29.95218418390711
1760515580.7865527,-9.780571796862962,-0.16835761601157698,0.9271099645560155,-0.16684977264669779,16.29591229067253,3.88362100801651,28.59079555804219
1760515580.7966633,-9.528289051501595,-0.15843555740775647,0.9238110884622293,-0.16376380498323398,16.086281811071032,2.5791157027520013,27.173902208700262
1760515580.8065455,-9.289265125500583,-0.15121999595057362,0.9233394264243224,-0.16007994358854039,15.849715294763298,1.280362967083149,25.744151492138798
1760515580.8164303,-9.064085974321944,-0.1465540670932924,0.9253305199008107,-0.15705628096046687,15.552270110800867,0.06080497448665417,24.332367216816575
1760515580.826428,-8.85260106685912,-0.14389148958039483,0.9292506853044649,-0.1557204903278983,15.170927818882301,-1.0352553738886292,22.959754598817412
1760515580.8364377,-8.653778696223107,-0.14243493104846294,0.9344814502652687,-0.15672020360924482,14.698128238682678,-1.9897394413696887,21.6405773798516
1760515580.8464444,-8.465729104929647,-0.1413099031181681,0.940402093092859,-0.1602594997177504,14.1431060121769,-2.804858820118138,20.384782549255792
1760515580.856447,-8.285893376001017,-0.13972994563740782,0.9464534741495584,-0.16611557465419013,13.530176237276219,-3.495590433721111,19.200175991351074
1760515580.8664243,-8.111348900338196,-0.137116524005808,0.9521740158551293,-0.17372093570196084,12.894600763417525,-4.082032264148689,18.093898766572945
1760515580.8765597,-7.939156589973712,-0.13315657137524012,0.9572110700450166,-0.18229284786780744,12.276981528698446,-4.582853988759968,17.073106363935285
1760515580.8867428,-7.766674411991561,-0.12779997681646466,0.9613188727519705,-0.19098718558475805,11.717242140395072,-5.010633688388922,16.144896676191976
1760515580.8970513,-7.591783223028164,-0.12121278491914915,0.9643535204275596,-0.19904933397197053,11.249184445723705,-5.369423034439784,15.315646598614931
1760515580.9064798,-7.413007175172887,-0.11370906103463939,0.9662689262500291,-0.20593558758011635,10.896386385595761,-5.6544965072861775,14.589993722303765
1760515580.9165235,-7.2295462577933405,-0.10568346114486779,0.967111488811704,-0.21138565166139436,10.669900027783584,-5.853941234960905,13.969739223133613
1760515580.9265563,-7.041253462905989,-0.09755657589216946,0.9670091304995689,-0.2154368241879042,10.56787316123162,-5.951539125719548,13.45294636348021
1760515580.9365458,-6.848577942449553,-0.08973220593957429,0.9661524886613903,-0.21838087256339683,10.576908565635492,-5.930293427905407,13.033462612023186
1760515580.9464738,-6.652473527523537,-0.08255946349038924,0.9647697795066594,-0.2206754521973347,10.674738448596818,-5.775958309150421,12.701008797974524
1760515580.9564753,-6.454260969896902,-0.07629627700218053,0.9630993858877008,-0.22283151538603294,10.833656239985524,-5.48002433105787,12.441867397398946
1760515580.9666061,-6.255441406349447,-0.07107883817280267,0.9613644126340926,-0.22530271618675057,11.024119634684892,-5.0417700732088155,12.240080482071567
1760515580.9764469,-6.057480311289494,-0.06690629890381398,0.9597521496386237,-0.22840035498337802,11.218003828985017,-4.469182523550373,12.078962547856458
1760515580.9864366,-5.86160182514588,-0.06364892370944683,0.9583999902566047,-0.23224957875224117,11.391117295714091,-3.7787428576061695,11.9426722723115
1760515580.9964597,-5.668641810933823,-0.06108216798639607,0.9573883912793606,-0.23679201375370965,11.524766522319974,-2.994241030409916,11.817584228765995
1760515581.0065193,-5.4789984878558435,-0.058940934720659956,0.9567406682668023,-0.24182866636205688,11.606343655005626,-2.1449070345167387,11.693252909592188
1760515581.0165095,-5.292693222153965,-0.056980608701715584,0.9564286717681079,-0.24708725289772213,11.629080790814522,-1.263219001252641,11.562853458757438
1760515581.0264344,-5.109520301888921,-0.05502811557743404,0.9563829506264713,-0.25229352305899494,11.591232295306718,-0.3827499271717836,11.423098550527664
1760515581.036524,-4.929236430298519,-0.053009045603288465,0.9565060487627274,-0.2572283898733288,11.494987905511362,0.4636717417314436,11.273743803761986
1760515581.0467458,-4.751728233508283,-0.05094431612851079,0.9566878047413006,-0.26175995897464027,11.345384284095374,1.2453728231892764,11.11687232680298
