timestamp,angle,linear_acceleration_x,linear_acceleration_y,linear_acceleration_z,angular_velocity_x,angular_velocity_y,angular_velocity_z
1760597593.976209,-3.687190880180383,-0.1992302745336311,1.0141817449837942,-0.2208166114652368,18.740090485383554,3.0998796016737704,-26.97248709560175
1760597593.9861476,-3.9742474538202077,-0.16715131471918832,1.0190218738858423,-0.21652992593548231,17.751675411434363,1.32386114325907,-25.778804815125394
1760597593.996155,-4.20488113060485,-0.13250952164873028,1.0234717030129186,-0.21061122520401976,16.711004766449143,-0.21631070787795628,-24.213088483745427
1760597594.0061572,-4.3779255454966,-0.09804326862308783,1.0276675561140087,-0.2040735270672829,15.662529303193049,-1.4979274555818678,-22.376745426139752
1760597594.0161576,-4.495179180603946,-0.0663024179181018,1.031664504666669,-0.1978515065602665,14.631273631857644,-2.4969879026330712,-20.383400053719004
1760597594.0261295,-4.5611952605898916,-0.03936247047615546,1.0353745613155392,-0.19265682834871203,13.623342501567688,-3.191790795630166,-18.349116074921966
1760597594.0361397,-4.582921969926259,-0.018649942303267737,1.0385339008639562,-0.18886951713153802,12.629682572905352,-3.5654915334507846,-16.383449840913617
1760597594.0461268,-4.569247404202797,-0.004885323411949814,1.0407111653149803,-0.18648440791074927,11.632458762329001,-3.6082829192199184,-14.582290740469633
1760597594.056171,-4.5304941145586355,0.0018717728919670342,1.041361184305312,-0.18512546401638247,10.61284661576496,-3.3198312654763145,-13.023009931970517
1760597594.0661273,-4.477889714008733,0.0021036773676753866,1.0399196806223339,-0.18413194995182947,9.558684166254386,-2.7122265664857985,-11.761966282769315
1760597594.076132,-4.423023073018481,-0.0033255411811910435,1.0359262254790114,-0.18270909333844157,8.470425872054497,-1.8131723407073363,-10.834040058693015
1760597594.0861402,-4.377285565384421,-0.013339872345151478,1.0291550189026688,-0.1801218272388025,7.364215558065328,-0.6686950449258107,-10.253652369437003
1760597594.0961416,-4.351293968566085,-0.026801290686417026,1.0197257704503375,-0.1758931969773041,6.271555486672751,0.6555032058057592,-10.016691754990402
1760597594.1061342,-4.354294949416755,-0.04261425315635787,1.0081622447516858,-0.1699536161270089,5.235831055194606,2.0747423812620385,-10.102874893600008
1760597594.1161444,-4.3935605206429935,-0.0597685878327358,0.9953709204780892,-0.16268776608171237,4.306623807377117,3.4884160891639597,-10.478249002622691
1760597594.126123,-4.4738000247411005,-0.0773218591226119,0.9825322018331109,-0.15485526516200593,3.5330834498626644,4.78530568848648,-11.097719230590565
1760597594.136166,-4.596635013793957,-0.09434200303253186,0.9709245066648897,-0.1474081098887387,2.9575654605597967,5.850774441403541,-11.907609489115544
1760597594.1461945,-4.7602021129784164,-0.10984262629960002,0.9617208827333599,-0.14126192503279356,2.6104163727346403,6.575238118398815,-12.848347508804627
1760597594.1561363,-4.958958179739778,-0.1227421817084636,0.9558001645727725,-0.1370823045113733,2.50640930526287,6.863103322142827,-13.857420593423416
1760597594.1661315,-5.18375811190411,-0.1318683946843831,0.9536052815270847,-0.13513097830867796,2.643015312053288,6.641200534323492,-14.872756450640528
1760597594.1761823,-5.422257170736524,-0.1360162820141589,0.9550684305404162,-0.13519499263773987,3.0004639076464548,5.8656981934216725,-15.836599528437388
1760597594.1861455,-5.659656131993462,-0.13405474918456864,0.9596104027356259,-0.1366030186165749,3.543386746998901,4.526640174428304,-16.699758285849793
1760597594.1962302,-5.8797632234202455,-0.1250660820172998,0.9662105151423457,-0.1383177737502618,4.223738034455632,2.6496171837797604,-17.425829811596095
1760597594.2061563,-6.066303799811277,-0.10849839595976045,0.9735347806353631,-0.1390829797658358,4.984633658511945,0.29458864564311943,-17.994754243991963
1760597594.2161849,-6.204380542275205,-0.08431371864710321,0.9801035103887829,-0.13759800226262095,5.764746050041232,-2.447655786367476,-18.404919915890456
1760597594.226242,-6.281976189753885,-0.05311855200539378,0.9844760422045536,-0.13269322432539496,6.502934925602358,-5.460675429645255,-18.67311127711398
1760597594.2361689,-6.291385681210012,-0.01626273828070924,0.9854298538486729,-0.1234829702288955,7.142864509811674,-8.60859233034158,-18.83187661243908
1760597594.2461627,-6.23045149058564,0.0241145018265532,0.982113197325114,-0.10947876146943084,7.6373947601106495,-11.743079292734182,-18.924319743147457
1760597594.2561364,-6.103454426823364,0.06511878938473405,0.9741540510205937,-0.09065303816139134,7.952476018077428,-14.711189664271163,-18.9967756329611
1760597594.266222,-5.92149676011925,0.10324050321013002,0.9617142612996309,-0.06745218663670828,8.070130895080895,-17.364199595387056,-19.090222574047445
1760597594.276141,-5.702225412107466,0.13461227729026465,0.9454869461057082,-0.04076799594342629,7.989971084322695,-19.567447571271767,-19.231566145716773
1760597594.2861645,-5.468795975130532,0.1553725625221803,0.9266463137416023,-0.011887890318190571,7.728697351880885,-21.21074457696621,-19.426077484634963
1760597594.2961524,-5.2480754640731435,0.162097073934672,0.9067672334700141,0.017549666588899927,7.317227734386019,-22.21844023543732,-19.65225469044249
1760597594.3061283,-5.068204006494479,0.15223991546738136,0.8877301024895471,0.045580947000228696,6.79542673321193,-22.557840474640592,-19.86016644939414
1760597594.316143,-4.955750736975637,0.12451929708771037,0.871612841385026,0.06994697048738839,6.204737736594978,-22.244519617763967,-19.97390788304847
1760597594.3263767,-4.9327810271144665,0.07918783105596529,0.8605564859935992,0.08818799894920325,5.579300952838618,-21.343248632338543,-19.898193342151853
1760597594.336152,-5.01419167781866,0.01814003263834783,0.8565891958231322,0.09786253735160735,4.93644831980561,-19.963833967677992,-19.528462049845647
1760597594.3461502,-5.2056692027615865,-0.05517326008855917,0.8614101956525858,0.09690011124219183,4.267890112403771,-18.25210226493876,-18.763335749131688
1760597594.3562016,-5.5025858387249,-0.1360338408586896,0.8761595230381742,0.08402336953013947,3.5333641295851073,-16.377358475437273,-17.51792340384681
1760597594.3661485,-5.890062965036498,-0.21893316332811527,0.9012147931274929,0.05912730789020399,2.658714203079958,-14.518473383322144,-15.736291341798221
1760597594.3761284,-6.344290390601169,-0.29818674071389945,0.9360532931362274,0.023512578100370222,1.539980098024505,-12.850929661413444,-13.401348233207978
1760597594.3861396,-6.8349954181987576,-0.36859724649720815,0.9792031348217013,-0.020081170090892053,0.05407348224510703,-11.536634982824465,-10.540455344208228
1760597594.3961875,-7.328745608208112,-0.4260561040903475,1.028294941930863,-0.0676488265798236,-1.9247179027965586,-10.717440660401985,-7.225393500716202
1760597594.4061365,-7.792603186349036,-0.4679798369939239,1.080219945810767,-0.1142779728634401,-4.50445555835815,-10.512446259392329,-3.566010224635686
1760597594.4161904,-8.197574202700492,-0.49350707347461753,1.131394469128072,-0.15464882499050506,-7.7546053738504375,-11.018429366950116,0.3021107995438007
1760597594.4261527,-8.521330389247593,-0.5034248420225444,1.1781180016491406,-0.1836181247868239,-11.688104625478589,-12.312088553849758,4.23447558487827
1760597594.436164,-8.749820195847652,-0.49984220563742054,1.2169913694612995,-0.19682298311125812,-16.249994452233683,-14.452296371201296,8.096553551200012
1760597594.4461293,-8.877598935992252,-0.4856783834681618,1.2453372517385783,-0.1912394521619324,-21.315222449018616,-17.480410385496857,11.78177310215444
1760597594.456137,-8.906944609430814,-0.4640695619296274,1.2615477367058694,-0.16562929835576504,-26.696629083070757,-21.41703381016499,15.225901045455458
1760597594.4661121,-8.846026545857352,-0.43781144448593634,1.2652844064997373,-0.12080935893121598,-32.162286127957245,-26.254442215540212,18.415812023009945
1760597594.476138,-8.706517595259475,-0.40893892480903665,1.2574803421325054,-0.059686606574341806,-37.459680164063755,-31.94502778897351,21.391608109119332
1760597594.4861317,-8.501077379680106,-0.37850763275822163,1.24013485890968,0.012977682584787981,-42.34308118525949,-38.387360071082654,24.241886615874794
1760597594.4961712,-8.241098288653426,-0.34659967950972714,1.2159385404742105,0.09107817987799724,-46.60002498878707,-45.41270242029976,27.09255467960125
1760597594.5061605,-7.935020535414332,-0.31253924767309027,1.187804842269947,0.1679091656932034,-50.07318375491604,-52.77591530849148,30.090021716224587
1760597594.5161624,-7.58740833144259,-0.27527206844901697,1.1584043233267785,0.23704926521101896,-52.67478622732481,-60.155263640226806,33.38003482044142
1760597594.5262072,-7.198851226589374,-0.2338314362922621,1.1297923442769442,0.2932436043238128,-54.391892356199406,-67.16516774808055,37.08404546555822
1760597594.536212,-6.766626589814732,-0.18778829773268027,1.1031907645983632,0.3331023543228821,-55.28210160639498,-73.38395232972725,41.27587570927683
1760597594.5461679,-6.285946599048826,-0.13757816231228281,1.078939320653502,0.3554428055718197,-55.460643602004325,-78.39524284666683,45.962360292299316
1760597594.5561593,-5.751531083449418,-0.08462108657896017,1.056597103289898,0.36118759027469083,-55.08100496509113,-81.8376822337689,51.072053411847286
1760597594.5662014,-5.159208285546378,-0.031201132552744443,1.0351673890776694,0.3528766732852628,-54.31186735832517,-83.45445337727593,56.45544726739252
1760597594.5761635,-4.507257523730848,0.01986467007883145,1.0134240893659663,0.3339773118138777,-53.313157090696386,-83.13292724572548,61.89821437953869
1760597594.5861669,-3.797270982087917,0.06568683511569706,0.9902988195960241,0.30820858591492883,-52.213957028828396,-80.92613550328502,67.14610866957226
1760597594.5962896,-3.034412627489203,0.10379462714739798,0.9652409746274339,0.279028076352941,-51.09519601689222,-77.05126999490302,71.93731183803968
1760597594.606242,-2.227065856558168,0.13257010928308896,0.9384361996080958,0.24932220778117486,-49.97997033706549,-71.86486910989345,76.03633851859898
1760597594.6164758,-1.3859637080128584,0.15155701606567973,0.9108040231995804,0.22127345696135445,-48.833473468789435,-65.81848864265801,79.26369050119827
1760597594.6262093,-0.5229711212496432,0.16159343189419387,0.8837779774200306,0.1963638694711222,-47.572793464566104,-59.40172845583656,81.51693710937813
1760597594.6362514,0.35026964129654786,0.16473598185507643,0.8589482290763091,0.17547694769809521,-46.084825370444506,-53.081274119594035,82.78094795902173
1760597594.6461582,1.2236153564102477,0.1639746645324032,0.8376815112377913,0.15905052657904525,-44.248931597824246,-47.245029517964674,83.12688482571276
1760597594.6561735,2.0894366316131134,0.16278104461563228,0.8208215011605615,0.14722463867279634,-41.96024852778731,-42.159424076111065,82.70094739210411
1760597594.6662273,2.9432441890821597,0.16457154909004446,0.8085289177165605,0.13994261508599323,-39.14975327160247,-37.94573470875768,81.7048011991699
1760597594.6761637,3.783865985296307,0.17218535774537805,0.8002707312744525,0.13699619641700564,-35.79809387996374,-34.57813317258495,80.37027697582957
1760597594.6862,4.613179210430209,0.18746897957672087,0.7949356010659102,0.13803195206351315,-31.941412624573545,-31.902650253536656,78.9314116451918
1760597594.6962187,5.43545743275015,0.21103263513436782,0.791041663056229,0.14254302364136653,-27.668736048004977,-29.67293392427437,77.59715002949426
1760597594.706251,6.256436511200216,0.24220684925114808,0.7870026667444345,0.14986346804287984,-23.11180167622158,-27.596187481170418,76.527951144267
1760597594.7162652,7.082231087798225,0.27919180773237784,0.7814185895204578,0.1591739880642397,-18.429261762198045,-25.3814757726643,75.81909780287161
1760597594.7262416,7.918245935877838,0.3193629625041862,0.7733493551829674,0.16952363577468024,-13.787937768408735,-22.782829459362226,75.49270193997599
1760597594.7362487,8.768223105117709,0.35967514479599705,0.7625148069753266,0.1798723572940172,-9.344151761743262,-19.631053658266573,75.49929352822468
1760597594.7466986,9.633546055993225,0.3970952582649763,0.7493561211939104,0.18915917162375492,-5.228001226419116,-15.85048089950171,75.7285910876711
1760597594.7561562,10.512885330249649,0.42899329464596403,0.7349159040951319,0.196394712505212,-1.5326202233789619,-11.459731352649698,76.02773460876531
1760597594.7663963,11.402219123662455,0.4534347008083413,0.7205513632495296,0.20076641466795273,1.6908504360596965,-6.55844301051245,76.22412750240356
1760597594.776172,12.295203414042287,0.4693411875941162,0.707563286966074,0.2017366172906328,4.433152045043718,-1.30432842925016,76.14931425782473
1760597594.7862353,13.18381044062419,0.4765134436494037,0.6968647374654442,0.19911120676330618,6.723007297682668,4.113804851949578,75.66018955403543
1760597594.796166,14.05911342930997,0.47553025716389735,0.6888009191712138,0.1930596589626031,8.620936087362713,9.501564218884807,74.65436404297668
1760597594.8061576,14.912081219719088,0.467556144577577,0.683170652519214,0.18407965158162864,10.211989459997897,14.67886472481949,73.07764393930701
1760597594.8161519,15.734264140801262,0.454108619603623,0.6794232627743191,0.17291968945522224,11.598104187316677,19.49209748918688,70.92309612105585
1760597594.8261502,16.518294541405997,0.4368468806887459,0.6769478537109428,0.16048921076321823,12.890311598906875,23.818576503053023,68.22274328838573
1760597594.8361778,17.25817395119332,0.4174275064394367,0.6753529231845322,0.14778374175132458,14.200723479878146,27.5649824103051,65.03425891557458
1760597594.8461573,17.949357784529617,0.39743331874615334,0.6746532130160432,0.13583341443823427,15.63411125034352,30.66254727188746,61.42585701032385
1760597594.8561487,18.588673212755165,0.37834832751864256,0.6753236224359832,0.1256616231454518,17.279006119084226,33.06193169703013,57.46270340023473
1760597594.8662162,19.174120971347556,0.36154577574784136,0.67822487730772,0.11823117283344628,19.198565441723627,34.730215922839804,53.19757504254774
1760597594.876232,19.70462165320588,0.34827096859105705,0.6844351696803405,0.1143616710521382,21.421893414894594,35.65140582737175,48.66735044257501
1760597594.8861525,20.17977046811251,0.33961703797015874,0.6950317242408603,0.1146194283573213,23.936884508436833,35.83069202377823,43.89556538791781
1760597594.896156,20.599658608864882,0.33649864306406757,0.7108603766449899,0.1192007601930548,26.68574402244177,35.30176262919639,38.90005262657749
1760597594.9061546,20.96480352993381,0.3396247424975647,0.7323172264366437,0.12784116227662318,29.56406083229666,34.13592333641653,33.70382368872297
1760597594.916132,21.276206045099315,0.34946242232243474,0.7591551214880721,0.13978045350928564,32.42386648516234,32.451457960112975,28.346892271691097
1760597594.926264,21.535521406838974,0.36617756880501595,0.7903300235102931,0.15379974570103352,35.080800828744565,30.421294123393075,22.896595280257735
1760597594.9361835,21.745298147601556,0.3895414158935076,0.8239187711649797,0.1683280358313599,37.32543384204837,28.27653372922473,17.4540536348301
1760597594.946191,21.909209243958568,0.41880596632785955,0.8571560823192023,0.1816027955336848,38.93886496167717,26.302942181545472,12.154748632111765
1760597594.9561677,22.032184261733793,0.4525717662394092,0.8866359615317715,0.19186392267283733,39.71268578773076,24.827438121090573,7.161857566541029
1760597594.9662492,22.120355964569065,0.48869067467517874,0.9086935743751299,0.1975606881640665,39.47297126307091,24.192401365170785,2.6520074847344417
1760597594.9761653,22.180762062037836,0.5242566006247114,0.9199375498623233,0.1975513839060833,38.107066198171054,24.71742096702579,-1.2056573664999497
1760597594.9862313,22.22078798695545,0.5557351016527835,0.9178572497652099,0.1912756841488227,35.59077445260299,26.65078067610752,-4.274916328720302
1760597594.9961705,22.247391541971787,0.5792670432169753,0.9013993042469027,0.17888436167772495,32.01248359147304,30.11612704923797,-6.479059578579216
1760597595.0061393,22.26620398393546,0.5911498875115968,0.8714001266555403,0.1613160380497964,27.589961654857216,35.06290046381411,-7.824334275795677
1760597595.0161562,22.280642965231188,0.588452793465832,0.830777010189781,0.14030667567061042,22.675102372009608,41.23157855960402,-8.415540957426817
1760597595.0261638,22.291191842828134,0.5696670766160676,0.7844133082189244,0.11830676495861425,17.742028407645996,48.145597667670216,-8.459446600293278
1760597595.0361733,22.29499115785178,0.5352454465689871,0.7387154082592698,0.09827905067802778,13.35527137438785,55.13980343339661,-8.253047756936567
1760597595.0461593,22.285845431618814,0.48785845721155885,0.7008720140770398,0.08336668186518749,10.117723314283877,61.42960192581234,-8.156088868292015
1760597595.0561743,22.254670393827094,0.43222017321625494,0.677910665711964,0.07645467750457792,8.602492141407811,66.21590006833087,-8.550397193669845
1760597595.066198,22.19030892329848,0.37442855791451396,0.675700955792874,0.07968709474438082,9.277513055624068,68.81054443867666,-9.791907236170118
1760597595.0761588,22.08056382020591,0.32090946301481355,0.6980637722340179,0.09403565377530276,12.43496883952584,68.75903371952535,-12.163584657233738
1760597595.08622,21.913263589727617,0.2771796935352215,0.7461045963152618,0.11902508181249487,18.137811481065956,65.93518408166267,-15.837693977073469
1760597595.0961745,21.677198555296165,0.24669612693889093,0.8178324271126547,0.15269298008386106,26.192777376782974,60.586910121891414,-20.853752867717905
1760597595.1061606,21.362820905297145,0.23003287103661393,0.9080960790841053,0.19180409437805765,36.154351249179186,53.32138881302129,-27.11499059429592
1760597595.116165,20.96267292041458,0.2245641424516179,1.0088739253253796,0.23227484824474132,47.35884864531485,45.028877206134986,-34.402458828232774
1760597595.126328,20.471578286445215,0.22475280206267031,1.109963020840183,0.2697187609373671,58.98369879223966,36.75525451107456,-42.402940803091944
1760597595.1361656,19.886690072228628,0.22305248905780514,1.2000904164848951,0.3000078270835679,70.12489983315325,29.54247322442892,-50.74476632013679
1760597595.1463788,19.207522438118307,0.21132117486937904,1.2683920536194178,0.31975286906491646,79.88512905732772,24.26233680357528,-59.03478272228078
1760597595.156235,18.436088953995604,0.18252723427921225,1.3060832998520664,0.32662261752502597,87.46493700503692,21.4714203913771,-66.89037405067144
1760597595.1661983,17.577221324209003,0.13242823784068705,1.3080201420097615,0.31944430950266506,92.24872562928181,21.31297430710223,-73.96264467627326
1760597595.176196,16.63905251147594,0.060846570286116265,1.2737768409152748,0.2980797492842364,93.87567111063623,23.48532169529482,-79.95013974753552
1760597595.186251,15.633537841776876,-0.02780856802574223,1.2079009521673998,0.2631615449225655,92.28462783289602,27.286088312581086,-84.60570004084659
1760597595.1962624,14.576790702789674,-0.1249892342702101,1.119185823465907,0.21585205707072527,87.72332121528332,31.7285379490325,-87.74112006080291
1760597595.2062192,13.488966507728296,-0.21941405372298467,1.0190912048337981,0.1577681257378871,80.71702614796286,35.71211810727522,-89.23431428949927
1760597595.2161863,12.393474960613249,-0.29915468644982995,0.9197180630906779,0.09109123307267344,71.99964405792112,38.21695853278559,-89.04133675970935
1760597595.2262735,11.31544545022882,-0.35392063305048205,0.8318590533867599,0.018748866934708737,62.417969093927624,38.485046746794225,-87.21147702864972
1760597595.2361999,10.279577218071976,-0.3769942179391343,0.7635565016638777,-0.05550158420994662,52.824989063564885,36.15202761247284,-83.89957897402441
1760597595.246215,9.307701673184042,-0.366376254074894,0.7193829579824653,-0.1272171616614689,43.97888835563879,31.30373665772186,-79.36791462546715
1760597595.256192,8.416497197569864,-0.32493989756198216,0.7004319948966894,-0.19168052015628573,36.46179897547606,24.44824860746078,-73.97162518023585
1760597595.266259,7.615790594850351,-0.2596591720730246,0.7048469942522378,-0.24451537416977343,30.6280811217205,16.412627058031056,-68.12635167807423
1760597595.2762053,6.907760619117868,-0.180186978608985,0.7286487802754756,-0.2823684334359014,26.58720440096873,8.18876903290981,-62.2622831993768
1760597595.286224,6.287168302177529,-0.09715283056832287,0.7666387377282683,-0.3034891094002871,24.22135671281325,0.7614346342980883,-56.7732184018654
1760597595.296192,5.742534482531937,-0.020531706492543392,0.8132201222243853,-0.30805418590058276,23.232745501696666,-5.047651741836091,-51.97079298303417
1760597595.3062048,5.258020968016413,0.04165709885287582,0.8630561501753329,-0.29814278160692437,23.210822818955705,-8.692519393847858,-48.05245338351206
1760597595.3161821,4.815677937580789,0.08417479649430856,0.9115397197814009,-0.2773560089469407,23.70664681404496,-9.957564097160539,-45.08803029267437
1760597595.3262088,4.397699864068037,0.10486499435040353,0.955079648170609,-0.2501715917093993,24.30137598174868,-8.953019517015676,-43.02546237703475
1760597595.3361924,3.988374595720794,0.10446900450053892,0.9912214177797213,-0.22119224446311353,24.658543799495547,-6.061936562648541,-41.71262357792378
1760597595.346262,3.5754997362895047,0.08606122760668891,1.0186266631024161,-0.1944614301515528,24.554328795802395,-1.8561879749385388,-40.92994478580991
1760597595.3561625,3.1511569866736804,0.05426146959338618,1.0369398034735753,-0.17297981894194825,23.885156217506324,2.9995643804579655,-40.427725859479736
1760597595.36624,2.7118530557365794,0.014394851267845813,1.046575385452098,-0.15848327969651854,22.65635007849508,7.839866159666749,-39.962513189020186
1760597595.3762677,2.2581286052223852,-0.028260079602824277,1.0484675576435012,-0.15146954561739207,20.95822792126086,12.075371410894222,-39.328213965014164
1760597595.386301,1.793785689463146,-0.06905480138102126,1.0438291086842673,-0.1514095326564812,18.936617328958384,15.24869440205639,-38.37916397018348
1760597595.396378,1.3248875597133196,-0.10436645630976185,1.0339622823049575,-0.15705983482489727,16.763642772147406,17.067217793402747,-37.043729943497304
1760597595.4062274,0.8586613901638253,-0.1318193872235824,1.0201436926489647,-0.1667995290921169,14.612654186308859,17.41340338237188,-35.3280590354728
1760597595.4162207,0.4024124784125271,-0.15034511446140758,1.0035795551009397,-0.17893351328641757,12.639200074028949,16.334668085344717,-33.31036689715423
1760597595.426191,-0.03744734987520717,-0.16007975455345905,0.9854081054899463,-0.19192518094018263,10.968463499318968,14.015974590724571,-31.12685021158259
1760597595.4362428,-0.45615351140850724,-0.1621025403524109,0.966719818459189,-0.20453988258188924,9.688659316997322,10.739374255239545,-28.951045402439494
1760597595.4462135,-0.8510350497283656,-0.15805022528858037,0.9485701619093038,-0.21589779432439893,8.849409606675316,6.835895363364763,-26.96922695684101
1760597595.456228,-1.2216059790700113,-0.1496794138468195,0.9319685661652379,-0.22544973224387188,8.463916210864431,2.636080864414472,-25.355071914957687
1760597595.4662116,-1.5693172312203738,-0.1384667054989084,0.9178376567121902,-0.23289983608888373,8.513722813188693,-1.5743068805486038,-24.247042479079468
1760597595.4762092,-1.897048387951254,-0.12532589161372257,0.906947087380629,-0.23810370341739304,8.954937964358505,-5.587641811937799,-23.731555716548026
1760597595.4864206,-2.208460411164644,-0.11049054017958233,0.8998349852184387,-0.24097026006676125,9.72494055267292,-9.292724214686686,-23.834016452538226
1760597595.4961689,-2.507341025949054,-0.0935734244613719,0.8967354013378525,-0.24139165570702276,10.748795961368222,-12.676144311340263,-24.51840090768783
1760597595.5061646,-2.7970565306511355,-0.0737821328416419,0.8975311819064146,-0.23921806004006638,11.944861937974613,-15.8073477028959,-25.694637505524593
1760597595.5173287,-3.080187951096749,-0.05024725926665432,0.9017481968564753,-0.23428335328732533,13.2293311993763,-18.810341365033935,-27.231871193057078
1760597595.5262303,-3.358386750416277,-0.02240567989820574,0.9085999401102279,-0.22647476731443442,14.519710081038967,-21.82681637587773,-28.97503701651544
1760597595.536269,-3.632444684048441,0.009625235492477529,0.9170831720603838,-0.215827759840099,15.737448963099302,-24.97666829508317,-30.76208068117715
1760597595.546243,-3.9025398263851327,0.04474720360794801,0.9261171687883688,-0.20262027050191558,16.810104851957835,-28.32237192733685,-32.439577244560745
1760597595.5561867,-4.168598588610743,0.08071388674958024,0.934711531863592,-0.18744024270370305,17.673493362526226,-31.843330799640395,-33.87521861754173
1760597595.5662093,-4.4307006961405975,0.11414506363260604,0.9421402502412204,-0.17120706110235878,18.27422203956698,-35.42511635408017,-34.966423651234024
1760597595.5761778,-4.689449663055667,0.1407501248535406,0.948093998031961,-0.1551389094925945,18.572748349302888,-38.86645006574623,-35.64497827628223
1760597595.586217,-4.946236798559285,0.15575761022767573,0.9527811297001637,-0.140669570845807,18.54669382870703,-41.90402331555238,-35.87804006555695
1760597595.5962336,-5.2033434348838865,0.15450810344513816,0.9569526664704248,-0.12932578602718478,18.193687589512212,-44.25218999194426,-35.66603729505275
1760597595.606225,-5.46385098518266,0.1331316057915576,0.9618373259478725,-0.12257870780608612,17.532682626979305,-45.6517886272575,-35.03801684767947
1760597595.6163785,-5.731355588070397,0.0892095468643041,0.9689859128234443,-0.1216824190039011,16.602617948755597,-45.92040761298593,-34.04492506934022
1760597595.6261635,-6.00950867673419,0.02232048469725058,0.9800364759703891,-0.1275123768517866,15.457529154676344,-44.99564162451521,-32.75120525586164
1760597595.636254,-6.301425247395876,-0.0656156469394895,0.9964221029858925,-0.14041831839498117,14.157739176470185,-42.963435077159964,-31.225025810941915
1760597595.6461606,-6.609017950747792,-0.17025474247806868,1.0190538134857807,-0.16010817205450767,12.75757276699932,-40.06546779199044,-29.5274829082592
1760597595.6561944,-6.932327013682039,-0.28504075512826116,1.0480211255226985,-0.18558053352325893,11.2910409203118,-36.68255747705323,-27.701303933375296
1760597595.6661978,-7.268921642538957,-0.40171997517119495,1.0823589035924759,-0.21512356515169168,9.757910259096093,-33.294845925966655,-25.75990741309474
1760597595.6762006,-7.613445728052827,-0.5111313188806276,1.11992805936785,-0.24639748011363946,8.113182990166862,-30.423471963317095,-23.678068964837436
1760597595.6862483,-7.957369297559628,-0.6042035829740253,1.1574493149416216,-0.2766129286861042,6.2629718754308366,-28.561817588478537,-21.385776253563407
1760597595.69621,-8.288990141149052,-0.673044049108744,1.1907155565935341,-0.3028038205317925,4.068968283987803,-28.10668563402019,-18.767006644717682
1760597595.7062097,-8.593710663460023,-0.7119650073366137,1.2149911535850861,-0.3221692368973924,1.3623432120168035,-29.30051804596316,-15.665015906976205
1760597595.7161722,-8.85459469772164,-0.7182774027318743,1.2255841444822244,-0.3324326081850799,-2.033694974304434,-32.19465733078156,-11.895179123333328
1760597595.7261863,-9.053187516793496,-0.6926926863927421,1.2185451233664768,-0.3321501179055129,-6.275079996702809,-36.64054748959186,-7.2653954274591435
1760597595.7361736,-9.170558470020755,-0.6392223875176949,1.1914064036045264,-0.32090235631284236,-11.465666512451419,-42.310985694247094,-1.6025556956061442
1760597595.746183,-9.188498759180977,-0.5645526397293391,1.1438385801920046,-0.29932274914475343,-17.62861250527618,-48.747966971429385,5.218198440706421
1760597595.7561867,-9.090779197907034,-0.47698499655488813,1.078085178423769,-0.26894888863636895,-24.68585901272115,-55.428586552428975,13.246145076464503
1760597595.7661579,-8.864351655835254,-0.38514257570247107,0.9990498076724242,-0.23192385033296523,-32.45062500517603,-61.83712633140809,22.43468837288256
1760597595.776178,-8.50037181299208,-0.29670235812064755,0.9139548091750928,-0.19061595281461008,-40.63595148269836,-67.53068861519085,32.63216577262561
1760597595.7861853,-7.9949329816194705,-0.21740439554280896,0.8315596318942022,-0.1472547078172229,-48.879326534417956,-72.18776751711557,43.58572236312765
1760597595.796167,-7.349427353111947,-0.1505088185512081,0.7610104172705968,-0.10368308471932007,-56.779958252841645,-75.63343373762784,54.95787117898758
1760597595.806163,-6.570487720612259,-0.09675302539090472,0.7104779058274846,-0.061289466466277,-63.94231295762665,-77.84007350438826,66.35341892809977
1760597595.8161588,-5.669510351396765,-0.05474848242433133,0.6858187219816413,-0.021108453232677314,-70.0181681278885,-78.9072787911866,77.35317271735225
1760597595.826221,-4.661818604241985,-0.02168109600377869,0.6895430355585465,0.016001494141452636,-74.74028052184697,-79.02739807288292,87.55024759459859
1760597595.836167,-3.5655821276233324,0.005854796513009169,0.7203415956244184,0.04922922331241876,-77.94342195402157,-78.44421097321755,96.58472843248082
1760597595.8463368,-2.4006291126217425,0.03106378410560319,0.773286837871413,0.07781075177439252,-79.57163653389374,-77.41168115545693,104.17277703025634
1760597595.8561733,-1.1872666936370087,0.056352228368822165,0.840633794967515,0.10114803049297395,-79.67287773829128,-76.15838045588332,110.12700658453666
1760597595.8661613,0.05481764965629232,0.08302397832228683,0.913020185709556,0.11897454206643995,-78.38335330356597,-74.86136672774742,114.36608577812449
1760597595.876229,1.3075255606025271,0.11127955369686648,0.980842021370997,0.13149001349281342,-75.90433780221537,-73.63132843502241,116.91297253916922
1760597595.8862178,2.555139216838414,0.14045209511405782,1.035595622542096,0.13941038492494864,-72.47446697862186,-72.50894553754901,117.88271281956193
1760597595.8961961,3.784884410038902,0.16938468181058716,1.0709772739291592,0.14390572173972313,-68.34092421616417,-71.47086860333818,117.46219916703647
1760597595.906501,4.987235235868057,0.19686377974935632,1.0835584519897925,0.14643033857154927,-63.733338675683186,-70.44268524538415,115.8854445519774
1760597595.9162128,6.155964795991038,0.2220296826639421,1.0729521706865608,0.14848547258731204,-58.84417316309959,-69.31585700220731,113.40839846384179
1760597595.926324,7.287972101752869,0.2446752195192266,1.041512449017542,0.1513735869092593,-53.818477649471504,-67.96575660269954,110.28678492993473
1760597595.9363117,8.382922054940515,0.2653505293005234,0.9936930589746046,0.1559937488419891,-48.754035660226954,-66.26837386772121,106.75901264714604
1760597595.946212,9.44273094980982,0.2852382830831895,0.9352179099117949,0.16270616830178478,-43.71049775325956,-64.11392048155625,103.03451826591598
1760597595.9562047,10.470927811613791,0.30583480034285765,0.8722080561583935,0.17127787187313995,-38.72388052866313,-61.41650198720386,99.28664011402371
1760597595.9661868,11.47192899451149,0.32853006288888564,0.8103866391760814,0.18091332055731799,-33.82163667728531,-58.120123019584994,95.64862829991088
1760597595.97617,12.450277199784255,0.35419723094483835,0.7544494243681202,0.1903725243092187,-29.033732775662976,-54.20216887830408,92.21160692096666
1760597595.9862118,13.409909788776183,0.3828859066191722,0.707652913193025,0.19817687508561158,-24.396709344411452,-49.67570848876406,89.02390939067638
1760597595.99618,14.353530742519869,0.4136868269320213,0.6716413189220026,0.20288437745002716,-19.950130402830986,-44.59133922085601,86.09189505455029
1760597596.0062144,15.282162546173666,0.4448063206755406,0.6465070737556998,0.2033847401613926,-15.727363398943693,-39.03823685506459,83.38286799596419
1760597596.016194,16.194942282016125,0.47384681931811323,0.6310522543176837,0.19914744548877641,-11.744322252477087,-33.14326442846528,80.83082337795052
1760597596.0261908,17.089195287514578,0.49823800002848767,0.6231914094081461,0.19036677911330407,-7.990168216477169,-27.066864891378724,78.34532234088401
1760597596.03621,17.96077408934684,0.515724054329428,0.6204181882992063,0.17797454776491387,-4.423168098845715,-20.994972352123078,75.82299137330202
1760597596.0462043,18.804603330785326,0.5248040006947294,0.6202574004451863,0.1635185358890374,-0.9734384266510139,-15.12700584734776,73.16032751124834
1760597596.056344,19.615337481723447,0.5250427598179985,0.6206410881049154,0.14892862141881394,2.447379295406858,-9.660839757013015,70.26603164083275
1760597596.0662024,20.388024857421588,0.5172064752180057,0.6201729606662134,0.13621220002403978,5.930989586735983,-4.776278444293212,67.07116269021303
1760597596.0761898,21.118678370968727,0.5032115018000927,0.6182692638019375,0.1271334403118971,9.554423483459965,-0.6188897953764917,63.53594328532136
1760597596.0862134,21.804676107733485,0.4859062812018922,0.6151804961839517,0.12293456354012429,13.362190220676391,2.714029141104601,59.65281972531176
1760597596.0961993,22.444948445320172,0.46872871339050054,0.6119073543069866,0.12415082381192061,17.351560089422023,5.1841137783240105,55.44611870417865
1760597596.1062279,23.03994768009367,0.4552963610068772,0.6100273826995394,0.13055353447944326,21.463353193451127,6.8187730870374645,50.969156211118964
1760597596.1161923,23.591433740014608,0.4489881989230491,0.6114483543813988,0.14122865494583356,25.57974587745623,7.7144106634314085,46.299830526856574
1760597596.1262212,24.102136911486934,0.45256413664367073,0.6181050775977969,0.15476813474342632,29.529677303023693,8.036385939313051,41.53554038219032
1760597596.1361964,24.57536802765812,0.4678484174542279,0.6316233412069916,0.16952624696171975,33.10158690824408,8.01567017737966,36.78779999096759
1760597596.1462102,25.014635837039204,0.49548460041461645,0.6529879059510939,0.18388049231509682,36.062514848098495,7.9413592576611896,32.17637508269535
1760597596.1562114,25.42330620086038,0.5347616044622455,0.6822627493381147,0.19644040898073323,38.182086641026224,8.147370867919964,27.82235143594026
1760597596.1662438,25.80431010576574,0.5835159741391003,0.7184123641950663,0.20616811814835356,39.25956274384892,8.991235145520246,23.839416746742057
1760597596.1762016,26.159887181353575,0.6381310257442581,0.7592622132209005,0.21240441518253683,39.15187298758314,10.823358522680412,20.32287096062888
1760597596.1862295,26.49134314324106,0.6936697606465008,0.8016205694441341,0.21482153156882053,37.8002493966287,13.946769839215143,17.336496144432715
1760597596.1963615,26.798805351304726,0.744186578626625,0.841567426671803,0.21334006107358908,35.25265747915906,18.570007861038487,14.898305765965253
1760597596.2062566,27.080979017806996,0.7832536394131715,0.8748987124606631,0.2080500470947027,31.67878808398163,24.75893718459481,12.9671137788721
1760597596.2162058,27.33492928528038,0.8047023483045804,0.8976931443028592,0.19916421690888783,27.374139853451062,32.396069833997316,11.432541543663662
1760597596.226353,27.555930975688504,0.8035202043068906,0.9069427478791948,0.18700895588503,22.750014415406433,41.157481990697164,10.111293739470977
1760597596.236217,27.737433342614707,0.7767743084295182,0.9011586811864148,0.17203638264868193,18.30737626682692,50.516798953962734,8.752150119783943
1760597596.24622,27.871181464768224,0.7243774379168804,0.8808432899351377,0.15482925229145625,14.594698556725252,59.78247383280849,7.051137284231845
1760597596.2562058,27.947518834300137,0.6494920783255456,0.8487257387971813,0.13607297835595225,12.153030101476004,68.16878306434371,4.676906477710827
1760597596.2662613,27.955868754353936,0.5584040549665227,0.8096981046565983,0.11648310753380811,11.454896904087095,74.89356315934927,1.3046879852191764
1760597596.2762508,27.885363902690383,0.4598036326318704,0.7704397656931111,0.09669741407884289,12.846015530506772,79.28868613616943,-3.3443865644491377
1760597596.286461,27.72557626274719,0.3635653046618175,0.7387533708950912,0.07716429735896652,16.49898282708399,80.90489848183472,-9.463011435068868
1760597596.2962286,27.467296891311538,0.27925185099547106,0.7226570333572261,0.05807441735275758,22.38594713761407,79.59228780300514,-17.121598825916703
1760597596.3062348,27.10331469493075,0.21462127255735278,0.72930489684762,0.03937773286582194,30.273581399224494,75.54124585464935,-26.24170699590995
1760597596.3162382,26.629132153821825,0.17438475734012887,0.7638482342040765,0.02089929992079551,39.739568234191374,69.27543936044934,-36.58414654971265
1760597596.3262403,26.043538420663257,0.15939934564092248,0.8283886934176625,0.0025288674946995545,50.206282626702595,61.59657340568689,-47.75575644322787
1760597596.336218,25.34895721593744,0.16642019960590754,0.9211982565103902,-0.015568489140271513,60.98540778751855,53.4887531641765,-59.236368913897785
1760597596.3462088,24.55151322270152,0.1884812686980198,1.0363775282483418,-0.03278480614206412,71.32750918425305,45.99615680902796,-70.42399420351192
1760597596.3562055,23.66081089549337,0.21589816179208063,1.16409036102192,-0.04801022668352923,80.47275171748878,40.090665147286515,-80.69269566597687
1760597596.3662114,22.689475060751512,0.23778863476634415,1.29144662212873,-0.05974058935473345,87.7015244384215,36.54645205061535,-89.4549730115328
1760597596.3761768,21.652543910192705,0.24390177022467285,1.4040093769186455,-0.06638176393839172,92.3852994630857,35.837122022904126,-96.21944040483467
1760597596.386206,20.566817274583386,0.22646141796732197,1.4877861850531129,-0.06672243615820678,94.03814640260059,38.06820674311286,-100.63560717075313
1760597596.3961737,19.450239857172175,0.1816857896115843,1.5314378943944602,-0.060469379822362064,92.36810138889881,42.953992490371746,-102.52054565085498
1760597596.4062908,18.321346711044423,0.11066205953661969,1.5283207220441088,-0.048676260081908354,87.32504536150482,49.84327106585096,-101.86626345120744
1760597596.4162154,17.198735771928735,0.01934215841516055,1.4779058879975837,-0.03388359079082972,79.13809251464534,57.793905872974506,-98.8303081810894
1760597596.426321,16.10048432576678,-0.08241905008720442,1.3861587084625253,-0.01984138245804175,68.3320050373149,65.690510941199,-93.7144535322691
1760597596.4361904,15.04341568454676,-0.18265373475723073,1.2646628585747515,-0.010805720344295893,55.71103483487227,72.39251719988975,-86.9368522089699
1760597596.446199,14.042166052860907,-0.2695422598733243,1.1286209406290166,-0.01055680372398427,42.30177431929393,76.89230960404359,-79.00180642246647
1760597596.4561784,13.108102011725826,-0.3336143862930156,0.99420970139917,-0.021413869743812538,29.25430798895092,78.45755828146639,-70.46862885535522
1760597596.4662206,12.248268828307861,-0.3693366558144494,0.8759455862676333,-0.043553353722578445,17.71114654730161,76.7315245449517,-61.918041575925784
1760597596.476429,11.46464934050152,-0.3757121667166389,0.7846493935066038,-0.07485047839298992,8.66278872862083,71.7718537833691,-53.91310180429499
1760597596.4862149,10.754017333729362,-0.3558406772729715,0.7263508262016726,-0.11130009923576055,2.8144488370321676,64.02120174652235,-46.953324466394704
1760597596.496179,10.108549018937524,-0.315705818977825,0.7021765341615552,-0.14789656148312236,0.4889196786100074,54.21820429883052,-41.42524293932417
1760597596.5062332,9.517144379824735,-0.262638857306776,0.7090306405436853,-0.1797253577782096,1.5852629678382228,43.26993518206851,-37.5578274087186
1760597596.5162063,8.967192465877746,-0.20390365446526215,0.7407580166907118,-0.20297707799330372,5.602785257651444,32.113411880893175,-35.3939510012574
1760597596.526204,8.446386646714158,-0.14569594669695107,0.7894765825773038,-0.21563938078772177,11.726734446262409,21.592616143167458,-34.78747263102908
1760597596.536196,7.944209112114826,-0.09264576891280553,0.8468376227561778,-0.21773050130534952,18.95955343546838,12.36998326555237,-35.4296870339676
1760597596.546233,7.452837349028008,-0.04774597713746971,0.9050703556577336,-0.21106907976347253,26.272618827178412,4.880314943516171,-36.901176877779704
1760597596.5561702,6.967405246019266,-0.012550751652323191,0.9577476114804531,-0.19869092692256912,32.750414734406036,-0.6756119512009824,-38.738570641322625
1760597596.5662243,6.485705845889997,0.01250878671925043,1.0002579260791287,-0.18409493108844538,37.702569234855275,-4.307642579592418,-40.50259409250457
1760597596.5762477,6.00751832141279,0.027799184296330395,1.029992953756779,-0.17051463168209266,40.72784050782057,-6.195288054616148,-41.834702323265525
1760597596.5862184,5.533777300258712,0.03420891774426425,1.0462741866867724,-0.16037266234719366,41.72539692047949,-6.639742176321855,-42.49365407160105
1760597596.5962384,5.065786678219947,0.03294591848511395,1.0500609997133894,-0.1550007903910453,40.85952385701445,-6.015743849471437,-42.36894777815556
1760597596.6062982,4.604623812666051,0.025404613459869066,1.0435038254821267,-0.15462742261873014,38.491613466600015,-4.726748910990246,-41.47322493108512
1760597596.6162555,4.150801535430635,0.013079145270248213,1.0294248097873904,-0.15857413763347553,35.0966159910318,-3.1649472130933436,-39.919227706575484
1760597596.6263216,3.704178209264315,-0.002506619224385572,1.0108142217740792,-0.16557478038974152,31.180230440974743,-1.6772423860116321,-37.88823470828211
1760597596.6362164,3.2640508900313634,-0.019872900524407537,0.9904179276767648,-0.17413026826889808,27.209265439855148,-0.5386508786884877,-35.59642637136461
1760597596.6462452,2.8293445117222893,-0.03766588923711264,0.9704616065557823,-0.18282786729192427,23.562450551001188,0.0651782944666291,-33.26406792810215
1760597596.6564448,2.3988194709232054,-0.054737586501905834,0.9525218650656806,-0.1905754728911623,20.50394148876755,0.044956347619945485,-31.090490063679514
1760597596.666252,1.9712492746443782,-0.07020720727550828,0.937525069924102,-0.1967246434006001,18.177749020833158,-0.5961511074403008,-29.236162305691515
1760597596.6761966,1.5455528995952024,-0.0834905157052219,0.9258380282885045,-0.2010794354406642,16.61870583755465,-1.776418254260606,-27.811971497145766
1760597596.6862912,1.1208905180222697,-0.09429167947382934,0.9174104750398894,-0.2038097298950234,15.774354389095617,-3.3572247960003376,-26.8751351035819
1760597596.69626,0.6967418907070372,-0.10256055186143576,0.9119336887717303,-0.2053039858049266,15.532077725761745,-5.169327226611305,-26.430834297647785
1760597596.7063103,0.2729868105746642,-0.1084232826357861,0.9089878805287788,-0.20600340979227147,15.746597597877882,-7.040150110527126,-26.438473747252026
1760597596.7165446,-0.14999870036590618,-0.11209592679480473,0.9081601019553658,-0.2062563485556635,16.264266921891547,-8.818611561216349,-26.821362725207994
1760597596.7261946,-0.5712258391452479,-0.11379169928396898,0.9091225246156619,-0.20622080409939067,16.942021366424317,-10.394512623201297,-27.478534845509074
1760597596.7362497,-0.9889643172272401,-0.1136346880748639,0.9116671557258763,-0.20582852651660025,17.660138999321365,-11.710336708242176,-28.297397940986205
1760597596.746201,-1.4006258008362824,-0.11159551749476042,0.9156977104836559,-0.20480980680601296,18.328930817676817,-12.764328421787832,-29.16596656305634
1760597596.7561944,-1.8026993723439182,-0.10746481047649291,0.9211839596352581,-0.2027663178523828,18.890119109440587,-13.604864908659392,-29.98359407870174
1760597596.7662826,-2.1907877829486653,-0.10087610793730027,0.9280894744481906,-0.19927175467981983,19.31400980732148,-14.317280783597065,-30.669367885588528
1760597596.7761774,-2.5597904894669012,-0.0913815592640742,0.9362894428875929,-0.19397743372253096,19.593713762251124,-15.005307241243152,-31.167616994268702
1760597596.7862222,-2.904263384894103,-0.07857335981136335,0.9454987129470366,-0.18670215329839113,19.737691539228415,-15.769992368968039,-31.450271414056516
1760597596.7961824,-3.2189571845352587,-0.06223372492964183,0.9552290916859029,-0.17749121019653022,19.76183043559881,-16.68928361011892,-31.516092775663914
1760597596.8061965,-3.4995007274419057,-0.04248815515218359,0.9647886875016931,-0.16663676537677288,19.6821351277088,-17.801330540585493,-31.387063199359226
1760597596.8161843,-3.743158917455089,-0.019933106282636826,0.9733267823945653,-0.15465926425904988,19.508941966915923,-19.094027301504482,-31.102470464603496
1760597596.8262305,-3.949565957217862,0.004288767212983572,0.9799187067428723,-0.14225661207772036,19.243362127756345,-20.502447379609634,-30.71144528058263
1760597596.8362164,-4.121319401891757,0.0284858046038145,0.9836789357388623,-0.13023384721016903,18.876414813055373,-21.914754938143027,-30.264860917689475
1760597596.846231,-4.264322127538995,0.050497572669080316,0.9838877250345872,-0.11942987306418326,18.391008579662227,-23.186029417969085,-29.807565220587428
1760597596.8561785,-4.387777465306757,0.06785827863613261,0.9801160968487805,-0.11065748113411183,17.766557809634467,-24.15832548431355,-29.371862284046692
1760597596.8662446,-4.50377590130089,0.07803261350184522,0.972334375182884,-0.10466761367297665,16.985609245355207,-24.684334285942256,-28.97299405055539
1760597596.876188,-4.626456848777561,0.07870268380664869,0.9609900067294211,-0.10213975873429107,16.041456028381823,-24.65136175592433,-28.607095426716597
1760597596.8862321,-4.770781987378996,0.06807486530688123,0.9470414955799784,-0.10369012044477438,14.945390334359402,-24.002121797050577,-28.25172437723554
1760597596.8962064,-4.951014045242143,0.0451660846702783,0.9319375213246144,-0.10988100695518885,13.732036724110374,-22.749113565383563,-27.86864913063198
1760597596.9062479,-5.1790532558896265,0.010021591587280346,0.9175342271526642,-0.12121151568025776,12.461172835938617,-20.9801066981695,-27.408203406476716
1760597596.916324,-5.462835505713819,-0.03618352335847827,0.9059502970145662,-0.13807218490702391,11.214668080488337,-18.853450223883144,-26.81430801176888
1760597596.9263246,-5.805027059685728,-0.09119241235966129,0.8993689182988382,-0.1606548446189934,10.087743653449955,-16.583427704100664,-26.029267204755833
1760597596.9365091,-6.202242850219415,-0.15186876670016863,0.899805291096403,-0.188823106081359,9.174691439811598,-14.417459226047228,-24.997657247379422
1760597596.94622,-6.644955187103911,-0.2145228704914591,0.908864436167329,-0.22196612397899151,8.550357150927482,-12.608285281955206,-23.66894081215778
1760597596.9562132,-7.1181489808390905,-0.2753019723914547,0.9275158386285594,-0.2588722264191657,8.24984398168269,-11.385083133080434,-21.998766580018344
1760597596.9662216,-7.602642209573516,-0.33057453056007485,0.9559102489631344,-0.2976636202149509,8.249740316143258,-10.92759084246073,-19.949186038898983
1760597596.9762096,-8.07686626797882,-0.37724925152526295,0.993260802434091,-0.3358270312519781,8.454478354160026,-11.346696562629662,-17.488204673435973
1760597596.986222,-8.518825999188836,-0.41299615350731766,1.0378062197583324,-0.37036037444777953,8.69105419104701,-12.673691887496378,-14.589164255092369
1760597596.9962027,-8.907949266616896,-0.43636437323084515,1.0868689074577969,-0.39803594023230154,8.714301931778751,-14.858766722110223,-11.230442261747749
1760597597.006216,-9.226584476733198,-0.446809633787805,1.137014697848844,-0.4157589947814971,8.223401350557996,-17.777762746995993,-7.395899598067808
1760597597.0162551,-9.460992741650266,-0.4446507717973928,1.1843113449605098,-0.42097938175878286,6.888598850962476,-21.245156711278604,-3.076436423739659
1760597597.0262156,-9.601788053720046,-0.43097403813875923,1.224668227646299,-0.4120953540403818,4.385523688959247,-25.031000785980964,1.7270829631119289
1760597597.0362036,-9.64388262568653,-0.407502093463363,1.2542231156425954,-0.388777489126057,0.43322462110408066,-28.880044008259066,6.999431915091687
1760597597.0462148,-9.586073537084427,-0.3764429454416419,1.269730277922231,-0.35214093124802304,-5.168685981930878,-32.53208710743633,12.705324105427104
1760597597.0562053,-9.430443238036304,-0.3403293606323342,1.2689031940462874,-0.3047097372288615,-12.5085178999683,-35.74323756067372,18.783076202787342
1760597597.0662146,-9.181734649000342,-0.3018511293850574,1.2506750993913145,-0.2501486595203431,-21.54084871093701,-38.30772251445854,25.138963635955953
1760597597.0761938,-8.846810433019328,-0.2636763143831868,1.2153572986158754,-0.19278299764663975,-32.07784826096549,-40.07920009505231,31.644253181820087
1760597597.0862298,-8.434234005926484,-0.22825890795486956,1.1646914990813324,-0.13697753185154748,-43.79510427554928,-40.98939955584175,38.137191770158424
1760597597.0962033,-7.953938521900598,-0.19763947672665774,1.101801067731082,-0.08648504651963436,-56.25166008436223,-41.06104223105271,44.431874287657145
1760597597.106206,-7.416898922268068,-0.1732570860354255,1.031045001081326,-0.04388791001899184,-68.9222512487585,-40.411961789331684,50.33475225909038
1760597597.1162043,-6.83470475033741,-0.15579758005082026,0.957774099090493,-0.010236858885141998,-81.23825540213923,-39.248337397877755,55.667661005758184
1760597597.1262033,-6.21895337846623,-0.14510161554412113,0.8879903899937489,0.015053345417742123,-92.63277198842049,-37.84661686329237,60.29401343531478
1760597597.136201,-5.580442312260733,-0.14014967847414775,0.827918224111705,0.03404374871572705,-102.58474997204931,-36.52549225518148,64.14284581319733
1760597597.1462247,-4.928224502402357,-0.1391355327910929,0.7834983227457671,0.04987980454209915,-110.65736914093198,-35.61085147368857,67.22441103463326
1760597597.1562097,-4.268679486206958,-0.139633035553055,0.7598101417535341,0.06622759042953215,-116.52695254646041,-35.39777051106014,69.63171636331246
1760597597.166249,-3.604813699841344,-0.13885460587465134,0.7604325309212653,0.08661575300214933,-120.00040631098663,-36.11407528901755,71.52525621452631
1760597597.1763034,-2.9360068386242153,-0.13399791474564798,0.7867956421035365,0.11377604081600215,-121.02123499239205,-37.889702204637494,73.10275783105017
1760597597.1862855,-2.2583543014957104,-0.12266906157746961,0.8376488712268023,0.14908035203399636,-119.66585428883594,-40.735543980792876,74.56037388577582
1760597597.1962209,-1.5656249263982391,-0.10333116336039107,0.9088153541258331,0.19217272391962645,-116.132294758548,-44.53532682389909,76.05436673445831
1760597597.2062593,-0.8506900935553776,-0.07566976264932103,0.993376655557384,0.2408901197722587,-110.72231613122119,-49.05380518902146,77.67195781244996
1760597597.216361,-0.10714150961685363,-0.04074748908632745,1.0823339791710866,0.29153003129053506,-103.81671848573401,-53.96260102829039,79.41726828986981
1760597597.2262442,0.6692425316616059,-0.0008716948459170452,1.165667010747169,0.3394410586497142,-95.8438112062724,-58.88092136843725,81.21445750743669
1760597597.2362459,1.47947853903943,0.04080957364837747,1.233616959593876,0.379823126003393,-87.24267783042058,-63.42413485456433,82.9263430297982
1760597597.2462234,2.3209846852474074,0.0808881131847664,1.2779873227387075,0.40857903310609045,-78.42482627905929,-67.25126851164343,84.38372410866654
1760597597.2562437,3.1878489162024897,0.11632087574939173,1.2932567176647256,0.42305727534972537,-69.73905121871971,-70.10342219589958,85.41895724485713
1760597597.266234,4.071669377147446,0.14497531129496138,1.2773032536044837,0.42253498675465784,-61.444597622784094,-71.82760884674074,85.89731768064843
1760597597.2762275,4.962788721521579,0.16599947296420353,1.2315845145054454,0.4083216140968968,-53.69679906503772,-72.38347428124156,85.74098030966518
1760597597.2862334,5.851691274746532,0.17995455912707445,1.1607423716116405,0.3834561549409225,-46.54712509891416,-71.83348689471582,84.9423502864537
1760597597.2962468,6.730316119402833,0.18868524177473053,1.0717589120446616,0.3520964347569136,-39.95660534324406,-70.32028747987418,83.56540286949114
1760597597.3062348,7.593063368594809,0.19495374327136242,0.9728811319075175,0.3187762399747101,-33.81911449597687,-68.03712663394484,81.73546147450833
1760597597.316242,8.437334993807811,0.20191743440056298,0.872524914108311,0.287698972048438,-27.98988145160118,-65.19780226368786,79.6194350718995
1760597597.3262281,9.26354373900829,0.2125630589115659,0.7783096276127592,0.26217996544118555,-22.314875410419,-62.011088636038394,77.39987033498684
1760597597.3362334,10.074622850151075,0.2292103397727743,0.6963157151265315,0.2442894589165779,-16.657841155878113,-58.66209650142642,75.24705645818906
1760597597.3463624,10.875154459195704,0.25316975385380913,0.630615040213241,0.23470450819349836,-10.922846944921021,-55.30054749407274,73.29363474604995
1760597597.3562536,11.670290818479465,0.284598115544676,0.5830903653523923,0.23275466723010887,-5.070638745876563,-52.034474996939544,71.61561973788523
1760597597.366266,12.464663366371598,0.32255340045491315,0.5535288549572314,0.23663876962595154,0.8729899747730908,-48.927460270373686,70.22255646959724
1760597597.3762057,13.261459569859232,0.36521468727637024,0.539948412687709,0.24378517724454646,6.81840861692186,-45.99777355124207,69.05798286056417
1760597597.3862376,14.061801108722255,0.4102082636414824,0.5391021422774589,0.2513119935036437,12.623492377811264,-43.21847233136603,68.00969240049875
1760597597.3962247,14.864487444071518,0.45496813141646925,0.5471006839770393,0.2565191078822356,18.113972730985918,-40.518595334535796,66.9276805018457
1760597597.4063458,15.666089024471614,0.49706019174786276,0.5600789262141705,0.25732673788436405,23.109982983757558,-37.78683645384993,65.64627853405945
1760597597.416245,16.46130281099713,0.5344172833441905,0.5748076314660091,0.25257829484325545,27.454695674462485,-34.87985287786743,64.00614027933233
1760597597.4263308,17.243439062731284,0.5654643206634832,0.5891354181153248,0.2421506240806203,31.040202781004744,-31.63700783536272,61.87189950601364
1760597597.436555,18.004903369228,0.5891464371725931,0.6021752160255157,0.22685684470989448,33.82582814655671,-27.90176301282685,59.142707030930374
1760597597.4463022,18.737569299951495,0.6048939421242056,0.6142178107350684,0.2081759537227101,35.84520768342802,-23.547768156987626,55.75508618025394
1760597597.4562352,19.432993389848686,0.6125616601306648,0.6264209964467632,0.18788324163122772,37.20072094937563,-18.505904947118708,51.679709268077964
1760597597.4662344,20.082490057755496,0.6123739166398752,0.6403590778662455,0.16767058619216788,38.046631723520555,-12.787705765744997,46.91500808865154
1760597597.4762232,20.677142181884918,0.6048994338711827,0.6575309114714198,0.14883177296654496,38.564679320632585,-6.500726662084584,41.480749062351094
1760597597.4863114,21.207858296624636,0.59107419940132,0.6789232617181686,0.1320584992061663,38.93709948845594,0.1475686961529825,35.41404433022949
1760597597.4962106,21.665590386696472,0.5722784895012921,0.7047078313483669,0.11736504262092214,39.321909277322035,6.859309593800842,28.769119748308697
1760597597.5062306,22.041794426394002,0.550452284313817,0.7341182616686299,0.10413803579691136,39.834042920372866,13.269237106357632,21.620876701118544
1760597597.5162258,22.329154655583658,0.5282060007005075,0.7655176543539084,0.09128936642498912,40.53413562351423,18.97971210829708,14.071125678787288
1760597597.5262299,22.522516496646546,0.5088618625346695,0.7966361816442274,0.07747868365918663,41.42503739780498,23.604741623326706,6.255514611486127
1760597597.5362184,22.619901179995477,0.4963560787026721,0.8249365529049493,0.06137232324047442,42.454983145143856,26.81890430094165,-1.6512611708804943
1760597597.5463603,22.62342518640102,0.49494853671890826,0.8480525229699695,0.04191242205768661,43.5259357825162,28.406325491421033,-9.434354404822715
1760597597.5565078,22.53993146349016,0.5087225917317338,0.8642389996658573,0.018573265017977535,44.50580119879397,28.30453758342563,-16.843691414232932
1760597597.5662272,22.381160679947726,0.5409046048572123,0.8727685712557646,-0.008423153302451154,45.24359966126584,26.637966151401603,-23.60605425830767
1760597597.5762193,22.16334428748226,0.5930820348600696,0.8742086207668972,-0.03797076465380576,45.58686822571485,23.73580238561807,-29.444446944392368
1760597597.5862586,21.90617627509783,0.6644426666488826,0.8705194855696268,-0.06806749082273798,45.400351838784296,20.129404128642122,-34.10373895466138
1760597597.5962663,21.631206076562282,0.7511872393762847,0.8649316353523561,-0.09596522687401061,44.5844619770049,16.525581320369515,-37.380326526243984
1760597597.6063304,21.35978088693609,0.8462723106838596,0.8615889489641325,-0.11849255518534908,43.09130280057192,13.754438890087268,-39.152323133830336
1760597597.616297,21.110741542903327,0.9396134754039962,0.8649810879004012,-0.1325228817047863,40.93567837160507,12.693665288377277,-39.40592277343685
1760597597.6262267,20.898132736478235,1.0188235533296481,0.8792220028989567,-0.13552463706568035,38.19875612782937,14.174718400112008,-38.25341648662926
1760597597.6362681,20.729218674359295,1.0704799051579101,0.9072544598980018,-0.1261027337085664,35.023113351774654,18.879660055282137,-35.938993720462925
1760597597.6462426,20.60309374038713,1.0818113013828596,0.9500710366458072,-0.10441861751303091,31.599635657500563,27.23987194888689,-32.82980238813452
1760597597.6562512,20.510136150308938,1.0425803991492704,1.0060575371707636,-0.07236871583099963,28.148860226400064,39.34914520143529,-29.391629870170508
1760597597.6662316,20.432460678792776,0.9468494096772894,1.0706108277416437,-0.03343863087654802,24.901269905430308,54.90346555936051,-26.15094248871935
1760597597.6762185,20.345381526525582,0.7942992521397358,1.1362501204984186,0.007754860292681893,22.081857909982077,73.17807014491203,-23.64774061710544
1760597597.6862378,20.219717426291687,0.5908418764318815,1.1934483174882062,0.04611564249777061,19.903105378825607,93.04901637980169,-22.386175206654503
1760597597.6963239,20.02460546675954,0.3483892276605819,1.2322540353813194,0.07674859379029329,18.567036457841322,113.06208101690206,-22.790914493303884
1760597597.706308,19.73039865938879,0.08377097615965999,1.2444492693963833,0.09554602120745254,18.27202906366298,131.54716310079706,-25.175505444636855
1760597597.716221,19.31124503651554,-0.18309301375344603,1.2256522673006782,0.09965160226920283,19.215532785059523,146.77178712839208,-29.724331769422655
1760597597.7262425,18.747074741612057,-0.43154364221948227,1.1766609625405013,0.08783522269791444,21.582431602123265,157.12198266085295,-36.48428223391212
1760597597.7363014,18.02490454436406,-0.642710478787194,1.1035495651873315,0.06078709808741031,25.51254269112084,161.29187660471337,-45.35913881419497
1760597597.7462656,17.13954071418809,-0.8017802434401083,1.0164726435827527,0.02125552513232538,31.049273108076886,158.45585822761146,-56.10104637907844
1760597597.756222,16.093868125812822,-0.8995831489152308,0.9275635590080128,-0.026105734541323995,38.0812606493318,148.39310770576733,-68.29865713405984
1760597597.7662306,14.898928969007567,-0.9332222377053315,0.8485492536787982,-0.07528413703150928,46.295244142059325,131.53830076074107,-81.36794034851555
1760597597.7762487,13.573920514750814,-0.9057109332058241,0.7886934240664966,-0.11983820449712038,55.158625857832476,108.94575869379399,-94.55613472778516
1760597597.7862945,12.146105167392976,-0.8248224740507971,0.7534924044294159,-0.1540556846504442,63.944383830011205,82.17309463820223,-106.96997779700138
1760597597.7962203,10.650473170915442,-0.7015055147814363,0.7442874342663136,-0.17407539803756986,71.80125206643116,53.10730154933968,-117.63580532695926
1760597597.8063009,9.128883844773116,-0.548250991727998,0.7587086326765191,-0.17867685566945646,77.86104397526458,23.76551398921909,-125.5921592719098
1760597597.816227,7.628386407136849,-0.37772238560820554,0.791684496584747,-0.16950472271129688,81.36532045054958,-3.8973239036262917,-130.00664399882757
1760597597.8262196,6.198518258876493,-0.2018233360179451,0.836672992072694,-0.15063978277244477,81.78771244941139,-28.149259008499328,-130.29984670176484
1760597597.836293,4.887593617540897,-0.031223767478199865,0.8868107494722396,-0.12761678622203795,78.92757228569688,-47.59779754381847,-126.25257073822718
1760597597.8462229,3.7382802362432948,0.12475503256577712,0.9358047837555814,-0.10616002907779318,72.95528174112911,-61.26116081583963,-118.07111320614783
1760597597.856209,2.783032220009468,0.2580627485615119,0.9785339814110827,-0.0909850020831451,64.3984089005054,-68.60169758294373,-106.3908576884754
1760597597.8663146,2.0401133332039567,0.3618322441014748,1.0114126706264832,-0.08496215159405675,54.0694082120254,-69.5315385751485,-92.21077677132787
1760597597.8762245,1.5109511037008871,0.4304406810979296,1.0325696248567908,-0.08879567048125991,42.94760364121779,-64.39839869500476,-76.76725952934225
1760597597.8862848,1.179401886837545,0.4598177947919017,1.0418470327716802,-0.10121272521768705,32.037908304121736,-53.95458443144401,-61.36992037172632
1760597597.896245,1.0132154846805748,0.4479950749885006,1.0405893951229133,-0.11953676484636915,22.233232746491428,-39.307427211462624,-47.23032040962258
1760597597.9062276,0.967618549597852,0.39575612440211755,1.031215467414139,-0.14044927433252846,14.205455526573514,-21.84692337477269,-35.31493893725554
1760597597.916472,0.9905515037606819,0.3071442313274425,1.016639892952952,-0.16073555374159015,8.342052138167777,-3.1476852130030903,-26.246894788677704
1760597597.9262307,1.0287696062698253,0.1895761946639765,0.9996841092456735,-0.1778585182335596,4.734528417488852,15.152807142258018,-20.26909423551291
1760597597.936229,1.0338441557488403,0.05341647046086251,0.9826314079435059,-0.1902825921491956,3.2137970526536166,31.490971318117666,-17.267907587948326
1760597597.946244,0.9671457579215548,-0.08897202511021873,0.9670204690750669,-0.19754150949024832,3.41930383403349,44.51437208131823,-16.844738568922757
1760597597.9562373,0.8031520758865073,-0.22454258943327957,0.9536718726322199,-0.20009105747272052,4.8845942407009835,53.2021762630506,-18.415748563144255
1760597597.9662368,0.5307967217883609,-0.3410132704713484,0.9428633090336546,-0.1990130731803559,7.122152288656407,56.95265502012659,-21.318492571161197
1760597597.9762685,0.15293296437254844,-0.42821337286219013,0.9345473647131641,-0.19564884940490754,9.693706655349482,55.62587361948132,-24.90741188376705
1760597597.9862874,-0.31575708432083033,-0.4791345758172594,0.9285330562080517,-0.1912425053676562,12.25737152595536,49.53596671025391,-28.626093534044603
1760597597.996515,-0.8519374307451004,-0.4905606018183246,0.9245963412389581,-0.18666674264023678,14.588643684027316,39.39443923369796,-32.050935048733415
1760597598.0073779,-1.4273635261055566,-0.46322722965094304,0.9225194030093841,-0.1822825753199456,16.57735362389014,26.21271448273308,-34.90679042271898
1760597598.01625,-2.0127048413039232,-0.401540133856568,0.922077309491827,-0.17795218037358404,18.206432817289446,11.177724643415162,-37.05943157293535
1760597598.026248,-2.5810106892198763,-0.3129369445782599,0.9229990816839668,-0.17318704559986284,19.52040835766414,-4.4822051259186715,-38.49196899827273
1760597598.0362349,-3.1104737758002434,-0.20701113186058395,0.9249323704824761,-0.16738320129652107,20.591799729235113,-19.623322332458923,-39.27289530098622
1760597598.0462372,-3.5862640663617924,-0.09451808008367406,0.9274371634035248,-0.16007983433744374,21.492322811091626,-33.28881700959456,-39.52253679025639
1760597598.0562522,-4.001343639983048,0.013632926929812834,0.9300243675084174,-0.15117845126166596,22.273488695566563,-44.77702878499135,-39.38291390052269
1760597598.0662944,-4.356306017771677,0.10732073166103168,0.9322411333497628,-0.14107416484869845,22.958395509132675,-53.67118926910299,-38.99385107423208
1760597598.0763836,-4.658386269316435,0.17802932228709817,0.9337891999438986,-0.1306745988119979,23.54381826199343,-59.83269074871228,-38.47616304839258
1760597598.086255,-4.91985254019678,0.2194950895310153,0.9346496614203379,-0.12130938518978622,24.00960449058585,-63.36491839520626,-37.92130175986766
1760597598.096236,-5.15602112372091,0.22814791375675247,0.9351813682923695,-0.11455622073059192,24.331226528053453,-64.55770487640429,-37.386176885024064
1760597598.1062374,-5.383143817168043,0.20331641818724674,0.9361620219806637,-0.1120213625629257,24.491235781625615,-63.823311973363644,-36.89186919769607
1760597598.1162684,-5.616401839408205,0.14717797119924841,0.938749546878696,-0.11511218940513142,24.486191691125303,-61.6338415770655,-36.425328400736944
1760597598.1263142,-5.86820673659426,0.06445038954386882,0.944354102943602,-0.12483161195308412,24.32711017061398,-58.46772674396874,-35.94354101027895
1760597598.1362548,-6.146959476199551,-0.03815623697815406,0.9544258560725256,-0.1416148420840051,24.033218692923064,-54.77010183037948,-35.37984069284012
1760597598.1462545,-6.456359955623938,-0.15268263955028155,0.9701789572420504,-0.16522142512546592,23.620464259435717,-50.92891935032967,-34.651948105300015
1760597598.1567023,-6.795293063479946,-0.27077763318791875,0.9922878748074934,-0.19468858011187376,23.08752786081992,-47.26600156844352,-33.67103155827509
1760597598.1662548,-7.158244545209887,-0.38454708144311234,1.0206069994065476,-0.22834411841933958,22.402834347677445,-44.03997183937846,-32.35068360287058
1760597598.1762354,-7.536126622074916,-0.48725042412422154,1.0539731164183066,-0.26387026975811906,21.496003983734663,-41.456341931706895,-30.614328751573417
1760597598.1862612,-7.9173362206262015,-0.5737317950198225,1.0901474179342265,-0.29840889050876357,20.25626978607841,-39.67914153583469,-28.399386416781436
1760597598.1962354,-8.28884567799303,-0.6405556225871765,1.1259400441835188,-0.32870640958385905,18.538757515075766,-38.8386475817055,-25.656763293501267
1760597598.2062457,-8.637143774450891,-0.6859072898010375,1.1575398272548618,-0.3513077082096049,16.177721399150727,-39.03120659751661,-22.345135915300236
1760597598.2162793,-8.948897536958398,-0.7093697682700124,1.1810435207544014,-0.36281150245734217,13.004542106422623,-40.30976639757633,-18.42094454197398
1760597598.2262633,-9.211278539855213,-0.7116795103888437,1.1931371594097417,-0.3601900803984798,8.86796031034322,-42.66707549509332,-13.826674260995457
1760597598.2362802,-9.411975453109044,-0.694515164936511,1.1918293771223796,-0.34115589193165097,3.654482658480277,-46.016694400623926,-8.481260837984472
1760597598.2462518,-9.538982887497225,-0.6603161243727517,1.1770877534125121,-0.304533354879343,-2.6924844954209743,-50.178893255372316,-2.276751972420119
1760597598.2563396,-9.580304071920184,-0.6120968287385521,1.151208625116824,-0.250574216550946,-10.15603591780069,-54.87832781473128,4.915592729840108
1760597598.2665954,-9.523724164778006,-0.5532266138425499,1.1187787423016051,-0.18114656817972835,-18.63329499914822,-59.75795401445687,13.228557001932687
1760597598.2763774,-9.356798605693445,-0.48717071434693054,1.0861661190361707,-0.09973700458769218,-27.929110045574323,-64.40965883099398,22.772821441129018
1760597598.2862773,-9.067158476239923,-0.41721622963942606,1.060586401064555,-0.011233326055528903,-37.75807186099438,-68.41777732427086,33.60497418662786
1760597598.29648,-8.643169908577457,-0.34622429054637466,1.0488945409908443,0.07850525521094114,-47.75654433746405,-71.40827581110223,45.69494705118611
1760597598.306241,-8.074909799686775,-0.27645326733590697,1.0563181644482473,0.16324445020597428,-57.505370512028804,-73.09476769265184,58.898949278920625
1760597598.3162751,-7.3553498642424096,-0.2094904196969224,1.0853672687690974,0.23706320471331324,-66.56238298374886,-73.31303971660843,72.943754953763
1760597598.326244,-6.481587378765466,-0.1463126391836479,1.1351324850085598,0.29504390526738233,-74.50182854151633,-72.03826367744175,87.4269990957547
1760597598.3362563,-5.455931716240572,-0.08746986725311853,1.201130804278543,0.33387128008937583,-80.95545614555539,-69.38292477214455,101.83603203275545
1760597598.3475256,-4.286655589488999,-0.03334848363448375,1.2757729682824446,0.35225485242268706,-85.64799499461462,-65.57760651779117,115.58498212555014
1760597598.3562431,-2.9882498371376363,0.015564878309731151,1.3494095060279094,0.3511044634707702,-88.41949786778727,-60.93972871978407,128.06633016793228
1760597598.3662462,-1.581076573018142,0.058518821258648726,1.41178153015903,0.33340657099407184,-89.2299539763172,-55.836058262967896,138.71023440267098
1760597598.3762343,-0.09039038877874993,0.09451756570752762,1.4536007253078678,0.30378263427494717,-88.14725815663118,-50.643514447674555,147.04293770215372
1760597598.3863018,1.4552164956308866,0.12255934745323693,1.467950909604909,0.2677782122213212,-85.32501192007389,-45.71109640087863,152.73545912703267
1760597598.3962593,3.0258014935022066,0.14204867948791156,1.4512510080999228,0.23101921863387745,-80.97833026208973,-41.32517207393368,155.63554759680704
1760597598.406293,4.592272819203343,0.15325911230590453,1.4036277012061409,0.1984242840618807,-75.3633500190619,-37.68082187508536,155.7790707735751
1760597598.4162874,6.128539890405791,0.15767273865113524,1.3286799770775846,0.1736323901436614,-68.76200686248553,-34.86240065086116,153.3806237218338
1760597598.426258,7.613342414389227,0.1580352548404286,1.232734480002466,0.1587092908112766,-61.47049269719968,-32.8363893608102,148.80613725361667
1760597598.4363995,9.031525705185462,0.15805065629948575,1.1237674032691043,0.1541025669955468,-53.788464886110354,-31.458875247478325,142.5321401644218
1760597598.4462574,10.374606823335325,0.16176300085210907,1.0102110259734287,0.15877843564209013,-46.00631775593536,-30.49838566524106,135.0971784017047
1760597598.4562652,11.640579834655156,0.17277761500760322,0.8998676991954352,0.17048920125326666,-38.389356743270035,-29.67213483873079,127.05102148548201
1760597598.4662554,12.83302022799789,0.19351983952175422,0.7991044551741785,0.1861449648755513,-31.16003735966293,-28.690598962481612,118.90687307866267
1760597598.4764936,13.959645532936968,0.22470740096471323,0.7124085692994218,0.20226872221777717,-24.48155625733281,-27.302858973997996,111.10095217419781
1760597598.4862807,15.030553499632788,0.26514515142986755,0.6422915620233232,0.21550161651943117,-18.44698247337069,-25.334321881332084,103.9627003414733
1760597598.4962351,16.05638687783861,0.31187549725289854,0.5894678891312364,0.2231004557585449,-13.07726507064069,-22.709724938993308,97.69767492160051
1760597598.5062451,17.04667000395998,0.36065539714081474,0.5532056767830715,0.22334065085610733,-8.329024122127894,-19.457655115804272,92.38395587399305
1760597598.5162668,18.008527767386237,0.40667420520723224,0.5317443878852173,0.21573253841362852,-4.110030572828947,-15.697296918933564,87.98158557941605
1760597598.5262666,18.94592806126662,0.4453716045850742,0.5226997744194347,0.20100276683664026,-0.2982983045717686,-11.61211952806918,84.35316470264534
1760597598.536268,19.859491374962047,0.4731859484045253,0.5234197969075175,0.18086482097065823,3.2391501030327174,-7.417221560263167,81.29237694768946
1760597598.5462925,20.746810580779158,0.4880868337251701,0.531287508486393,0.15765550674157794,6.629973578921111,-3.3267232445164607,78.55624737145253
1760597598.5562677,21.603148790396254,0.48981226860671057,0.5439694698792835,0.13392629833437647,9.982918840348974,0.4742111228624641,75.89671952413026
1760597598.5665193,22.422347607368806,0.4798052893880421,0.5595942364152934,0.11206469916124488,13.376495634855242,3.8502369911898944,73.08777108148938
1760597598.5762546,23.197779129161095,0.46090176967299407,0.5768412760788543,0.09399912146921922,16.84988891784661,6.728747636664703,69.9455451979845
1760597598.5862696,23.923201870803663,0.43685494753195175,0.594935738327834,0.08101711672622623,20.39682443856748,9.105065584949626,66.34047303993268
1760597598.5962553,24.593423048290322,0.4117954915114241,0.613566786301871,0.07370298542587694,23.963533940712733,11.040733468545085,62.20175216756784
1760597598.6062486,25.20471858465124,0.38972109278913886,0.6327612527129269,0.07198066303832541,27.451882168147204,12.65605832299247,57.51556335768801
1760597598.6162496,25.755009008418174,0.37408913189453075,0.6527455483981628,0.07523449410479467,30.728200151851777,14.118188363168876,52.31890763387963
1760597598.6262472,26.243826297725814,0.3675547249799905,0.6738213224779007,0.08247418124824439,33.637546846894686,15.625954600178918,46.69094714903839
1760597598.6362565,26.67212959756715,0.3718618259188384,0.6962687187506895,0.09250978775237699,36.02213189663432,17.392526862973323,40.743404130420004
1760597598.6462371,27.04203667243569,0.38786444899232286,0.7202780220764312,0.10410825284722704,37.74168421328385,19.626693208912748,34.611097637249294
1760597598.6562393,27.356534771343135,0.4156327608639729,0.745900074106055,0.11611453382797528,38.69292799345429,22.51340837201412,28.44319691868387
1760597598.6662376,27.619221129448327,0.45458640878210943,0.7730013131606629,0.1275351330644345,38.825280276997525,26.194296268853464,22.395313077075613
1760597598.6762464,27.834101816462763,0.5035965441331474,0.8012114215930115,0.13759241791088003,38.150473900785734,30.74903961410118,16.622190854138164
1760597598.6862679,28.005451252817526,0.5610108952749149,0.8298608021361186,0.14575925857931035,36.7448644771554,36.17890614768334,11.27050864677864
1760597598.696243,28.137708196320947,0.6245846561204708,0.8579201248481316,0.15177729977055213,34.74441608219191,42.39386343725017,6.4711361163402525
1760597598.7064822,28.23536438475688,0.6913413960668237,0.8839683571867073,0.15565646498669403,32.333524464780595,49.20474583750969,2.3302058557013403
1760597598.7162502,28.302797244814016,0.7574327290983363,0.9062210289240089,0.15765310310591607,29.72972522375887,56.32184642143447,-1.0813313153078008
1760597598.726306,28.34401225967912,0.8180979957777016,0.9226461481434864,0.158228040278637,27.166755080790455,63.36125746695308,-3.7393191913787835
1760597598.7363684,28.362290016267757,0.8678318739733895,0.9311871404131146,0.1579891064596181,24.87825836769335,69.86028236130457,-5.677890773265603
1760597598.746261,28.359767965406434,0.9008402257396166,0.9301013105446968,0.15762223539271425,23.083716226718458,75.30309310661579,-6.9986128575478945
1760597598.7562516,28.337017705716562,0.9118013828521203,0.9183985375101754,0.15781150662459076,21.977202774776305,79.15723588276472,-7.8744422056504915
1760597598.7662537,28.292698231980143,0.8968593830197202,0.8963210659668263,0.1591461467161579,21.718722793496433,80.9204258954081,-8.545709486560048
1760597598.7764695,28.22336889876658,0.8546728020974835,0.8657543012613528,0.1620172947139708,22.42744670481884,80.17535875830526,-9.306200461274594
1760597598.7862568,28.123528588511146,0.7872487572032326,0.8304291939083691,0.16651990153539653,24.176182444232722,76.64820564186684,-10.47895390571491
1760597598.7962646,27.985909187989908,0.7002464767966395,0.7957928246974989,0.17238730420887957,26.986741411295096,70.26440141969597,-12.383404032827963
1760597598.8062525,27.801999573881563,0.6025047328540285,0.768488811842725,0.17898634398193514,30.826219742982424,61.19379833249889,-15.297642922309022
1760597598.816319,27.56272692809388,0.5047632391042332,0.7554842858985894,0.18538526154951454,35.604436386575266,49.876852263841236,-19.42133980770553
1760597598.826261,27.25919241540109,0.41782276263376217,0.762971485266301,0.19048211617924007,41.1727614057121,37.02466515261172,-24.845498263955854
1760597598.8363173,26.883356867799712,0.3505671244841903,0.7952286904105812,0.1931611465352544,47.32437850658962,23.588375227284896,-31.534272650467905
1760597598.846293,26.428597100327032,0.30828033744813343,0.8536369757161291,0.19243875286182582,53.79588058198666,10.696969139226653,-39.32174006609978
1760597598.8562465,25.890095356031704,0.29158447680143484,0.936025897795182,0.18757076463123332,60.270343187175065,-0.43370824537079694,-47.92368139088734
1760597598.8663232,25.26506982108078,0.29617765179266853,1.0364793090999558,0.17811033936503506,66.38286203784334,-8.614649232644268,-56.96198105136588
1760597598.8762584,24.55288944196853,0.3134093497159951,1.145684019730971,0.16392196198479816,71.73074288072496,-12.811114397398114,-65.99779924691272
1760597598.8862653,23.755132160212444,0.3316084639972647,1.251850149501095,0.14516749824517225,75.89140466734831,-12.272230264072844,-74.56930957323958
1760597598.896261,22.87564047488101,0.3379818705729246,1.342163202693001,0.12228348053597772,78.45080546306984,-6.648650532472314,-82.23016698356393
1760597598.906239,21.920606271375693,0.3208229883667294,1.404633668511891,0.09595912124223213,79.043411436993,3.918184837402271,-88.58542572848538
1760597598.9162612,20.89868503414382,0.271704371788725,1.4300927726807506,0.06709709640564718,77.40160078049796,18.75293896876252,-93.32201656665735
1760597598.9263194,19.8211049966105,0.18728110990839314,1.4139687703333355,0.03671187216876918,73.40859139679236,36.665526960832175,-96.23115849626947
1760597598.936325,18.70170431274855,0.07032180226302297,1.3574183140069795,0.005738744389564241,67.14541165644607,56.04219254290727,-97.22063944335528
1760597598.9462593,17.55680126027879,-0.070352004888663,1.2674456245421253,-0.02519064796321341,58.92024565127053,75.00658857115012,-96.31630092947465
1760597598.9565375,16.404785794905198,-0.22115133307849935,1.1558544607940073,-0.05586937880413204,49.269010808658685,91.63432135502535,-93.6543037107681
1760597598.9662726,15.265335429702054,-0.3660498397369177,1.0372007892431538,-0.08641332619228217,38.92011311007875,104.19060569773568,-89.46765734277639
1760597598.9764936,14.158228335681153,-0.48943441473195926,0.9262198222605864,-0.11694168965218203,28.72337511302998,111.35180027050579,-84.0703182989211
1760597598.9862797,13.101851739751387,-0.5787567666611755,0.8353515395778516,-0.1471817020703736,19.551080595393113,112.3711766819288,-77.83946092376944
1760597598.996267,12.111641837309184,-0.6263455612996158,0.772925576570906,-0.17619190903097515,12.185636877857384,107.15901277518269,-71.19326945978827
1760597599.0062404,11.198774272889676,-0.6300587167510998,0.7423341926569714,-0.20234964530414115,7.212172208767933,96.26512998502376,-64.5607415338727
1760597599.0162525,10.369398652781145,-0.5928484993364519,0.7422248486216079,-0.22363842949681004,4.93500370311023,80.7728138378825,-58.34285932187193
1760597599.0262647,9.624573617559626,-0.5215967711632524,0.7674888632497453,-0.23815080921625306,5.334099395902926,62.1301151273383,-52.869660826892485
1760597599.0362587,8.960863918931885,-0.42566143514977556,0.8106819357886599,-0.24463501120498846,8.07130776259081,41.9533344233403,-48.36216684013721
1760597599.0462608,8.371389324907936,-0.31548062468202887,0.8635043171330293,-0.2428923001733544,12.54682756705211,21.836925065874397,-44.90908984974168
1760597599.0562384,7.847032175974361,-0.20140969612274492,0.918060572098025,-0.23388730618190498,17.995965097772284,3.1959595031775287,-42.46504671822854
1760597599.0662463,7.377532820360067,-0.09282616457585786,0.9677529396867492,-0.21954296745392066,23.607553287367676,-12.844604251560147,-40.871155999768526
1760597599.0762565,6.952299284819577,0.002519507992180344,1.007784643194556,-0.2023048819338731,28.641248270998748,-25.51121072232978,-39.89301342702095
1760597599.0864954,6.560878480442925,0.07892443661333219,1.0353282970976563,-0.18462683071419705,32.52248798852749,-34.399093581828424,-39.26717702864675
1760597599.0962508,6.193139809626273,0.1329263157681879,1.0494428084532788,-0.16852984766324217,34.90039025461687,-39.45502382412401,-38.746310893299515
1760597599.1062436,5.839289017269417,0.16327568449529614,1.0508144885732442,-0.15533655756979292,35.663086249414825,-40.934826795898886,-38.13480978233615
1760597599.1162434,5.489856864261864,0.17072077521264276,1.0413804350474904,-0.1456116945525237,34.91424964335781,-39.34350584616356,-37.31010733279866
1760597599.1262684,5.135795630806638,0.15766584834509653,1.0238844283825181,-0.13927664275717594,32.92152410366227,-35.36419738592463,-36.228678005190055
1760597599.13627,4.76877088013566,0.12777252338746567,1.0014194146486013,-0.1358282251895704,30.050816933078046,-29.781375709108943,-34.918843017372474
1760597599.1462345,4.381664698816928,0.08555656787089316,0.9770144296690638,-0.13458457632649495,26.700014125476788,-23.403715486070176,-33.46428462043351
1760597599.1562805,3.96922533285649,0.03600193773812506,0.9533161971009615,-0.1348959713574418,23.24263931056353,-16.992292875512323,-31.98266710024333
1760597599.16627,3.528730427178294,-0.015808399778940392,0.9323945433063952,-0.13628284168918714,19.987746050706203,-11.199797219353927,-30.603334269374255
1760597599.1762543,3.060501712285638,-0.06504622748353882,0.9156728703342951,-0.13848699139715434,17.1581123421076,-6.525740769880292,-29.447152545012504
1760597599.1863155,2.568129930415732,-0.10746359363567275,0.9039599179543298,-0.14144143921210206,14.885372913957077,-3.2911377595426363,-28.610550899970868
1760597599.1962807,2.0583303089302607,-0.13966446805402238,0.8975443078731249,-0.1451791329902115,13.218432140630632,-1.6339260959897726,-28.15489246474398
1760597599.2062993,1.5404253572957731,-0.15929651216414106,0.8963112412070484,-0.14971102407257464,12.140395554755221,-1.5239235217383946,-28.101573796858478
1760597599.2162595,1.025517667368622,-0.16514789128865445,0.8998487507077568,-0.154908737313377,11.589193622250285,-2.7937849954658307,-28.432643698658943
1760597599.2262962,0.5254574930216811,-0.15714844016257892,0.9075242898042496,-0.16042505748821295,11.477777668080178,-5.1806063439142696,-29.096189875225974
1760597599.236253,0.051727504361386706,-0.13628561646911985,0.9185268567045927,-0.16567613064420625,11.71091962702745,-8.371746911217596,-30.015250231167016
1760597599.2462425,-0.38563509005767804,-0.10445211072401947,0.9318825312538226,-0.16989408772274536,12.1969436514232,-12.048276315218748,-31.098639467462974
1760597599.2563078,-0.7789761685559946,-0.06424572331337755,0.9464602653276778,-0.17224136089521797,12.853939372694715,-15.920248741606327,-32.25193954748737
1760597599.2662473,-1.1237465400392093,-0.018744438623345506,0.9609883455149495,-0.1719627427647464,13.611024312091608,-19.749701097103166,-33.38703863778171
1760597599.27624,-1.418963123287396,0.028720481623526306,0.9740995145933569,-0.16854199950635257,14.405970021430422,-23.35960115361864,-34.42898989963735
1760597599.2862587,-1.667391877525087,0.07477430486980068,0.9844153666370762,-0.1618288173090574,15.180950080488282,-26.62953017002123,-35.319512924009736
1760597599.2962651,-1.8754552254797665,0.11617928087275414,0.9906707105503983,-0.15210932203140168,15.878292564424083,-29.481222506939986,-36.01708075975994
1760597599.3062298,-2.05287972718168,0.14998168505712436,0.9918688260323397,-0.14010753597693593,16.43792279560261,-31.85878819227324,-36.49413347907858
1760597599.3162944,-2.2121067219278716,0.1736292016885436,0.9874506971856942,-0.12692202931318877,16.797678895535768,-33.709187153132085,-36.73243762217279
1760597599.3262658,-2.3674916258176535,0.1850677581296971,0.9774555831705478,-0.11391629064908611,16.896923738171942,-34.968148530749396,-36.71787687716151
1760597599.3363924,-2.534319724917799,0.18282754157087427,0.9626460376505306,-0.10258785294133614,16.68298384992236,-35.55530697177801,-36.435961148913755
1760597599.3462605,-2.727671388143712,0.16610297302809063,0.9445677781990176,-0.09443791928639586,16.119116001088713,-35.38015993586357,-35.86908912627232
1760597599.356245,-2.96118120286201,0.13482257375452503,0.9255152685982532,-0.09085283356709349,15.192143189682419,-34.35800667707864,-34.9961544326937
1760597599.3663156,-3.245757009133619,0.08969529550264167,0.9083806862892554,-0.0929971280034899,13.917741326273623,-32.43284123592278,-33.79454221257101
1760597599.3762736,-3.5883574163199077,0.032213958761666744,0.8963797599037379,-0.10171081279019396,12.341620317316474,-29.602683526676323,-32.244043839295685
1760597599.3863664,-3.9909641925131796,-0.03540238938484619,0.892671172125896,-0.11740433373644203,10.535490686812667,-25.94228567648881,-30.33184091646736
1760597599.396487,-4.449913730679534,-0.11033540397392062,0.8999104960038435,-0.13995290148210732,8.587667785499507,-21.618553267135432,-28.057532122190917
1760597599.4062588,-4.955750543305575,-0.1893551949376197,0.9197983644014944,-0.16860371127437324,6.589312595398069,-16.89520109243238,-25.437170263238706
1760597599.4162505,-5.493720859270236,-0.2690430629065608,0.952692321215475,-0.20191943357918335,4.618419226159039,-12.12482740111789,-22.505366965360622
1760597599.4262419,-6.044931377583789,-0.3460115475794029,0.9973516694326934,-0.23778536071295375,2.724420826843567,-7.728368481468018,-19.314636358352207
1760597599.436297,-6.588067227928139,-0.4170816207099474,1.0508749209806876,-0.2735040984500778,0.9164019302957701,-4.163445720552195,-15.931280862201664
1760597599.44627,-7.101424664958958,-0.47938701649346044,1.1088708505988016,-0.3059900830017606,-0.842717394077915,-1.8842816639712892,-12.427392324390528
1760597599.4562838,-7.564915147887702,-0.5304003548468029,1.1658763427677834,-0.33205721538894095,-2.6348288308768746,-1.2966947879098436,-8.869141797496402
1760597599.4662812,-7.961680995153986,-0.5679076805996752,1.2159958034215106,-0.34877015741375095,-4.578267037431145,-2.712321824588541,-5.302521490269902
1760597599.476265,-8.279043380089329,-0.5899819348586031,1.2536888135990338,-0.35380944034441325,-6.813762340257355,-6.306745541015862,-1.7388628028489295
1760597599.4862702,-8.508661205027593,-0.5950117318847862,1.2745837329133847,-0.3457887464954098,-9.486861781397614,-12.086597981683969,1.856623767780626
1760597599.4962642,-8.645969391687183,-0.5818304045882703,1.276164338648202,-0.3244640699554711,-12.72931434990806,-19.87078947614603,5.5697409720424895
1760597599.5062554,-8.689131865587147,-0.5499631617050103,1.2581855860765205,-0.29079064854852993,-16.641787480161966,-29.290434680844402,9.532656753375084
1760597599.5162523,-8.63784019140488,-0.4999658613179095,1.2227284507656646,-0.24681237987986254,-21.27971828986423,-39.810415475215514,13.908273400376856
1760597599.526255,-8.492290348582065,-0.43377313328057443,1.1738833013574812,-0.19540375477927938,-26.643294024481527,-50.77273423337857,18.864486586262046
1760597599.5362594,-8.252584248698893,-0.3549265440186783,1.1171268582124365,-0.1399169662225347,-32.67187096264217,-61.45829396214526,24.541842128999498
1760597599.54627,-7.918658848900569,-0.26854279232625333,1.0585102154797046,-0.08380590249700148,-39.24290598936448,-71.16027296030109,31.02037935751039
1760597599.5562823,-7.49068667279157,-0.18092716474981435,1.0038002550985043,-0.030295924821927795,-46.17561769501339,-79.25965157993635,38.29260154155871
1760597599.5662918,-6.969763070780024,-0.09883545255500452,0.9577163218619178,0.017856914525950264,-53.23961498658576,-85.29238626368038,46.24888077313489
1760597599.5763772,-6.358633800596834,-0.02850719011135729,0.923380723822816,0.05851409010613849,-60.16820982104905,-88.99859942509217,54.67909999114085
1760597599.5862823,-5.6622335692468395,0.025314254592352495,0.9020587977217985,0.09024689611688483,-66.67524765721163,-90.34679663912313,63.29072474296545
1760597599.5963023,-4.887884541725055,0.060136730790999196,0.8932087957386191,0.1124201698689904,-72.47365294758538,-89.52987256180074,71.74002719735955
1760597599.6063066,-4.045107503675229,0.07607020651386387,0.8948040168458701,0.12527717412140307,-77.2938458690413,-86.93373314399436,79.67083728139502
1760597599.6162896,-3.1450930590489405,0.07570417218326178,0.9038412029247279,0.1299755979310248,-80.90057605186557,-83.08309554668888,86.75432019278894
1760597599.6263196,-2.199945508240458,0.06355798893615357,0.9169211078884036,0.1285001267099448,-83.10722897854605,-78.57198740788706,92.72371923960017
1760597599.6366377,-1.2218404126705658,0.04524329506523911,0.9307863549469545,0.12341380319329699,-83.78710394196263,-73.98836600552275,97.39936077909753
1760597599.6462452,-0.2222296653174724,0.02653340084099647,0.9427279852680227,0.1174796642769366,-82.8814306330346,-69.84286964370607,100.70111492704088
1760597599.6562994,0.788805748240182,0.012538990561833826,0.9508154355634193,0.11323829012222017,-80.40392179547298,-66.51084267533183,102.64770089872977
1760597599.6664274,1.8029996549302776,0.007134647601473753,0.9539491189421437,0.11263762674486986,-76.44146386476544,-64.19460199322354,103.34443472862137
1760597599.6764388,2.814124636877924,0.012686339032167794,0.9517687075943453,0.11678289454432074,-71.15028930867206,-62.909902999854864,102.96274302375075
1760597599.686282,3.818004322309889,0.03004072612127324,0.9444706618207968,0.12583401196942065,-64.74703276301479,-62.49719737065726,101.7155460425564
1760597599.6962526,4.8123362096103515,0.0586911657514413,0.9325955344909993,0.13904927729227487,-57.49476154274534,-62.654946296013044,99.83238553924987
1760597599.7062447,5.796357510256294,0.09703608478543177,0.9168384980687282,0.1549580725708097,-49.685182179574674,-62.98939447435604,97.53727104539367
1760597599.7162502,6.770396678210132,0.14267040400213526,0.8979177443111471,0.1716317148089644,-41.61912634859297,-63.073260303341016,95.0310817050223
1760597599.7262528,7.735362830127742,0.19267925065519068,0.8765118783850472,0.18700722064736822,-33.58764014067152,-62.505027036952995,92.47932612123749
1760597599.7362661,8.692232676234267,0.243925176423162,0.8532562202287564,0.1992088698316261,-25.855529230591294,-60.960983494378986,90.0052984981457
1760597599.7462714,9.6415966979386,0.293327983775544,0.8287727774829944,0.20681297482753733,-18.648358200047024,-58.23373025590505,87.68817111278402
1760597599.7562866,10.583318476949271,0.33812796479742446,0.8037024262173202,0.209015079641429,-12.143081345688541,-54.25321780613192,85.56522684644776
1760597599.7662616,11.516341572254083,0.37610915765944175,0.7787137988113717,0.20568241587503058,-6.462031497032654,-49.089055102327414,83.63718698945002
1760597599.7763202,12.438650986101134,0.40575354215457765,0.7544801954878235,0.19729834520178838,-1.6699717058835108,-42.93538191902872,81.8754432933545
1760597599.7863972,13.347368541509468,0.42630550115703286,0.7316343902683767,0.18482339913980575,2.225928759106789,-36.08179189376571,80.2300059458999
1760597599.7962854,14.23894188899331,0.4377446907990489,0.7107206848187788,0.16951060560555514,5.273294806656561,-28.87551691062627,78.6371329152401
1760597599.8062866,15.109381466767678,0.4406862569202843,0.6921605275108584,0.1527197313895214,7.569138069236023,-21.681080263492937,77.02586323110633
1760597599.8162675,15.954507469970569,0.43623955762804567,0.6762386460829585,0.13576750966005877,9.252109566059666,-14.843464730820891,75.32299206276964
1760597599.8263152,16.770181711594887,0.4258551778524115,0.6631098598422946,0.11982819738850281,10.492527159544053,-8.659373671993007,73.45637713764081
1760597599.8363338,17.55250952381549,0.41118069024923054,0.6528250557384846,0.10587570783290445,11.480095094128774,-3.3588598798831057,71.35681415083107
1760597599.846287,18.298002525363977,0.3939367780605336,0.6453738384941038,0.09464921712158354,12.409295087449012,0.9027268499590517,68.95898739581803
1760597599.8562772,19.003696035324904,0.37581995393707573,0.6407377224727231,0.08662812723200164,13.462864748551672,4.044225377653949,66.20212975415069
1760597599.8663065,19.66721731308283,0.3584353049083297,0.638943286838159,0.08201079764324444,14.794429010196914,6.052193225872094,63.03100905819305
1760597599.8762817,20.28680381045559,0.34326092888817183,0.6401021997508929,0.08069844650870558,16.511943648196187,6.971241891450222,59.39772740012421
1760597599.8862834,20.861274581322917,0.33164296540063193,0.6444239778333254,0.0822901070043136,18.663926497367125,6.893660944859474,55.26460461279124
1760597599.8962607,21.389962595928065,0.3248149494109864,0.6521876940701484,0.08609681775095275,21.230389437271224,5.950315632912935,50.60814063385381
1760597599.9063044,21.872619803218026,0.32392815441310796,0.6636647570976525,0.09118203160192873,24.119974270677677,4.304125393557021,45.42375119121593
1760597599.916281,22.309308838111743,0.33007259207037676,0.6789988465749754,0.0964299794794922,27.17416811114539,2.1465484463473463,39.73068741215969
1760597599.9262736,22.70029497651767,0.3442644629259683,0.6980644054050889,0.10063787448556386,30.178778621657624,-0.3035449954656524,33.576313182112706
1760597599.9362767,23.045950695771612,0.3673786101975143,0.7203327882606575,0.10262570241989928,32.882191200955255,-2.8002671869697404,27.0387577247497
1760597599.946283,23.34668360203952,0.40001505408575483,0.7447766616575614,0.10135794123500899,35.01935431223636,-5.072820420094383,20.226915643786413
1760597599.9562852,23.602894279052745,0.44230437262655115,0.7698460537238587,0.09606996572160005,36.33994007591428,-6.832038735616618,13.27686213052235
1760597599.966297,23.814960612454428,0.4936739871816648,0.7935519490733284,0.08638608202215493,36.63866717629047,-7.783649511890283,6.344054088234533
1760597599.9762723,23.98322861674988,0.5526141003874896,0.8136852749635671,0.07240858191687279,35.785329142157906,-7.649358000892615,-0.40872436662264494
1760597599.98633,24.107970201691582,0.6164959939839043,0.8281765192627393,0.05475311891779811,33.75165996759291,-6.195082712877303,-6.826879720704168
1760597599.9962986,24.18925569563552,0.6815044884095525,0.8355694127429115,0.03451227706643575,30.631813635503967,-3.263587111538349,-12.78133000354933
1760597600.0062551,24.226700827661134,0.7427495226427859,0.8355458468462741,0.01314992604036616,26.652973166639676,1.193291567907998,-18.185321172762308
1760597600.0162437,24.219097176223165,0.7946130766410163,0.8294024720331284,-0.007644787941925542,22.17259182947137,7.0892316766873735,-23.008128958378414
1760597600.02628,24.164008534085546,0.8313507504109985,0.8203527260609412,-0.02610211669956068,17.65931378330041,14.191986970337625,-27.283081403037556
1760597600.036286,24.05747260200999,0.8478913637120685,0.813523793621276,-0.040488775497665,13.656069702297117,22.132435243619902,-31.10772691990723
1760597600.0464063,23.893949703971316,0.8406844641048725,0.8155461084402802,-0.04920905885012196,10.726368224106661,30.438173776492675,-34.634743266193375
1760597600.0567381,23.66660053404566,0.8083860283104952,0.8337049925772588,-0.050932998432614514,9.38819969213567,38.59119090990795,-38.05340653411689
1760597600.0663216,23.367879323370317,0.7521867880040678,0.8747356729139739,-0.04478783306045843,10.043514737786644,46.1029161650336,-41.56315644185167
1760597600.076273,22.990338920785852,0.6756697022110678,0.9434495600942642,-0.030599210337057602,12.91381525903692,52.59349068092162,-45.34281063031199
1760597600.086288,22.527492382176487,0.5841941941679787,1.041427848367122,-0.00910480105552459,17.99293094678177,57.85783035603192,-49.52071829961505
1760597600.0964618,21.974569925299726,0.48391139815791495,1.1660077950330512,0.01796965399326738,25.02608159900919,61.90120490967988,-54.15178671744098
1760597600.1062844,21.32904413248186,0.38060868267197284,1.30976490741768,0.048053085162121346,33.52023663106405,64.9323200886576,-59.206217363144646
1760597600.1162817,20.590864537844826,0.2786603960180817,1.4606858608112063,0.07809024186414393,42.78570720458498,67.31105027530404,-64.57193169325846
1760597600.1262598,19.762435688478693,0.1803910371045923,1.6031963717811106,0.105031085756747,52.00425958004536,69.4585544453831,-70.06890473937399
1760597600.136312,18.848462777370422,0.08608254710129142,1.7200963785122807,0.1263074031204011,60.315835098431336,71.74680437408729,-75.47046963235414
1760597600.1463158,17.8558353305324,-0.005329322865994295,1.795242856948635,0.14016129975884,66.91424293270636,74.39045622459935,-80.5255115897273
