timestamp,angle,linear_acceleration_x,linear_acceleration_y,linear_acceleration_z,angular_velocity_x,angular_velocity_y,angular_velocity_z
1761286336.4376655,-8.735302107192615,-0.13722551961571208,0.8799984408645708,-0.24297196862054235,8.87393281070329,11.314836520217476,35.897897114263095
1761286336.4476283,-8.379786140161833,-0.12588547640436606,0.8849729918536752,-0.23317400281367434,8.219690381178516,10.337341373782285,33.91402408762086
1761286336.4576845,-8.041347690877389,-0.1135872663886889,0.8934483480908036,-0.22494366422526113,7.68339169281954,9.514847894653332,31.81114971578361
1761286336.4677162,-7.716362340322061,-0.10108106324195915,0.904255489370245,-0.21870924019354493,7.24276662634188,8.85261404914081,29.68190439044831
1761286336.4776313,-7.400904044889948,-0.08887836318438505,0.916208602474734,-0.2147723723037986,6.874027774038181,8.324368800397872,27.619697434231977
1761286336.4876277,-7.09099273746256,-0.07727844518068148,0.9282216046648396,-0.2132892757869552,6.554267636247375,7.886881830927228,25.712333384066266
1761286336.4976382,-6.782813624812192,-0.06640848273979061,0.9393920987093488,-0.21426263761376746,6.262577953638966,7.493682354243762,24.035738910496303
1761286336.507622,-6.472904653211748,-0.05627081871705516,0.9490485255492485,-0.2175468660195318,5.980210094569975,7.106376808033244,22.64841874448614
1761286336.5176263,-6.158313900137427,-0.04679216688229994,0.9567639971384325,-0.22286752054369063,5.690225444283781,6.702585555921661,21.587239742770226
1761286336.5279372,-5.8367329363664675,-0.037871591938151386,0.9623449967616708,-0.22985282074034688,5.3770752771653525,6.280024732277228,20.865060818407756
1761286336.537622,-5.506613907210444,-0.02942505789174119,0.965803866621895,-0.23807243646205198,5.0264442213694664,5.856708996433651,20.47055782061876
1761286336.5476475,-5.16727645135938,-0.021424174507529693,0.967322196363177,-0.24707754940640256,4.625536375801582,5.467675195626853,20.37032669088583
1761286336.5576537,-4.81900752000351,-0.013926999061907844,0.9672098091812688,-0.25643677576261614,4.163820699885604,5.159026957600265,20.513017284582748
1761286336.5677195,-4.4631543325701495,-0.007099451126883906,0.9658620725387246,-0.26576427920025775,3.6341164428257167,4.98041276133244,20.834937427704762
1761286336.578348,-4.102206371786097,-0.001225563730361598,0.9637171165147859,-0.27473816932227885,3.0338098727476854,4.977179150130436,21.26636681997308
1761286336.587804,-3.7398531485566746,0.003297125657053988,0.9612141179174707,-0.28310836799354644,2.365952519854761,5.183342198099922,21.737787211768502
1761286336.597659,-3.3809909234548425,0.00598224995929269,0.9587536179879924,-0.2906937241611173,1.6399860048007326,5.616244032925603,22.185361691348223
1761286336.6077104,-3.0316401332021847,0.006302961843193747,0.9566607514611662,-0.29736896569121407,0.8718587229384345,6.273408873658521,22.55522300539414
1761286336.617664,-2.6987339063741578,0.0037626385804411244,0.955152732139734,-0.3030434726537146,0.08335594726401194,7.1317720862838225,22.806374193839755
1761286336.6279361,-2.3897503766395234,-0.0020193005745807293,0.9543130894738545,-0.30763566086400507,-0.6994192807643587,8.149172685457717,22.912191003286136
1761286336.6384594,-2.1121857510950237,-0.011218409036173736,0.954076268168942,-0.31104854131594706,-1.4483036538312295,9.267790887673172,22.860612159585802
1761286336.6477928,-1.8728960738362,-0.023727481488868975,0.9542265423796901,-0.3131530750082012,-2.13577780250809,10.419078294956703,22.653127527851026
1761286336.6576343,-1.6773660383043103,-0.03910411658990382,0.954414684305826,-0.31378541710414015,-2.7377086659745498,11.529655460009893,22.302677941782626
1761286336.667683,-1.5289857113489869,-0.05655426577179188,0.954194660005942,-0.31276179365253515,-3.235711561128987,12.527619209368927,21.83062254693986
1761286336.6776302,-1.428426724327379,-0.07495744257404667,0.953080630234145,-0.30991128497340664,-3.618807071512442,13.34870471695306,21.26303886751701
1761286336.6878772,-1.3732085206613154,-0.09293433638441502,0.9506212934053281,-0.30512312769305144,-3.8842112598668126,13.941796481502454,20.626775140043698
1761286336.6976495,-1.357533301396432,-0.10895301254998527,0.9464842558434952,-0.29840181791128284,-4.037280006334724,14.273372665788822,19.945807882851813
1761286336.7076347,-1.3724445077402743,-0.12146487828940693,0.9405388906874268,-0.2899205183339439,-4.09077037462333,14.330562654449283,19.23849302176157
1761286336.7179723,-1.406328227943926,-0.12905637726058977,0.932923835332364,-0.2800611116126188,-4.0636389410218445,14.122567064208445,18.516186786896945
1761286336.7276702,-1.4457334930659351,-0.13059838498642914,0.9240860128381075,-0.26942790768077923,-3.979562690413897,13.680239660072063,17.783458194981762
1761286336.737647,-1.476442231676793,-0.1253737578968836,0.9147817843810867,-0.2588225420681523,-3.865277492000557,13.053698852029346,17.039776602735003
1761286336.7476408,-1.4846804621454346,-0.11316533375984952,0.9060365949612934,-0.2491718953107089,-3.7487409371945435,12.307962913493899,16.282222672853297
1761286336.757665,-1.4583379848090268,-0.09429248391577315,0.8990659403981756,-0.24141020357013687,-3.6571010462173175,11.5168111346925,15.50852773602113
1761286336.767657,-1.3880604970188115,-0.0695928744214131,0.8951663234713927,-0.23632977456027668,-3.614529859697461,10.755357809902403,14.71966132159675
1761286336.7777774,-1.2680939479705549,-0.040353934111265505,0.8955888427142144,-0.234427681765954,-3.640146657424712,10.09214078081765,13.921283120942576
1761286336.788063,-1.0967884715064125,-0.008203031671226138,0.9014092784357274,-0.23578256859142602,-3.7464189734903135,9.581778684787036,13.123628303865116
1761286336.7976537,-0.8767041216087443,0.02503200903229674,0.9134070477331045,-0.23999236762356815,-3.9384686308428147,9.259334124730058,12.339743243697987
1761286336.8092182,-0.6143059996328653,0.05747637689450437,0.9319622230723441,-0.24619180661838763,-4.214568015837882,9.13736096196473,11.582358696678947
1761286336.8176355,-0.3192938686984072,0.08735516201547217,0.9569763809314947,-0.25315270301647746,-4.567838160991268,9.206190876093267,10.860009648587885
1761286336.8278525,-0.0036700263213083686,0.1131127592296474,0.9878211693390153,-0.2594531403496668,-4.988850270138885,9.4373652490967,10.173227832111829
1761286336.8376713,0.319312722828197,0.13349230779823512,1.0233198212356764,-0.26368525962800576,-5.468568314484381,9.78938497918269,9.511697877914228
1761286336.8478482,0.6361810567036067,0.14757741239006403,1.0617705659951404,-0.2646600098858998,-6.000928944057685,10.214381830350982,8.853144515390138
1761286336.8576393,0.9341437111944737,0.1548111605265884,1.1010230595641697,-0.26156683534369785,-6.584406674268628,10.664151932843474,8.16439878868166
1761286336.8677735,1.2018141993322211,0.15501025380513686,1.1386158814353322,-0.2540586389352853,-7.222169098015615,11.094325582530152,7.404628614787295
1761286336.877633,1.429745218059798,0.14838302725301886,1.1719740146368574,-0.2422525576657109,-7.920812453936237,11.46617187281225,6.530225419105654
1761286336.8876555,1.6107872504306255,0.13554496750978895,1.1986515252266372,-0.2266573071077168,-8.6880559125261,11.746396751603923,5.500446715393083
1761286336.8976445,1.740284454708156,0.11751321824744365,1.2165897050762005,-0.20805215806101265,-9.53004881943163,11.905970780005942,4.282732382048769
1761286336.9078212,1.816113031325201,0.09565904538558691,1.2243499522137598,-0.18734860006079765,-10.449044631153631,11.919261643728445,2.856689686952327
1761286336.9176302,1.838561835399681,0.07160581562077867,1.2212793593173292,-0.16546339350285677,-11.442110528535524,11.764470498756813,1.2160523164489674
1761286336.9277065,1.8100578222530186,0.047076993162775915,1.2075785203727392,-0.14322263563661777,-12.50130443584678,11.425710432486124,-0.6316306705288198
1761286336.93766,1.734750871983669,0.023717579161269476,1.184262769578959,-0.12130447287472977,-13.615412552447104,10.896282466455574,-2.667348790594444
1761286336.9476638,1.6179902170363185,0.002924379522928941,1.1530313919915094,-0.100218054259372,-14.772963964967813,10.182094318532735,-4.864415803955136
1761286336.957652,1.4657412631144824,-0.0142811404484009,1.1160751421732504,-0.08031115109782212,-15.96590067673674,9.303953739441738,-7.192853802498732
1761286336.9679365,1.284000421990739,-0.027317604053594836,1.0758567459694726,-0.06179797583684419,-17.193056311569514,8.29771129783527,-9.623507781378265
1761286336.9776502,1.0782647730129276,-0.03604400321373206,1.0348939632393943,-0.044799629262431966,-18.46253370749951,7.2117991477901455,-12.131150206139425
1761286336.9877007,0.8531057358686245,-0.040706703820095315,0.9955652457427133,-0.02939059770916451,-19.792186937811618,6.102379212078932,-14.696082247827222
1761286336.997665,0.6118840725021581,-0.041851059618931034,0.9599488373812951,-0.01564537029016215,-21.20769777830591,5.026861033821703,-17.3040678859916
1761286337.0076807,0.35662718628866086,-0.04021783076875831,0.9296998048690279,-0.0036788857162508514,-22.738154455198003,4.036860209037308,-19.944788728092043
1761286337.0176563,0.08806878956944228,-0.03664397632479614,0.9059661961893674,0.006327217199677589,-24.409526655155062,3.1717329905371825,-22.609288566502446
1761286337.0276678,-0.194170904761688,-0.03198336411122376,0.8893447781884941,0.014121655143690551,-26.236897866922472,2.4536861903511964,-25.287015275642418
1761286337.0376189,-0.4913033432644584,-0.02705543920813804,0.8798774756332182,0.019410138316956614,-28.21666791520713,1.8851660561848957,-27.963058335097006
1761286337.0476632,-0.8050346687202263,-0.022620527656274474,0.8770898015706403,0.021910499916252112,-30.320089243448027,1.44881104542527,-30.616066849199704
1761286337.0576472,-1.137217601559022,-0.019371870939306538,0.8800705898821524,0.021426454252475118,-32.48939919961887,1.1097830417869203,-33.21716780022729
1761286337.067696,-1.4895260439963218,-0.01792928520210132,0.8875878335542565,0.01792404516691275,-34.63746155785922,0.8198909414024016,-35.73003658801917
1761286337.0776386,-1.8631732835051287,-0.018819321023178393,0.8982294948529035,0.01159369166060557,-36.651293932280886,0.5227126647950827,-38.11213762498978
1761286337.0876727,-2.258683350538623,-0.022432443810802463,0.9105529969694722,0.0028840338510932565,-38.39923776228549,0.1589661221472808,-40.31704942519951
1761286337.0976532,-2.6757183898717223,-0.028957881723468897,0.9232247583863218,-0.007500714306448084,-39.74096081646469,-0.3283660484955266,-42.29768458711971
1761286337.10768,-3.112963493109472,-0.03830869800817383,0.9351323697658946,-0.01864236438113275,-40.53910006777811,-0.9893275691148398,-44.01008960695659
1761286337.1176615,-3.5680730771672207,-0.0500599467525921,0.9454567254398302,-0.02948568989772339,-40.67122214395164,-1.8626407291957945,-45.41737346563013
1761286337.1276731,-4.037687407498817,-0.06342827886123108,0.953698947704705,-0.0389404645247655,-40.040885392691344,-2.9716584130887167,-46.49321472330435
1761286337.1376681,-4.517531716266336,-0.0773189707359808,0.9596653497610795,-0.04599273445873321,-38.586860999717246,-4.320762082721136,-47.224404102194946
1761286337.1476452,-5.002610507987532,-0.09045328687773439,0.9634200102398948,-0.04980773051893328,-36.289896034952974,-5.892645777260976,-47.612033570774926
1761286337.1578696,-5.487502959465973,-0.10156610051459256,0.9652171240240061,-0.049810546725344,-33.17665223779551,-7.647128120902376,-47.67121387803039
1761286337.1676874,-5.96675047533626,-0.10963795092716896,0.9654252463444201,-0.04573809087278444,-29.32056730358199,-9.522132972237737,-47.42950287084124
1761286337.1776476,-6.435306573992733,-0.11410793588580571,0.9644548548562049,-0.03766244782955937,-24.839414262333637,-11.43728364745148,-46.92445168464647
1761286337.1876917,-6.888997598470748,-0.1150119142674505,0.9626994336182295,-0.02598812917079253,-19.88942294611788,-13.300223925508295,-46.2007485761523
1761286337.19763,-7.3249269835877,-0.11300598736237576,0.9604968364244488,-0.011424338107450178,-14.65609329728931,-15.01533918290192,-45.30735487014811
1761286337.2076695,-7.741752379698338,-0.10926345346927402,0.9581115263594185,0.005068003777841757,-9.342238896622256,-16.49403309041389,-44.2948519421257
1761286337.2176363,-8.139777757359283,-0.10526508843699124,0.9557320174631193,0.02235395630186241,-4.154187110801844,-17.665221526534726,-43.21304910695279
1761286337.2276595,-8.520830685537303,-0.1025274875429761,0.9534750374648919,0.03922407025146859,0.7126957929662419,-18.484392093200757,-42.108810207353024
1761286337.2376578,-8.8879320142367,-0.10232605926358596,0.9513898916903635,0.05450920947142576,5.087896883354063,-18.93957835332109,-41.024056355786634
1761286337.24766,-9.24480233547448,-0.1054674615558042,0.9494615920513836,0.06719918799912004,8.837828521323054,-19.052965762464627,-39.9939628938603
1761286337.2576551,-9.595278729097824,-0.11215338263678123,0.9476161809667225,0.07654876661343868,11.87494659349351,-18.87752797602752,-39.04544666002447
1761286337.2676697,-9.942731255030544,-0.12195745932305997,0.9457331509639084,0.08215301838608141,14.162981856029125,-18.488939927408026,-38.19610015673548
1761286337.2776847,-10.289570057464012,-0.13391508528478266,0.9436670916360607,0.08397825618092253,15.717681926983458,-17.9738427886996,-37.453749517016774
1761286337.2878852,-10.636922068666372,-0.14670690898250113,0.9412758564894589,0.08234372831665583,16.602916922222377,-17.416191481139535,-36.81678269672824
1761286337.2976465,-10.984532697948868,-0.1589028687693124,0.9384489946805084,0.07785951724551114,16.92250647552326,-16.883803137177605,-36.27531259208028
1761286337.307679,-11.330913997335434,-0.16922441443495978,0.9351299672629836,0.07133318720449919,16.80859076494613,-16.417284915702318,-35.813116870347834
1761286337.3177001,-11.673720141945562,-0.1767790281690998,0.9313280042237029,0.06365970200235167,16.407740472518764,-16.023198704756464,-35.41015702511982
1761286337.3276715,-12.010290775799378,-0.1812254584495124,0.9271177056601927,0.05570788487558541,15.866252609740958,-15.672607744184152,-35.04535951385107
1761286337.337699,-12.338271849134069,-0.18284080444408904,0.9226253106529568,0.04821541214886346,15.316182760794518,-15.305153001540337,-34.69927657699581
1761286337.3476782,-12.656209313009942,-0.18247928534108976,0.9180012880269172,0.041703788037971284,14.863590455981859,-14.837766450791715,-34.35625317868166
1761286337.3577263,-12.964016638024674,-0.18143309171802147,0.9133809077869329,0.036423440560162265,14.58021640069445,-14.17633807400702,-34.0058040921575
1761286337.367709,-13.263241325750945,-0.18122408970694412,0.9088371377534445,0.032335760521810704,14.499405442271215,-13.228335776839298,-33.643024147779066
1761286337.37769,-13.557092752165538,-0.18336732836575304,0.9043324710190649,0.029133830108568102,14.616607156769627,-11.91459012958928,-33.26798093277668
1761286337.3876867,-13.850234402359813,-0.18914977423541265,0.8996780376059343,0.02629810387791199,14.894293487196888,-10.17906732044998,-32.88414636915424
1761286337.3977036,-14.148377850637562,-0.19946015290938313,0.8945099476486286,0.023178713991166215,15.27067467028998,-7.996192820416787,-32.49600055531395
1761286337.4077272,-14.457737633514913,-0.21469214882515575,0.8882938231249858,0.019092968930679396,15.671202617568646,-5.375858970815326,-32.10599346763352
1761286337.418053,-14.78441469187374,-0.23472841144059947,0.8803674146298964,0.01342520360900051,16.021554926522303,-2.366469880988109,-31.71109678529672
1761286337.428099,-15.133773860230619,-0.2589995011210614,0.8700265729731717,0.005716313712036585,16.26061373498998,0.943744650659293,-31.299245541676616
1761286337.439179,-15.509871243919552,-0.28660059956389816,0.8566515457599402,-0.004268546879206046,16.35189710343741,4.427219066708092,-30.846073756666105
1761286337.4482172,-15.914972969218107,-0.31643954785600437,0.8398603528554976,-0.0165037986404338,16.291974601373198,7.919709324737018,-30.312472227467136
1761286337.4576995,-16.34919014184125,-0.34738367176513063,0.8196668310696609,-0.030704911036260323,16.11463298290535,11.225618679809978,-29.64358219419396
1761286337.4683704,-16.81023887733071,-0.37837238009872676,0.7966158520928891,-0.04636694336124371,15.889981228509594,14.126427821823384,-28.76981295673112
1761286337.4776952,-17.293322547307422,-0.40846980093201074,0.7718691739605243,-0.06283062776035223,15.718279936881913,16.392420393338064,-27.610288428335604
1761286337.487703,-17.79112964251561,-0.4368466498561082,0.7472224878463268,-0.0793588323146659,15.718976503183871,17.797549091712433,-26.078792462924465
1761286337.497724,-18.29394724711897,-0.462700196563424,0.7250451466761916,-0.09520397217675342,16.016127099625365,18.13693608192354,-24.091858075417655
1761286337.5077007,-18.78990442316532,-0.485140173823996,0.7081443516046596,-0.10965195289594981,16.721976867295062,17.24618554209313,-21.57823852880717
1761286337.5179586,-19.265372100128694,-0.5030803766856625,0.6995612776524319,-0.12203880033056859,17.920815558319774,15.021371214056586,-18.48871854023139
1761286337.527713,-19.705543641936526,-0.5151760914430351,0.702307800247952,-0.1317474680049745,19.655202988167535,11.438195438770608,-14.805127591520609
1761286337.5386643,-20.095196121309698,-0.519836187514893,0.719052586342079,-0.13820033444587676,21.916240909308186,6.568371220559846,-10.547468876306814
1761286337.5480006,-20.41959189355327,-0.515320375471141,0.7517675055773705,-0.14086698308048784,24.638886851319914,0.5907613768008053,-5.778160257142489
1761286337.5577374,-20.66543866746891,-0.49991408834786794,0.8013529775398774,-0.13930591924047825,27.702608646240876,-6.205661344305003,-0.6024018999658634
1761286337.5677547,-20.8217980196178,-0.472160489661596,0.8672786028812699,-0.13324879112691435,30.937192965566894,-13.430025271775945,4.836288730883203
1761286337.5776675,-20.880823792027474,-0.43112111128219327,0.9473017399491297,-0.12271779950858795,34.13332190290566,-20.611042926685005,10.366047505857686
1761286337.5883234,-20.838226842136294,-0.37663198619696947,1.037348366543553,-0.10815274461873549,37.05752156707714,-27.23176293200696,15.802038789996788
1761286337.5979145,-20.693403620727025,-0.30952039612550775,1.131641314410813,-0.09052120003025363,39.47106905991831,-32.774695565400876,20.965917284083638
1761286337.6077373,-20.449226223799627,-0.23174733897298797,1.2231326609577917,-0.07138640632267963,41.152186483769746,-36.77176036662557,25.70675856064127
1761286337.617767,-20.11155287083694,-0.14644152272723515,1.3042399920864614,-0.05290258349613428,41.92015834115667,-38.85209347020038,29.91992085038056
1761286337.6282184,-19.688561990927674,-0.05779577975822522,1.3678066689023836,-0.03769987265813482,41.65887631029737,-38.78101297398436,33.5600915880671
1761286337.638174,-19.190031594527806,0.02918762971233772,1.408122414613906,-0.028625836313684608,40.33607179306346,-36.485116379454176,36.64540878901139
1761286337.647718,-18.626677365743102,0.10909202944041609,1.4217873733008757,-0.028340533880876307,38.013782058697586,-32.06089262199329,39.25101681090381
1761286337.6579037,-18.009629557736304,0.17658839653660185,1.4082155835271004,-0.03881831386221498,34.846107709401295,-25.766589697829943,41.49253652512192
1761286337.6682923,-17.350076888256197,0.22699531499857334,1.369658745902029,-0.06087129674024361,31.062410538906594,-17.998847896313475,43.502262147830145
1761286337.677792,-16.65905161214967,0.2568304558664444,1.3107563137901257,-0.09383940558241498,26.937443344374287,-9.256738874091436,45.402747487634166
1761286337.6877105,-15.947296360739976,0.2642660123215953,1.2377353336080463,-0.135561623537704,22.75347852649187,-0.09668668316560074,47.28310566778958
1761286337.6982663,-15.225155378118234,0.2493923491266772,1.1574552981545236,-0.18266059776228605,18.7620104701376,8.917369436691011,49.18250648498741
1761286337.7082138,-14.502464576192603,0.21422057668409175,1.0765026493738699,-0.23107596302962957,15.153056515873644,17.26331921983104,51.08335058504227
1761286337.718282,-13.788449805579102,0.16241512425342147,1.0004921153961654,-0.27671187193691177,12.038209226569123,24.504064900948148,52.91424517553268
1761286337.7276726,-13.091653937358151,0.09881481817633073,0.9336527977812598,-0.3160436744850738,9.449963051438893,30.31947038835406,54.561026441576196
1761286337.738133,-12.419896244075652,0.028844019905961527,0.878697830192709,-0.34655696675873876,7.3556401397760505,34.52368666983473,55.88311050432547
1761286337.7480612,-11.780240080042594,-0.042079040469407226,0.8369205679717978,-0.3669523571891237,5.68081682745298,37.066794595120044,56.732388054958456
1761286337.7576752,-11.178926932537108,-0.10905171791025178,0.8084345148862686,-0.3771175584182576,4.335477075355765,38.02205686198107,56.97237963215656
1761286337.7677639,-10.621233925351264,-0.1680605828246825,0.7924735842754564,-0.37792289426802306,3.236508109873313,37.56193391603318,56.49601345737004
1761286337.777749,-10.111225847244965,-0.21619501540271788,0.7876858132063354,-0.3709230642782775,2.322254355435945,35.92711436637728,55.240849963172266
1761286337.787865,-9.651398869159982,-0.2517020733688979,0.7923799516196957,-0.35804472112412156,1.5577732309874763,33.39310983194076,53.20075079714498
1761286337.7976818,-9.2422488718848,-0.27390652660370357,0.8047114533170896,-0.34131534861857427,0.9320890206054526,30.238634840744766,50.43297045182865
1761286337.8079581,-8.881837499529661,-0.2830388379785283,0.8228127253089025,-0.3226591044498667,0.4503011937940547,26.7192727473218,47.05962150245544
1761286337.819429,-8.56546371775887,-0.2800247776928484,0.8448786245190801,-0.30376170155876775,0.12370547712643366,23.04897831662409,43.26260556347121
1761286337.8278315,-8.285563563982956,-0.26628645862474465,0.8692172212207221,-0.2859932967920301,-0.039468988302759654,19.390802253123407,39.27152912771136
1761286337.8376749,-8.031941904129166,-0.2435841040040184,0.8942748907371328,-0.27037418467430163,-0.04096009603860996,15.856831153460272,35.344882087230424
1761286337.84769,-7.792383397970037,-0.21390067923433428,0.9186459748944722,-0.25756975582089026,0.10393439718672748,12.515878790225694,31.74580133294994
1761286337.8578007,-7.553609926438668,-0.1793530790910657,0.9410780099095022,-0.2479061953398214,0.36635451969148325,9.406289932517357,28.71489983856969
1761286337.8677022,-7.302477015493779,-0.1421120505799042,0.960481770672362,-0.2414043474488705,0.7071684233272125,6.5506403573081124,26.443610015379296
1761286337.8776865,-7.027258369744622,-0.1043239980710416,0.9759519918011901,-0.23783273382368472,1.0827365418266361,3.969207532332002,25.051916502838825
1761286337.8877208,-6.718862694757917,-0.06803895640683026,0.9868009991123087,-0.23677913090898967,1.451937519984373,1.689690252907429,24.574001333052365
1761286337.897782,-6.37184628360275,-0.03514983367424709,0.9926033507575117,-0.2377340693670446,1.7830621216766076,-0.2484364713335073,24.95421949957603
1761286337.9076822,-5.985107626226213,-0.007338417767580171,0.9932442875334038,-0.24017329367696827,2.0592296972041044,-1.7954687107958147,26.05423264949496
1761286337.9177415,-5.562169303065837,0.01398582961688064,0.9889593458382091,-0.24362400419382946,2.281219086173983,-2.8982947054215966,27.670399233580603
1761286337.927737,-5.11097856283465,0.02776621297089682,0.9803492856062409,-0.24770340266632654,2.4669885848647413,-3.5107323301900752,29.558961657384007
1761286337.9377148,-4.643205612379135,0.03339569192291323,0.9683555788913079,-0.252126341147484,2.6476786500906155,-3.604783442149972,31.465440909012088
1761286337.9476798,-4.173088307399904,0.030809267161557744,0.9541878265513521,-0.256687901098584,2.860543442904123,-3.1799542023696845,33.15412309507266
1761286337.9576776,-3.715946928682666,0.020541619345673775,0.9392047428105753,-0.2612321045501028,3.1399679687694735,-2.268288775816912,34.43365701781413
1761286337.967893,-3.2865501938125905,0.0037245897901441736,0.9247620014933752,-0.26561781503928467,3.508307296554844,-0.9338867568014239,35.17552233964465
1761286337.9776797,-2.8975387912806676,-0.017986632462641844,0.9120493042779285,-0.26968929172790174,3.968503050495818,0.7329400985236852,35.323332232854256
1761286337.9877136,-2.5581038690211058,-0.042554349521987396,0.9019426506080155,-0.2732556542129913,4.500157296322083,2.625491307105726,34.89238159950115
1761286337.9976823,-2.273080919362706,-0.06774974392986975,0.894895998656066,-0.27608274995105936,5.06002103181189,4.632338039976483,33.96028514810761
1761286338.0077114,-2.0425612554984505,-0.09136942669522474,0.8908910765205148,-0.2779014753256962,5.586890941069009,6.648477588491907,32.650753062477534
1761286338.0177166,-1.862051321089634,-0.11144648166824815,0.8894562329305298,-0.2784361809418342,6.009988865154102,8.583948758108933,31.113378408811446
1761286338.0281262,-1.723134929696726,-0.12642569604687875,0.8897556295582894,-0.277454516091296,6.259269058880233,10.368568101016981,29.50266169250397
1761286338.037832,-1.6145276229554553,-0.13527947390715606,0.8907403676924919,-0.2748363320981828,6.275874857660725,11.952353362863493,27.95932280950283
1761286338.047775,-1.5233657684456825,-0.13755180626020988,0.8913451705400602,-0.2706540720010033,6.021129692909881,13.302118401442076,26.596268117305428
1761286338.0576992,-1.4365511019049986,-0.1333289457462442,0.8907082036329578,-0.2652503930120632,5.482875010030976,14.395473436197474,25.49050936931747
1761286338.0676873,-1.3419760609369022,-0.1231455979733074,0.888385576188098,-0.2592921850662587,4.678459283198172,15.21394634795532,24.681097795139355
1761286338.0776958,-1.229486558484692,-0.10784513589349186,0.8845246515422358,-0.2537769819569089,3.654049495968798,15.737130786953962,24.17202346821398
1761286338.0877001,-1.091493885527708,-0.08842120770923395,0.8799547112493269,-0.24997153180595702,2.480158424879491,15.93964745597381,23.938285212563787
1761286338.0976832,-0.9232173648265442,-0.06587306373364767,0.8761570249166188,-0.24927449294847615,1.2435365510719962,15.792215505815358,23.933095976284072
1761286338.1077511,-0.7226081535308828,-0.041103907912374504,0.8750935886072453,-0.2530131761101327,0.03604869437938762,15.26723529875599,24.09444872477968
1761286338.1176653,-0.49005369496306617,-0.014879482108240517,0.8789018019930402,-0.2622015450775862,-1.0581857309572442,14.348110923090312,24.349904431219386
1761286338.127749,-0.22798022822994457,0.01215304568457141,0.8894945141483339,-0.27729772140492226,-1.9754894144022088,13.040414625827541,24.61927893800338
1761286338.1376767,0.059542233045788893,0.0394018193770488,0.9081364626386074,-0.29800350545086457,-2.682926947208791,11.382275388426365,24.815676299979998
1761286338.14766,0.36712308346425876,0.0662490574460779,0.9350924590203848,-0.3231480364133296,-3.1840886841141107,9.451268156937278,24.845845969157978
1761286338.1576667,0.6882771182788844,0.0919806591949547,0.9694444242463858,-0.35069131435242584,-3.5188901473534835,7.365606926063642,24.611011553429076
1761286338.16772,1.0155671321990636,0.11574983870367567,1.0091394445052289,-0.37786650589129733,-3.757091122297706,5.278504163825135,24.009125508108657
1761286338.1776712,1.3407019458024394,0.13658842781394487,1.051267355814626,-0.4014529976216222,-3.9867154544258283,3.3659551994213484,22.939056864625677
1761286338.1876953,1.6546379103912567,0.15347025961228508,1.0925044580149144,-0.41814382070406114,-4.299886802011958,1.8096100067971441,21.306686984462694
1761286338.1979415,1.9477284179521859,0.1654218275405126,1.1296254925366804,-0.4249523014356035,-4.77929600133511,0.7774086488035513,19.03241137094648
1761286338.2077003,2.2099542427545336,0.1716651726954712,1.1599806789543523,-0.41959816597374666,-5.488301785556888,0.40501205296475284,16.059190257919905
1761286338.217699,2.431252023271629,0.1717684433448099,1.1818486665647232,-0.40082048434531975,-6.4665748293692795,0.7807384901008715,12.36007983680957
1761286338.2276723,2.6019398495371906,0.16577277642478247,1.1946059019997932,-0.36857892916076035,-7.731541748430679,1.9358929117916006,7.944132367609043
1761286338.2377057,2.7132161728076065,0.15426275331019051,1.1986951615451158,-0.32412035627682656,-9.284201530167815,3.8413325302151264,2.8596912689053826
1761286338.2476978,2.7576838496143026,0.13835607286243948,1.1954188291818473,-0.2699003194789215,-11.116769258250606,6.410172813992901,-2.8056060439295263
1761286338.257692,2.729833783260001,0.11960585441250207,1.1866124592748342,-0.20935978508177636,-13.219418486223642,9.50592430712085,-8.928432152940855
1761286338.267701,2.6264195336315144,0.09982814533834483,1.1742681195339177,-0.14657185292202946,-15.584064935193851,12.955025673256321,-15.356862273823705
1761286338.2776976,2.4466661409687895,0.08088035289152061,1.160179016810507,-0.08579469924817977,-18.204255334112798,16.56247980142926,-21.920329670972958
1761286338.2892542,2.1922800658020987,0.0644227133905933,1.1456688687421372,-0.030989881615924694,-21.07137485144508,20.12896217795598,-28.441276677060372
1761286338.2987971,1.8672583334239308,0.051697765769676156,1.1314505782941628,0.014620635990232726,-24.16830277852756,23.467445757934357,-34.746939309511355
1761286338.3080873,1.4775273785314866,0.043363853321505476,1.117630186091798,0.04888739938242553,-27.462220723066622,26.417311757797574,-40.67969867620104
1761286338.3177035,1.0304669427415607,0.039415059372696494,1.1038395291083551,0.0709041847633298,-30.898488894371358,28.8542571860849,-46.10490208898728
1761286338.327682,0.5343845093009559,0.03920671931828184,1.0894538695434457,0.08099603290342608,-34.39735136854334,30.695028964976363,-50.915796157996844
1761286338.3377104,-0.0019994499627179335,0.041582968720327844,1.0738370773712502,0.08053982093078486,-37.85470432503192,31.89691025434853,-55.03587008731503
1761286338.347781,-0.5700100703148585,0.04507888230020331,1.056558519317553,0.07166258549345006,-41.147312083648124,32.452725559803504,-58.419237429036976
1761286338.3576987,-1.1613929793982993,0.04815441409329529,1.0375389489821152,0.05687986049916621,-44.14186407608933,32.382750035296844,-61.04967725902616
1761286338.368032,-1.768594193017406,0.0494148130267453,1.0171026410851463,0.038739067087833964,-46.70640297475162,31.72523312142331,-62.93876345914351
1761286338.3777292,-2.3849466049692136,0.04778123020370762,0.9959355438139426,0.019524011545786403,-48.72214529659277,30.527290540252075,-64.12330975264203
1761286338.3877294,-3.0047734126988277,0.042592283669725665,0.974969874254672,0.0010578374115394673,-50.09365653022384,28.83773145795617,-64.66224687432917
1761286338.397742,-3.6234234135293537,0.03363653287811013,0.9552294443894767,-0.015383977304997312,-50.75571377371362,26.702997055824504,-64.63301714925251
1761286338.407674,-4.237254143400722,0.021129031151746518,0.9376732246827012,-0.029064386884629496,-50.67588723170593,24.166794284498494,-64.12754779864443
1761286338.4177055,-4.843577781978369,0.005646804527794767,0.9230671986001167,-0.03970893445091968,-49.85274376636503,21.273249251599733,-63.247810638652716
1761286338.4276483,-5.440583540514426,-0.011969143359728264,0.9119011563717034,-0.04739570441914029,-48.31045206421071,18.072588442496755,-62.10094216285129
1761286338.4376996,-6.027249543553704,-0.03074350582744718,0.9043539953806926,-0.05243682031608338,-46.09127777789291,14.627641591647272,-60.79395596670756
1761286338.4476852,-6.6032551514933715,-0.04972058595243388,0.9003020378772847,-0.05526700638926341,-43.247835875230834,11.019026046168275,-59.428233740849564
1761286338.457696,-7.168898781017551,-0.06811875206912814,0.8993600778558009,-0.056346033846171734,-39.83690179818872,7.3469047318538365,-58.09415605533425
1761286338.4676747,-7.725017116183197,-0.08544832512900462,0.9009432047068318,-0.056077992749950796,-35.916052360735996,3.7278225089763377,-56.86632982435991
1761286338.4776976,-8.272893471601343,-0.10155922491920033,0.904338323970482,-0.054751055529767306,-31.543537532508616,0.2862385341204983,-55.79983495941998
1761286338.4876945,-8.814140784358372,-0.11660607143052268,0.9087771276791883,-0.05250327531707381,-26.780852069693225,-2.8583147829581343,-54.927781660978106
1761286338.4977562,-9.350549979819286,-0.1309457787580007,0.9135052785090949,-0.04931954932562776,-21.696791137181762,-5.606402923347907,-54.260320338051834
1761286338.5076952,-9.883905031452947,-0.14500169984394964,0.9178438247936884,-0.0450613197056972,-16.37152010666742,-7.893546470970304,-53.78513312939327
1761286338.5177124,-10.415777486915598,-0.15913190952318282,0.9212385112032595,-0.03952516246694957,-10.899354956241618,-9.702125885032197,-53.46936413525084
1761286338.52767,-10.947321494287907,-0.17352950528948122,0.923292695213123,-0.03252072411792703,-5.389370310404375,-11.068209810057596,-53.26288994602841
1761286338.5376928,-11.479093320011183,-0.18816752582039867,0.9237813598765194,-0.02395374532658867,0.03657551313081385,-12.08201769203402,-53.102771601812
1761286338.5476675,-12.010916903315874,-0.20278735000713705,0.9226468162453493,-0.0138974374998967,5.248393789141058,-12.881657140997417,-52.91866143027401
1761286338.558046,-12.541810418690861,-0.2169209703804542,0.919979914376098,-0.0026362630715111588,10.114530370744058,-13.640592142891116,-52.63886638677186
1761286338.5677965,-13.069980454293233,-0.22993549447125,0.9159926556246879,0.009329742272055103,14.51024744516568,-14.549898385558452,-52.196688099162486
1761286338.577714,-13.592883254128797,-0.24109192982394098,0.9109879564847962,0.021325191343370162,18.32646978834823,-15.796782801821832,-51.53657131696642
1761286338.5876613,-14.107348603231088,-0.2496163581404505,0.905329957140515,0.03258055254025495,21.47812212880767,-17.54118277212969,-50.61952691209848
1761286338.597678,-14.609760713624047,-0.2547846479011469,0.8994152420556624,0.04234177798221302,23.910928065278874,-19.892576419986593,-49.427291874428875
1761286338.6076856,-15.096289050372754,-0.2560187486930814,0.8936435628149955,0.04998863977785303,25.605834617634997,-22.88941270995258,-47.96475971828984
1761286338.6177027,-15.563158328109319,-0.2529856437701176,0.8883865807428761,0.05513852726737003,26.580532217043476,-26.483725188914217,-46.26034622084043
1761286338.6276557,-16.006941460509754,-0.2456844865993175,0.8839537995884372,0.05771325257186791,26.887891070615353,-30.533408028536066,-44.36413220023746
1761286338.6376946,-16.424854080371418,-0.23450625218233784,0.8805557995257874,0.05795186722156016,26.611455318938884,-34.80420039884088,-42.34383709685246
1761286338.647699,-16.815025787855703,-0.22025255018165946,0.8782666910233657,0.056362713525751444,25.858395780118936,-38.98258414822611,-40.278904429466586
1761286338.6577237,-17.176721912011583,-0.20410453867909165,0.8769901275352409,0.05362167305210705,24.750537842668756,-42.699561687773596,-38.253185315825384
1761286338.6676924,-17.51049035968883,-0.18753907980573337,0.8764348254563854,0.05043735692704223,23.414277451784194,-45.56377292576806,-36.3468434499716
1761286338.6776915,-17.818211258476328,-0.1721976971877036,0.8761056733364045,0.04741303943360427,21.970389428997823,-47.20088386620351,-34.62814830978534
1761286338.6876938,-18.103032826416047,-0.15972358280320686,0.8753158789890575,0.04493574624741461,20.524909726929838,-47.294938165076154,-33.14579693535012
1761286338.6976967,-18.369185343223144,-0.15159040281819042,0.8732250986971516,0.043114359589045054,19.16237205533538,-45.62667428178772,-31.922366732620425
1761286338.7076788,-18.621675935924095,-0.14895103026562156,0.8689084319270842,0.04177371879584528,17.9425759260916,-42.1038569116198,-30.949486155609563
1761286338.7177222,-18.86587925498815,-0.15253286596088877,0.8614608310487535,0.04049608639438537,16.90163272993168,-36.77950602395424,-30.185293541893827
1761286338.7279909,-19.107051825447947,-0.16259908387815172,0.8501387656588212,0.03869141632485655,16.05725019206578,-29.855426882294058,-29.5546869536305
1761286338.737723,-19.349809605657274,-0.178982416865419,0.8345336190825892,0.0356776566453437,15.417216758527998,-21.670390424181583,-28.952720778159044
1761286338.747666,-19.59761754820919,-0.20118103804016776,0.814759258660785,0.030760662687538274,14.989130296021045,-12.674314992954855,-28.25127881625
1761286338.7577024,-19.852344729195917,-0.2284885461889437,0.791622891748162,0.02331363842277033,14.788901725118299,-3.3915070534452165,-27.30885752637144
1761286338.7676964,-20.11393624431828,-0.26011847914273933,0.7667390988738547,0.012860726742463508,14.845666945491319,5.622772758703501,-25.98293422912366
1761286338.7778437,-20.380241063895628,-0.2952830001196978,0.7425464692758669,-0.0008343498593570166,15.201486325224437,13.827524289745366,-24.143990545521103
1761286338.7877033,-20.64701349995684,-0.33319578157281343,0.7221961715516665,-0.017682363800273295,15.9054248880703,20.73812010398042,-21.689859298599366
1761286338.7977455,-20.90808004893928,-0.37298829129825206,0.7093001223616813,-0.03720129734138112,17.00295445001539,25.961119084149864,-18.558750642561083
1761286338.8077111,-21.155642319433383,-0.4135538408429182,0.7075490307591905,-0.058487754529249716,18.52272321251464,29.21892631563344,-14.739190504325927
1761286338.8178756,-21.380678146569164,-0.4533603661305178,0.7202333704312446,-0.08024580432581802,20.463332651210894,30.36327008883624,-10.275247171231353
1761286338.8276818,-21.573407356650943,-0.49029340471894295,0.7497204198954547,-0.10088516865845071,22.782792213276405,29.378336001549087,-5.265854918504984
1761286338.8377187,-21.72379939345193,-0.5215972908779586,0.7969562504451139,-0.11868955233285246,25.392901403143213,26.375688377513814,0.14227903069752504
1761286338.8476803,-21.822108024945177,-0.5439711483031284,0.8610716626028111,-0.1320419043498701,28.160074054176413,21.583385096656617,5.767879235760986
1761286338.8577883,-21.85941623862161,-0.553847314231674,0.9391736574092097,-0.13967776738417897,30.913166144390004,15.331006771228632,11.413254692605415
1761286338.8677487,-21.828160102231365,-0.5478381523202014,1.0263956886369,-0.1409243632017766,33.45779808244417,8.031207927713861,16.885407808015632
1761286338.8788562,-21.722581232483762,-0.523292575447125,1.1162553950237153,-0.13587914195797143,35.595628885809276,0.15758781705102778,22.017396759246257
1761286338.8876798,-21.5390497702545,-0.47886802724346694,1.201322024986204,-0.12549248751083067,37.14621735169477,-7.781337983225413,26.686804114953652
1761286338.8986852,-21.27621659583073,-0.41500466853252804,1.2741274853664148,-0.11153964839469664,37.968612104235035,-15.271612447153172,30.828182300974778
1761286338.9076793,-20.93499163291298,-0.334187901300733,1.3281792999775937,-0.0964817614253246,37.97965312015368,-21.825520084051384,34.436971710821624
1761286338.9177628,-20.518385863330014,-0.2409076689750271,1.3588796965599783,-0.08321688725879733,37.166087368518994,-27.013753406304538,37.56363401272418
1761286338.9277008,-20.03127912842795,-0.14127791075154078,1.364153192173053,-0.07472289185884715,35.588043981767456,-30.49597805465579,40.29848429095891
1761286338.9377546,-19.480176283862807,-0.04236424873962935,1.3446482525582164,-0.0736176157165458,33.37236849298722,-32.0471110784442,42.74967425595103
1761286338.947693,-18.87299388144839,0.048649868474820994,1.3034882180230216,-0.08170793663314033,30.695906648145467,-31.57596740546698,45.01852825881804
1761286338.9577084,-18.21888695389943,0.12529141536998603,1.2456589154896995,-0.09963679134666995,27.760864801156064,-29.132975442763215,47.17737216379869
1761286338.967695,-17.528093251793255,0.1824753115802586,1.177193116088789,-0.12673257138605268,24.766342170356513,-24.904965398593067,49.25461735123619
1761286338.9777274,-16.811754236930284,0.21694457990939173,1.1043285907263725,-0.16111231041447416,21.881403720416465,-19.197307801193237,51.230079261260826
1761286338.9878042,-16.08167488568133,0.22745045242161965,1.0327859065627178,-0.20001223736129337,19.22510933029035,-12.405998255641371,53.04082737429913
1761286338.9977698,-15.350001780630036,0.21469970736157828,0.9672548728652923,-0.2402526255169838,16.857479458152905,-4.983718403894752,54.59522637840639
1761286339.0077763,-14.628819159300749,0.1811242219270145,0.9111167865187983,-0.2787155821701492,14.78269679148785,2.5959487492996396,55.79115126587978
1761286339.01773,-13.92967896442417,0.13053341243333544,0.8663813867358393,-0.3127303007941146,12.962719197834458,9.87281604936792,56.53406176799353
1761286339.027777,-13.263093353273694,0.06770150135054656,0.833790920047607,-0.34030700059063995,11.336977785084922,16.430718812030126,56.75153383099979
1761286339.0377183,-12.638026672332442,-0.002071647531763717,0.813035715063889,-0.3602158368418754,9.842767953547597,21.923161836112122,56.40244037676677
1761286339.047735,-12.061427089364564,-0.07339740898591408,0.8030276380085495,-0.3719489445633221,8.43152834380647,26.093073372869796,55.48062843495847
1761286339.057725,-11.537835828813446,-0.14120782650002586,0.8021839022170382,-0.37562022545532464,7.078060666890858,28.785803942861218,54.01414408607705
1761286339.0677176,-11.06910673253739,-0.20111180053605304,0.8086830107854974,-0.3718494214335356,5.782114066509888,29.954507581633404,52.061580552545074
1761286339.0778387,-10.654263387619487,-0.24967308311313133,0.8206676879397474,-0.36165520725354555,4.56381252431249,29.657250900552746,49.7070476858808
1761286339.0877013,-10.289516105985689,-0.28459096630691133,0.8363851844519853,-0.3463597913769674,3.4555476610033087,28.045739556881895,47.05482291723667
1761286339.0978765,-9.968455237326458,-0.3047746220581375,0.8542698188758602,-0.32749471826367327,2.493037465122822,25.34642035893585,44.22418047336947
1761286339.1080718,-9.682427863508927,-0.310313023273247,0.8729820777493117,-0.30669744610218314,1.7075536256386616,21.835743934775277,41.344380530323384
1761286339.1180851,-9.421088789591222,-0.302350660735557,0.8914207541083364,-0.2855968163598126,1.1203563713618068,17.81227036281441,38.549447324429735
1761286339.1294608,-9.173093648718593,-0.28288429403753407,0.9087202169494505,-0.2656949366274409,0.7395757381201263,13.568813892883416,35.97224435482192
1761286339.1379263,-8.926877615481985,-0.25450123409484215,0.9242377741683953,-0.24825782141470742,0.5593195785570823,9.367853284623907,33.737493741014944
1761286339.1477747,-8.67144711848346,-0.2200874164005231,0.9375313220105452,-0.23422724590271346,0.5606193066202377,5.422992248823201,31.953747591748364
1761286339.1579776,-8.397110548138558,-0.1825404066571119,0.9483282160093555,-0.22416413766707768,0.7137960676772511,1.8883872507780548,30.704788877454508
1761286339.1677358,-8.096087647904552,-0.14452324175174514,0.9564909903050511,-0.21823082340932343,0.981824166380631,-1.143119820995223,30.041377062693684
1761286339.1777222,-7.762961894450709,-0.10828802788976441,0.9619888289136006,-0.21621539280627344,1.3242419225330333,-3.6337169575818815,29.974539352074896
1761286339.189244,-7.394968318908395,-0.07558522526021573,0.96488118196937,-0.21759608127186697,1.701122531711135,-5.587919176061803,30.471655344347752
1761286339.198562,-6.992131368727097,-0.047658177978145366,0.9653123868118533,-0.221637312515425,2.0765995318772323,-7.036085600403641,31.456355108218062
1761286339.2077494,-6.557275553095428,-0.02530607745512474,0.9635086649592859,-0.22750319739336763,2.4214779400437982,-8.017301401253803,32.81278549936261
1761286339.217998,-6.0959235216195875,-0.008986112304314396,0.9597663103269148,-0.23437097703881038,2.714580709797304,-8.564781001881885,34.39419726462553
1761286339.2277632,-5.616076887222668,0.0010801805373555492,0.9544236358108947,-0.24152771918740998,2.942687648881064,-8.696413359657754,36.035181861759376
1761286339.2379613,-5.127854730546072,0.004829440664182224,0.9478172026417371,-0.24843810462668334,3.099195693371062,-8.412037344878543,37.56633215841819
1761286339.2477741,-4.642954283201696,0.002331693918844698,0.9402313269035066,-0.2547772829163605,3.1819068363826566,-7.697684242101712,38.82968533296666
1761286339.2581887,-4.173904804930462,-0.006172693592844932,0.9318554670755304,-0.260428466641416,3.190551232354486,-6.535631933035417,39.69310774190772
1761286339.2679164,-3.7331104504609396,-0.020182275121237894,0.9227652007088891,-0.2654493375880779,3.1247054190847137,-4.917971505845308,40.061871453083555
1761286339.277808,-3.33171852642682,-0.03881474271675702,0.9129393811249396,-0.27001488670216195,2.982646849073606,-2.860699680802369,39.886055059119656
1761286339.2878473,-2.978401609091423,-0.06069756083805646,0.9023196130822729,-0.2743476749587596,2.761436745990928,-0.4152085613855048,39.16299588487813
1761286339.2990582,-2.6781972959514655,-0.08391699011732662,0.890908997310374,-0.27864934165856453,2.4582200918862913,2.3255486323902983,37.93470850568187
1761286339.3085651,-2.431592695369846,-0.1060694980527947,0.8788963271490577,-0.283048098018044,2.0724471393133945,5.228039284637106,36.2808561054717
1761286339.3177502,-2.2340517767806674,-0.12443942501755242,0.8667818295927857,-0.2875746339629522,1.6084989407249728,8.12685556538525,34.30842054842069
1761286339.3281188,-2.076146168808242,-0.13629422871235763,0.8554735862405489,-0.2921730393257133,1.0780523424538624,10.840336445705887,32.13957940515953
1761286339.3382392,-1.9443628460155113,-0.13925431588810608,0.846322019152431,-0.2967447681188966,0.5014536361921896,13.191034284782498,29.899400891343163
1761286339.3477268,-1.822542190920043,-0.13166986153708385,0.8410650103733729,-0.3012139287124971,-0.09258705360163413,15.028004411819017,27.704788256920466
1761286339.3577526,-1.693774677823896,-0.11292864739576253,0.8416693689580532,-0.30559339056389806,-0.6694669809252358,16.247424057860723,25.655682588171043
1761286339.3704045,-1.5424841370931586,-0.08362836094184779,0.8500748497014483,-0.31002596483210165,-1.1934130703181045,16.808150163303544,23.828968849974075
1761286339.3778896,-1.3563764923181802,-0.04557213718598686,0.8678713411149782,-0.31477604160445344,-1.6339539605572777,16.739521300331102,22.274960964842847
1761286339.387809,-1.1279483434240618,-0.0015812888257858938,0.8959620816512873,-0.32015660723725725,-1.9729851640667713,16.139886902690268,21.015910680483454
1761286339.397738,-0.8553256800633279,0.04484498786327762,0.9342792182986407,-0.32639451917456846,-2.210775674467418,15.16577592863615,20.045810751768244
1761286339.4077272,-0.5423235129123599,0.08996423971681945,0.9816174417227664,-0.3334599541371477,-2.36917929663167,14.01303443653741,19.330895660042216
1761286339.4178407,-0.1977603901198576,0.13024370576662742,1.0356340594499784,-0.34090694904749214,-2.4907712131266893,12.892459336075719,18.810634278309635
1761286339.4281907,0.16580174102633025,0.16275367985456266,1.0930319963310493,-0.34778155825913293,-2.6335680824117844,12.003293174019387,18.39951865093232
1761286339.4377122,0.5336270310144025,0.1854395079722858,1.149904732202108,-0.35264484642236393,-2.8621595917047364,11.50831322578251,17.990379203637158
1761286339.4477272,0.8903936567304425,0.1972421349335313,1.2021901921839104,-0.3537294679232214,-3.237108411685736,11.514050165150833,17.46008437780252
1761286339.457818,1.2215572326577955,0.19807475506243025,1.2461603646303308,-0.34921034168780013,-3.8050059796692164,12.0588776323789,16.67816816030278
1761286339.4677958,1.514345159365952,0.18869331508823767,1.2788655312454456,-0.33753622838472375,-4.591436843959943,13.110460235395754,15.5181904664678
1761286339.4777188,1.7583469307080666,0.1705112493167674,1.2984568070689024,-0.3177505686796182,-5.598400828346774,14.572628085839638,13.870682917270994
1761286339.4897084,1.945750399077911,0.1454024090382434,1.3043309564055738,-0.28972990898104545,-6.80673288334068,16.30045233036039,11.655704937576948
1761286339.4977155,2.0713169080560077,0.11551809531975697,1.2970779156536438,-0.25428488315921666,-8.183017685005497,18.12127640735317,8.832672154868046
1761286339.5077164,2.1321921231222865,0.08312628819326144,1.2782569967236446,-0.21309843913455698,-9.6896059771213,19.85874695037743,5.4054218130333
1761286339.5177476,2.1276295264852068,0.050472008566817654,1.2500673577159174,-0.1685128911909014,-11.295691902182446,21.35652086963392,1.421415740305809
1761286339.5280335,2.0586759622280892,0.019656333346186945,1.2149965115460963,-0.12321234752238926,-12.98705845217955,22.49837194803283,-3.0347232224416074
1761286339.5377433,1.9278440143274747,-0.007468359408431657,1.175521103881855,-0.07986959446093325,-14.772136473211987,23.22194006449133,-7.851912654834273
1761286339.547759,1.7387797518948636,-0.02939030145594354,1.1339039130994726,-0.04082860890023947,-16.682567631028423,23.524339327588493,-12.905341740627925
1761286339.5578756,1.4959280976888738,-0.04502032645659662,1.0920948777177362,-0.007875100665678245,-18.767519354615263,23.459125581741134,-18.068878488564696
1761286339.567787,1.2042000136144888,-0.05376344686063029,1.0517148083798953,0.01788253191009082,-21.08237846824913,23.125471657331182,-23.225215617952017
1761286339.577763,0.8686517872416084,-0.05557477207507785,1.0140843091587608,0.036026855723978186,-23.673806792140866,22.65153724345641,-28.27257810601804
1761286339.5880094,0.4941927857408123,-0.050990780376721,0.9802587690308361,0.0467614029164487,-26.56409418331081,22.17472860129886,-33.12768281834456
1761286339.597734,0.08534140428185213,-0.041125217905358225,0.9510420736198281,0.05078547731465925,-29.738000529109808,21.821709706782496,-37.725411907011484
1761286339.6078305,-0.3539516594749451,-0.027619068097993173,0.9269719498108151,0.049143026020254894,-33.13476528809178,21.69068902756634,-42.01618156436683
1761286339.6177666,-0.8203984991615118,-0.01253616154549399,0.9082897197178039,0.0430721128377566,-36.646872460996136,21.83784046221174,-45.96218969929263
1761286339.6277406,-1.3113813706483237,0.0017992729981672576,0.8949182704473231,0.033875711553241615,-40.12583789620208,22.268958112631196,-49.5336512834221
1761286339.6377203,-1.824875758362045,0.01301886681001406,0.8864705749682026,0.02282577463644159,-43.3940624645968,22.936795398189687,-52.70587420481217
1761286339.6477454,-2.3593012870170464,0.018964954363891298,0.8822991782238512,0.011101961390771098,-46.26087949094788,23.744098226472573,-55.45768902134866
1761286339.657781,-2.9133198503611415,0.017956570381448177,0.881580971176613,-0.00024336092848748725,-48.540404645808984,24.552068761807284,-57.771402576678675
1761286339.667742,-3.485606122109906,0.009029252804368365,0.88341889069821,-0.010307701912317073,-50.068667234193185,25.193747156476874,-59.63413775346475
1761286339.6777613,-4.074619753353165,-0.007892804857055659,0.8869379494192118,-0.01836120131731125,-50.71773773010516,25.49143332556463,-61.04015875560066
1761286339.6878173,-4.678410360115749,-0.03193028494805912,0.8913575061246781,-0.023874660311662875,-50.40515923288988,25.27675720245934,-61.99358136009509
1761286339.6979723,-5.29448489613077,-0.06131443444426146,0.8960314195968494,-0.026548045255809095,-49.09789036863058,24.41144873562461,-62.51076283721397
1761286339.7077518,-5.919760993949535,-0.09359101654959516,0.9004578560050651,-0.0263275321823164,-46.81101351835363,22.80643658834625,-62.62168534750929
1761286339.7177584,-6.550618593617615,-0.12594079979691383,0.9042673844731489,-0.0233987315937607,-43.602397956547215,20.43676266780714,-62.36980577653848
1761286339.7277918,-7.183046549642131,-0.15556639271837516,0.9072007377873087,-0.01815006661903362,-39.56506192267721,17.349997641158026,-61.81012844625496
1761286339.737764,-7.812863864397067,-0.1800767466945896,0.9090874024741386,-0.011109459650189144,-34.81899629843692,13.66638668802407,-61.005598970279586
1761286339.7477264,-8.435980829464432,-0.1977997238393577,0.9098339494098202,-0.0028646127087678815,-29.503756901708538,9.569833903322298,-60.02221890590346
1761286339.757831,-9.04865735948183,-0.2079699736313245,0.9094266795580432,0.006020127885832748,-23.772439181802746,5.290000981969653,-58.9234593453293
1761286339.7677433,-9.647716195127604,-0.2107678501075277,0.907946877276136,0.015078115397900233,-17.786988477947475,1.0771397272942664,-57.76459133238243
1761286339.7777436,-10.230677251000603,-0.20721601517784544,0.9055900165207698,0.023995934575426082,-11.714353226225251,-2.827392593878307,-56.58751059845957
1761286339.7880208,-10.795794225186638,-0.19896539200685745,0.9026749989350743,0.032642715679398006,-5.722805182892323,-6.220947641373702,-55.41659405503387
1761286339.7985244,-11.341992807153657,-0.18801674085939205,0.8996284802455546,0.041068882748254126,0.02220771686471311,-8.965284724677696,-54.25612614124009
1761286339.807884,-11.86872837180748,-0.17642748489204133,0.8969342437234851,0.04947314697646077,5.363093522600265,-11.003993426847224,-53.08985241315291
1761286339.8180387,-12.375797058176495,-0.1660473629599428,0.8950479236562081,0.058139471180766206,10.15613325884166,-12.368489590498303,-51.88317898226479
1761286339.8281152,-12.863144853099426,-0.1583151173757247,0.8942894859214635,0.06734934815133868,14.278272480251388,-13.171016295010036,-50.5883451645899
1761286339.8377402,-13.330722072576437,-0.15413596247941488,0.8947343611792433,0.07728017217314914,17.634246397879078,-13.584986782341328,-49.15250566635033
1761286339.8483832,-13.77842362771799,-0.15384780073155077,0.8961260331729108,0.087906522045555,20.163455086827888,-13.81493297598656,-47.52810436388589
1761286339.8580554,-14.20613883175247,-0.1572730260465049,0.8978295627354472,0.09892458805256105,21.845941639708197,-14.059995829158161,-45.68430654865767
1761286339.8685062,-14.613910899427879,-0.16384291657922653,0.8988402075389403,0.10971844076322587,22.706814370572346,-14.476111514555932,-43.61771909622635
1761286339.8777437,-15.002180372906048,-0.17277432385067565,0.8978560591929813,0.1193804768657375,22.818449649864004,-15.142675863744637,-41.360318839553216
1761286339.8880167,-15.372063708567193,-0.18327362670707323,0.8934184024986108,0.12678898556189858,22.299807564598364,-16.03940275017219,-38.98255005619053
1761286339.8982508,-15.725602366949033,-0.1947397448682094,0.884116618056876,0.13073567687624593,21.312239668315026,-17.038223867682653,-36.58999754635184
1761286339.9078057,-16.065911761403253,-0.20693615581713526,0.8688442234310723,0.13008715403270493,20.051329381171065,-17.91334291986529,-34.31287900813398
1761286339.917771,-16.397165359885026,-0.22010212987733202,0.8470793285674475,0.1239576796889566,18.734618472346742,-18.37004657841995,-32.288757439736166
1761286339.9277442,-16.724368019737103,-0.23497682588842242,0.8191491540693473,0.11186654797232694,17.585553510519684,-18.089891819217254,-30.64021014825865
1761286339.937757,-17.052902680160848,-0.25271731968753225,0.7864288737716124,0.09385267465034619,16.814625529907946,-16.786886335614803,-29.45048887022615
1761286339.9477339,-17.387871082186997,-0.2747033372357764,0.7514247241729841,0.07052311656245669,16.59939986371316,-14.266755722940049,-28.741185735054206
1761286339.9591448,-17.733285401933003,-0.30223688235658736,0.717702698326743,0.04302252895760152,17.06576673475914,-10.479848536165655,-28.456269870700815
1761286339.9677513,-18.091197516762847,-0.33616353839492524,0.6896449609757007,0.012926531230101998,18.273047245847835,-5.558101584230556,-28.45633412028025
1761286339.9777622,-18.460873787842868,-0.37646382511340915,0.6720399961971949,-0.017920831348436115,20.205353679640698,0.1720088394370887,-28.52546558279097
1761286339.9877503,-18.83813615858223,-0.42188512861776317,0.6695342425326425,-0.04759398191352944,22.770755802300748,6.205585047448416,-28.391075979933266
1761286339.9977634,-19.214992584547993,-0.46969920609788823,0.685992722102863,-0.07426494018367182,25.808513944981616,11.905447228800911,-27.754722977762572
1761286340.0077999,-19.579663403390523,-0.5156658870622206,0.7238367968057042,-0.09635218907115284,29.103326154689405,16.574668718839447,-26.32988311871048
1761286340.0178962,-19.917067885750836,-0.5542558743719517,0.783448785183504,-0.11263234450348338,32.40468794207523,19.54746358097574,-23.881182530790344
1761286340.0277522,-20.20976949905978,-0.5791437635738546,0.8627512025289402,-0.12232421074669277,35.44931693256118,20.286729170157592,-20.258990043165465
1761286340.037829,-20.43930432389683,-0.5839428562098017,0.9570745772476789,-0.12516592414527322,37.984948079612906,18.474284239152265,-15.423652618824137
1761286340.0477638,-20.58775402759223,-0.5631227019361256,1.0594111029307236,-0.12150286547539263,39.79412980173221,14.079510244075026,-9.45507005928515
1761286340.0577562,-20.639386079619275,-0.5130178830155981,1.161101158513484,-0.11238140984574652,40.71648919444817,7.393896211958769,-2.5456985666382734
1761286340.0677574,-20.582172576279437,-0.43278822425921193,1.2529127758093037,-0.09960857058738933,40.66727035057822,-0.9772519438327356,5.021916549141127
1761286340.0781364,-20.409011877278896,-0.3251325347020681,1.3263625109908064,-0.08571082614869514,39.64921389474727,-10.169196807417347,12.909023323729087
1761286340.087778,-20.118509837258845,-0.1965255699050847,1.3750215704252255,-0.07373030190695724,37.754636457473424,-19.154563409413655,20.75980401791498
1761286340.097768,-19.715225900853024,-0.056789625015396035,1.3955015593810551,-0.06684367045768541,35.15542639528373,-26.871045173088056,28.23901338485471
1761286340.1078408,-19.20935012597392,0.08204385402699511,1.3878652900047792,-0.06786281670203868,32.080836479027305,-32.36126598992873,35.06243522269828
1761286340.1182494,-18.61584622429795,0.20741080523461325,1.3553652884198983,-0.07873682382919481,28.785995708471336,-34.90160586101186,41.01679947111035
1761286340.1277614,-17.953165289503914,0.308065943772194,1.3036159746757825,-0.10018675200661228,25.516840769949116,-34.09745103699091,45.968457218936834
1761286340.1377933,-17.241691109655427,0.37568681086330863,1.2394580403058033,-0.13156406984408042,22.478448714433203,-29.928785795577323,49.862222738925865
1761286340.1477723,-16.50210631323365,0.4059088333850705,1.1698123674779253,-0.17095459699109955,19.812953237817123,-22.740510008676555,52.71290059977292
1761286340.1577854,-15.753864651178528,0.39865622026788505,1.1007574683393266,-0.21548296010746903,17.590654582017123,-13.182882866233408,54.59213744374685
1761286340.167774,-15.013925759160015,0.35780725367365107,1.0369555406176236,-0.2617305645543691,15.814525289956501,-2.115870163943362,55.61271819870641
1761286340.1777575,-14.295864345218583,0.2903449692367627,0.981446157018783,-0.30617259380862144,14.435185122372229,9.504689147617517,55.911768214776245
1761286340.1877697,-13.60941151353943,0.20519885915247504,0.9357460083467652,-0.34556095001804393,13.371442847496938,20.741211604738734,55.633975585608134
1761286340.19785,-12.960427328435113,0.11199477868016307,0.900148040864552,-0.37721404779494905,12.531081503902417,30.7739644331263,54.91606376337633
1761286340.2079422,-12.351250249428292,0.019903782257319605,0.8741056927612972,-0.3992053333506635,11.82758378089091,38.975918106260465,53.87409050680292
1761286340.2177753,-11.781330766252111,-0.06327684547983689,0.8566072447327052,-0.41046234171523044,11.19042888344563,44.95757922186984,52.59529867182889
1761286340.2277608,-11.24803759248528,-0.1317458180283059,0.8464757840109588,-0.4107947570007292,10.568719762434165,48.580899638658636,51.13587845934071
1761286340.2378151,-10.747521803108953,-0.18201520497018026,0.842562492155903,-0.4008645853352905,9.929569693852477,49.944709039860854,49.525081103386285
1761286340.247764,-10.275530657102728,-0.212946624315726,0.8438316249372247,-0.3821006556827011,9.25352663394247,49.34642153989129,47.77487948903263
1761286340.2577734,-9.828074618489474,-0.2255419121101889,0.8493608015036508,-0.35655339506585265,8.529341029648052,47.22629168385166,45.89317216101767
1761286340.267804,-9.401870357651246,-0.22253132866985725,0.8582945041849076,-0.32669077434744426,7.749843327780963,44.101534048809505,43.89772753160667
1761286340.2777915,-8.994514288106169,-0.20781721415110985,0.8697891027499279,-0.2951502464016086,6.9099102845611835,40.49827295335531,41.8278756459388
1761286340.287846,-8.60438609087351,-0.18585085353035338,0.882976810632281,-0.264476212163192,6.006717848442442,36.88937797152371,39.751397120007525
1761286340.297771,-8.230332068355585,-0.161031997075698,0.8969602938274455,-0.2368805340186017,5.0418629526817,33.64544715056164,37.76500318168074
1761286340.3077583,-7.871221783093734,-0.13721392296800405,0.9108361206902355,-0.21406136609357396,4.024556867593284,31.004350423582753,35.988031737250466
1761286340.3177948,-7.525497480651086,-0.11737256822333156,0.9237379385635466,-0.19710367885804403,2.9749317956895047,29.061996117329347,34.55024439557121
1761286340.3277917,-7.19083787556053,-0.10346341406855548,0.9348890090108511,-0.18646748817700434,1.926491505228327,27.783776961824216,33.575647374692316
1761286340.3377664,-6.864034361494031,-0.0964531673043041,0.9436555240042094,-0.1820530122478142,0.9268233351756845,27.033080658753853,33.164901105139954
1761286340.3477561,-6.541132260240103,-0.09648282984840127,0.9495940985742928,-0.1833205201036434,0.03587487543823662,26.61088992905678,33.37906432502556
1761286340.3578439,-6.217831489260887,-0.10310065977308351,0.9524878502475644,-0.18943772842882442,-0.6785847017025586,26.299244023032944,34.22716423935917
1761286340.367753,-5.8900824501934945,-0.11550039640320026,0.9523657282071286,-0.19942781915646654,-1.148244598517489,25.90132664358222,35.659489485668246
1761286340.3777757,-5.554765911427731,-0.1327104641538134,0.9495002580451841,-0.21229503768334262,-1.3136576157068893,25.272102093178546,37.56770112733921
1761286340.387779,-5.210318465930134,-0.1536993750697298,0.9443811856440488,-0.2271119462945657,-1.1346208802609041,24.33549983632162,39.79197498792859
1761286340.397779,-4.8571618182169605,-0.17738619158415267,0.9376674757505872,-0.2430620288945275,-0.5999664187941256,23.08677437592816,42.13452401183733
1761286340.4078503,-4.497816100106647,-0.20256920412599697,0.9301261727067474,-0.2594417587026896,0.2650065284306615,21.581384258565098,44.37808074847534
1761286340.4177606,-4.136624844310205,-0.22780917391569555,0.9225701798081105,-0.2756355427463646,1.3951473174308344,19.91407334861741,46.3073136867463
1761286340.42777,-3.779089223546315,-0.2513222813062814,0.9158052706503871,-0.2910834062505685,2.6874114602522923,18.19338322001451,47.73075987618183
1761286340.437774,-3.4308920779774623,-0.27094532993944753,0.9105899664707204,-0.3052631869248339,4.008733329492277,16.517282888733416,48.50070875492153
1761286340.447764,-3.096771792200369,-0.28422502625123575,0.9076042631450842,-0.3177051142221136,5.20940431499498,14.95488258171028,48.5285611989668
1761286340.457784,-2.779463300446335,-0.28865354867325466,0.9074209968845083,-0.3280465054802094,6.140474450501615,13.537448881082508,47.79350697880887
1761286340.46791,-2.4789415195526208,-0.2820305043295146,0.9104803786479205,-0.33611888371088117,6.672782671714406,12.259542275462415,46.34296714021281
1761286340.4780264,-2.1921701732457053,-0.2628877325501072,0.9170772683574911,-0.3420426030774557,6.714681515495703,11.088677319847163,44.28422139075257
1761286340.487772,-1.9134736796349323,-0.2308818341077098,0.9273702482985804,-0.3462914537118903,6.2254809801765925,9.980154162552884,41.76796743007215
1761286340.4977748,-1.635520608434385,-0.1870520023651556,0.9414104963670799,-0.34968915925660843,5.222143671078869,8.893027419173395,38.96601262652658
1761286340.5077734,-1.3507598211757261,-0.13386225378895397,0.9591781303208419,-0.3533145270352669,3.777779684858958,7.803503405087534,36.04649362550291
1761286340.519211,-1.0530278907661637,-0.07499262967321972,0.9806102184343973,-0.3583165470750328,2.011851385960998,6.713102074324662,33.150591910664595
1761286340.5283117,-0.7389935064881437,-0.014901975080047378,1.0056039973999995,-0.3656636612661293,0.07344365837473522,5.650408358678327,30.374475682726686
1761286340.5377917,-0.4091406356932247,0.04176061040570516,1.03398095810221,-0.37586622680253645,-1.8798126850440633,4.666854577245518,27.75918837511686
1761286340.5477624,-0.06810157697692708,0.09078394019227559,1.065409384345175,-0.3887203833220156,-3.7038194557779356,3.8282994017842453,25.2896545981595
1761286340.5577703,0.27570080165289756,0.1289442193072074,1.0993042759763647,-0.40312978582550557,-5.287594583430521,3.2048181718342885,22.902256696481167
1761286340.5680146,0.6109936420759573,0.15437755820224958,1.1347409916715867,-0.4170659590229289,-6.56728651537875,2.8609619028345326,20.49896989252886
1761286340.5777564,0.9249591436828644,0.16671849310118897,1.1704196681534138,-0.4277159509377323,-7.532473719896165,2.847955677288323,17.9651606696774
1761286340.5878615,1.2046429080291072,0.16700075034009956,1.204702976091576,-0.43182851998560173,-8.224005379961065,3.1982942250854833,15.187966678463438
1761286340.597786,1.4382312923715428,0.15736704763814596,1.235731570251783,-0.4262166639468305,-8.724348603416747,3.9223976203980873,12.07258476449091
1761286340.6077902,1.6160357949919115,0.14066787192484037,1.2616067295485018,-0.4083282465996672,-9.142937709454076,5.0066664752917465,8.554583554597427
1761286340.6177754,1.731108637121891,0.12003720385088096,1.2806163132406643,-0.376775293256718,-9.59977870164094,6.412402627173692,4.607300047334251
1761286340.6277843,1.77948978075731,0.0985173725717507,1.291466501024335,-0.33171783349040707,-10.210303198978087,8.075483261352732,0.24426148822731958
1761286340.6381812,1.760138492023192,0.07877469456883474,1.2934725591106913,-0.27502320873302843,-11.073449744697188,9.907226452406627,-4.482775664016571
1761286340.6478832,1.6746285674837111,0.06291478960481656,1.2866637899951001,-0.21016034809296724,-12.26368804156423,11.797354861351748,-9.48922924518358
1761286340.6577654,1.526689554612834,0.05238210118617443,1.2717727771713971,-0.14183420687508427,-13.826657449622823,13.620094470116705,-14.665510785684562
1761286340.6691532,1.3216656676142091,0.04791842706263588,1.2501042285615,-0.07540925652173544,-15.777521032528316,15.244047195292298,-19.886299229137848
1761286340.6789742,1.0659492796965935,0.0495606616533605,1.2233097500304806,-0.01620562220508053,-18.101054132872182,16.545555466286437,-25.0203955576332
1761286340.6881506,0.7664330142408141,0.05667204641533186,1.1931234203707433,0.0312243193908301,-20.752751011503676,17.424066843286326,-29.940333592212994
1761286340.6983137,0.43001484012022695,0.06801361008578069,1.1611252169861246,0.0637192766922937,-23.66066760948209,17.816891764796367,-34.53096940246898
1761286340.7077618,0.06318284522982262,0.0818652948794834,1.1285857577456853,0.07992043304206298,-26.728139241685845,17.71012930325366,-38.69638142070571
1761286340.7178044,-0.32830082188873205,0.09619855753418252,1.0964132217901879,0.08039288858072796,-29.83773555089521,17.142717945547442,-42.364603698177035
1761286340.7277994,-0.7396048111660063,0.10888870761776487,1.0651902828396576,0.0674368312101199,-32.85674660865721,16.201668238843713,-45.48997406228617
1761286340.7382054,-1.166918903018634,0.11794172503295586,1.0352700600742093,0.04463562811653419,-35.644205186904074,15.008399128735437,-48.053193311449654
1761286340.7478004,-1.6074374192936518,0.12170124352074434,1.0068967745302615,0.01624399225031518,-38.05911425906411,13.69827016927586,-50.05951975634436
1761286340.757798,-2.05925609471181,0.11900082759081772,0.9803212992440726,-0.013455461475530825,-39.96929846610598,12.397197045411236,-51.535768062867966
1761286340.767833,-2.5212143432221663,0.1092375904186464,0.9558875596264838,-0.04071098636901873,-41.26016469156093,11.19999975907555,-52.52683232438388
1761286340.777798,-2.9927203215079166,0.09236337055444847,0.9340720788931638,-0.06269882202174099,-41.84261015729049,10.154561380733847,-53.09227666964828
1761286340.7877936,-3.473592088597675,0.06881063997668947,0.9154679258055111,-0.07772944768942547,-41.659325660761,9.25424544959843,-53.30321247545153
1761286340.7978115,-3.963935096812761,0.03938321569628868,0.900716196660389,-0.08527339123515029,-40.68881692547416,8.439043626576442,-53.23936185059337
1761286340.8079,-4.4640589161749675,0.005143378762415161,0.8904004127636604,-0.08584021534434741,-38.946658115598574,7.604317770579305,-52.98603599469976
1761286340.817799,-4.974421031127618,-0.032680778642998363,0.8849282991086578,-0.08075150936074439,-36.483826964325345,6.615116400328308,-52.630793896881535
1761286340.82789,-5.495578244525815,-0.07275693125617501,0.8844288708017664,-0.07184680985113245,-33.382405986826534,5.3238261473708555,-52.25974664027793
1761286340.8377752,-6.0281286536742495,-0.1136818203133176,0.8886896617705151,-0.06115862099067112,-29.749356890097708,3.5890769805010256,-51.95372190522082
1761286340.8478122,-6.572636874236141,-0.15399878268348902,0.8971494349006027,-0.05059284825529705,-25.70934895832433,1.2940672566231968,-51.78467418548005
1761286340.8578231,-7.1295467324471105,-0.19221479645605605,0.908947701081233,-0.041651949964387015,-21.39765339430105,-1.6373229003658423,-51.812733487045584
1761286340.86782,-7.6990936190017845,-0.22682916792171098,0.9230181631592074,-0.03523594944378873,-16.95390811454898,-5.228069206792596,-52.084130505989336
1761286340.8786173,-8.28123033169674,-0.2563809397551729,0.9382037814801732,-0.031548734449204155,-12.517191193403448,-9.440358768500742,-52.62999912346571
1761286340.888162,-8.875576205760007,-0.2795180081919426,0.9533694279639353,-0.03012354938313594,-8.222418884004886,-14.173536437074146,-53.465838636954295
1761286340.8977907,-9.481393013415042,-0.29508744703289075,0.9674937664490895,-0.029963571176868528,-4.197708564151148,-19.267926934397234,-54.5912941736477
1761286340.907795,-10.097586371384347,-0.30224227020492644,0.9797317596612418,-0.029773828605940425,-0.5620956382867538,-24.514313852566115,-55.98992263248972
1761286340.9177926,-10.722729377353781,-0.30055411099443247,0.9894480682432981,-0.0282437504843806,2.57709633915773,-29.66841219242909,-57.62875000956235
1761286340.9278412,-11.355103499033453,-0.2901141402997171,0.9962261888472229,-0.02432935747704949,5.127833857697771,-34.46929260005077,-59.45764362959981
1761286340.9378207,-11.992748205455735,-0.271598381624257,0.9998587332562223,-0.017482548984181372,7.018190370491119,-38.660357959445285,-61.40874700649459
1761286340.9478502,-12.63350730214373,-0.2462736766791549,1.0003227950449847,-0.007782441063651169,8.20220316629442,-42.01112228903613,-63.396402053554866
1761286340.9578001,-13.27506038327943,-0.21593065127053004,0.9977423853944799,0.004059747923305101,8.666021759056319,-44.337750019762076,-65.31807623488817
1761286340.9678428,-13.914933658432341,-0.18274725509638656,0.9923385162966752,0.01682653300950319,8.433154928866271,-45.52018790494222,-67.05677593309335
1761286340.9778495,-14.550493197504338,-0.14910276072100803,0.9843677198208022,0.02902716069899417,7.567439942265334,-45.51389293913822,-68.48523286960335
1761286340.9882085,-15.17893140434406,-0.11737093278612923,0.9740521776795471,0.039189204668250405,6.172524401956943,-44.35470837432373,-69.4718325208446
1761286340.9980807,-15.79726108375363,-0.08972134344457684,0.9615087546796025,0.04614567380099567,4.387149434022221,-42.15631278426028,-69.88790064213157
1761286341.0078795,-16.402329043095797,-0.06795199848451529,0.946688766967583,0.04925695010581181,2.376226072498463,-39.100656050917216,-69.61566772339471
1761286341.0178046,-16.99085257656569,-0.05336728809116448,0.929343818232487,0.04852627136409358,0.31843847638511674,-35.42262031600119,-68.5560633817607
1761286341.0278413,-17.55946943755349,-0.04670549344508183,0.9090342124730983,0.04459529534981599,-1.6082412744427033,-31.390597834102746,-66.63550329119431
1761286341.0378723,-18.104779801053123,-0.04811312521205796,0.8851937805693786,0.03863103747784513,-3.2412741747395364,-27.28472442551529,-63.81102644008446
1761286341.0478096,-18.623353789575834,-0.05716207672804004,0.8572571622708092,0.032131257223831526,-4.446478301358651,-23.374258403130533,-60.07346954251259
1761286341.0578175,-19.111685617508776,-0.07290951507397761,0.8248432469151348,0.02668362622423177,-5.127325594260786,-19.89526212159193,-55.448742510814554
1761286341.067854,-19.566095703934028,-0.09400496912200695,0.7879745120672318,0.023717364444277474,-5.2293655293661185,-17.029596318347963,-49.99758558695147
1761286341.078032,-19.98260933056685,-0.1188479111528263,0.7472998051185213,0.024283665610646078,-4.739379024078042,-14.886487792326264,-43.81431145604618
1761286341.0880098,-20.356864809599838,-0.14578967470496296,0.7042799193710274,0.028892517533654852,-3.6798047341488367,-13.488574242325663,-37.02486841084683
1761286341.097801,-20.68411680119629,-0.1733598181805508,0.6612928710683802,0.03742225683417751,-2.0998075087605526,-12.76509179055709,-29.784159051565684
1761286341.107908,-20.959395871706157,-0.20048486030237114,0.621620824961808,0.04910860413380858,-0.06486446266196487,-12.555294486940262,-22.272133470888186
1761286341.1178274,-21.17785986744528,-0.22665775951087405,0.589293217248319,0.06261141220516837,2.353213427985357,-12.624797534852442,-14.687987520906935
1761286341.127807,-21.335324163239914,-0.2520087414448796,0.5687785655690316,0.07614832257104917,5.0842944672766475,-12.695978776222354,-7.241942275846188
1761286341.137816,-21.428892767473105,-0.2772277556552673,0.564538189406837,0.08767821591510504,8.065049858142677,-12.490850140623888,-0.14451644642235864
1761286341.1477978,-21.45755233842664,-0.30330715320260837,0.5804766927252072,0.09511772516419173,11.240824177384994,-11.781393477563425,6.406197266105436
1761286341.1578221,-21.422566408775197,-0.33111496483106373,0.6193438387777532,0.09657791798548794,14.564262599879758,-10.439146420406168,12.238165715192885
1761286341.1678202,-21.327535710251656,-0.3608651690716024,0.6821571862572425,0.09060768543003646,17.990936880245584,-8.47386937763667,17.21852865052147
1761286341.1778364,-21.178065219928342,-0.3916034565376961,0.7677248581901671,0.07642245149417615,21.472485663961933,-6.051252862864297,21.26474563147927
1761286341.1879003,-20.981073195145022,-0.4208580119088783,0.872356668962954,0.05408532501476193,24.94830939187844,-3.4822161118770927,24.35256371000196
1761286341.197809,-20.74386342968418,-0.4446020912670283,0.9898581270014997,0.024597551749625444,28.337700888727284,-1.1812413417863123,26.519904430138173
1761286341.2078009,-20.4731386324844,-0.4576300706366737,1.1118937569622567,-0.010149452869494589,31.535173235908992,0.4023724336291645,27.866021768535024
1761286341.2178018,-20.174148570034326,-0.45435993495040594,1.228767599461617,-0.04759877658884863,34.412038530156785,0.8697912615915432,28.545477052062925
1761286341.2277858,-19.850138141060103,-0.4299558140553743,1.33058889076566,-0.08493258787602767,36.8263500021154,-0.04128956478345091,28.7567311836386
1761286341.2377954,-19.50219507579845,-0.38154365666932405,1.4086719268549306,-0.119595892869823,38.640973670638964,-2.3877132272739097,28.725556495376175
1761286341.2478275,-19.12951270732704,-0.3092129629152895,1.4568902989619548,-0.14980697213585942,39.74640523276686,-5.9850701465865725,28.684004533700318
1761286341.2577999,-18.730002997423767,-0.2165024877820987,1.472637623221909,-0.1748882224166105,40.08232421497501,-10.415047405371409,28.846339682633296
1761286341.2678185,-18.301135859617958,-0.11018526469542575,1.4571178668237974,-0.1952964013166252,39.651304977551355,-15.076897749369683,29.384279158580924
1761286341.2778096,-17.840849933045487,0.000627150135984058,1.4148978498209028,-0.21234710145142977,38.52025052284572,-19.274087016651993,30.40505421249504
1761286341.2878153,-17.348377762739958,0.1058373226287846,1.3528918632779086,-0.22774880896826843,36.80907424187857,-22.319151152747395,31.936707186627707
1761286341.2977996,-16.824852276224018,0.19584020442436142,1.2790866445113593,-0.24311698417753963,34.67006151617172,-23.63628373757416,33.92474419885102
1761286341.3078232,-16.273605471601556,0.2628160824024617,1.2013161558624124,-0.25960998134234753,32.263715976040686,-22.843251790634806,36.24220344529006
1761286341.317998,-15.700124383245052,0.30163195485849914,1.126306046359615,-0.27774984023226723,29.73722896622511,-19.800598812860727,38.711844475962295
1761286341.3278103,-15.111683208938254,0.3102696327817112,1.0590908194012405,-0.2974115217436954,27.210182375156776,-14.623908778024601,41.13588376906116
1761286341.3378305,-14.51671659781333,0.2898014677055952,1.0028049033307853,-0.31792004159940246,24.76931012505731,-7.661615248948747,43.326882634806374
1761286341.3482199,-13.924032754335688,0.24399985210042086,0.9587804157240118,-0.3381945536074006,22.47112080126832,0.5547282541913972,45.13360596503502
1761286341.3578053,-13.341982310324461,0.17869535619935759,0.926851563530535,-0.3569044509161847,20.34907001908724,9.378581428864203,46.45753833946922
1761286341.3678203,-12.77769780487972,0.10099966278331332,0.9057632040644081,-0.3726292584563144,18.421462477320706,18.1252112384801,47.2584034226451
1761286341.3779285,-12.236501162585697,0.018494073414985303,0.8936003339034575,-0.38402524937756005,16.697257667048028,26.147798825589195,47.54961573494226
1761286341.3880172,-11.721548611259804,-0.06153829423133702,0.8881825714535716,-0.3899961859260914,15.178719540467974,32.90450424936462,47.386465102135375
1761286341.3978298,-11.233749721321063,-0.13278004698537157,0.8873893333703716,-0.3898517911738277,13.8615008890173,38.00957588131345,46.85068139607312
1761286341.4078138,-10.771961702958532,-0.19040426345876585,0.8893935168520398,-0.3834259790699972,12.73366046883944,41.263517616468796,46.034882953161485
1761286341.4178555,-10.333421954407404,-0.23141939523149208,0.8927913947755624,-0.37112574864218917,11.775116916653738,42.659770886778325,45.02957402287556
1761286341.427794,-9.914344836672981,-0.25480157488212923,0.8966317596247163,-0.3538939722846766,10.958429562887689,42.36819225776099,43.914222095208174
1761286341.4378467,-9.51058143028495,-0.26139667559892626,0.9003662918486349,-0.33309045757425976,10.251036869214182,40.69851469837147,42.75284019607507
1761286341.4478261,-9.118232465188012,-0.25360546552485475,0.9037561180733811,-0.3103158909472908,9.618540116782642,38.04961479995463,41.593598902074795
1761286341.4578438,-8.734118331074088,-0.2349036891314771,0.9067690780153324,-0.2872144463173696,9.02839794053939,34.85234562086206,40.47136950228299
1761286341.4678493,-8.35604290171575,-0.20927923473870327,0.9094901232377782,-0.26529061019615746,8.453411637673835,31.514444719755012,39.41179196151466
1761286341.4778318,-7.982831588528824,-0.18067926751218855,0.9120524865099278,-0.24576667873493915,7.874500530685855,28.37526190612743,38.43548476707942
1761286341.4878228,-7.614168447601242,-0.15254976853424004,0.9145877391459887,-0.22949440446024735,7.282400909724756,25.675898931041747,37.561319060604305
1761286341.4978387,-7.250293769045226,-0.12752478809729453,0.917190179632299,-0.21692264784432105,6.678036956285263,23.547379063171935,36.808134726076375
1761286341.5078018,-6.891647266564091,-0.1072918034532211,0.9198919149410083,-0.20811572431012598,6.071417479071435,22.016359525200205,36.194725244401475
1761286341.51782,-6.53855018861324,-0.09262932901196005,0.9226460216625404,-0.2028140834245033,5.479049594687198,21.025210320435466,35.738269925049416
1761286341.528196,-6.191010541740686,-0.08358619646503793,0.9253153567665172,-0.2005274766059086,4.9200735533699165,20.461341498074344,35.45164329321984
1761286341.5378199,-5.848707787697775,-0.07974994467132351,0.9276651858418602,-0.2006486735527383,4.411609521249754,20.18964532807299,35.3402104698731
1761286341.547819,-5.51116802087441,-0.08053661582177878,0.9293602152934666,-0.20257270815530595,3.9640898552616095,20.081928741624704,35.39882827643211
1761286341.5578203,-5.178084715425124,-0.08542993781347254,0.9299705750780021,-0.20580398395239274,3.577508893022746,20.03826309412797,35.60978898952764
1761286341.5678158,-4.849688115021837,-0.094109155867455,0.9289946439224044,-0.2100336705839554,3.2394688373238956,19.99713037641125,35.942338131281616
1761286341.5778098,-4.527036787706488,-0.1064334243382923,0.9259067756019471,-0.21517431990550465,2.9256313322705854,19.933742864626748,36.35415861696441
1761286341.5878773,-4.212111740701159,-0.12229118710450125,0.9202339672236295,-0.22134695165547588,2.6027695485692988,19.84844342594008,36.79486058454731
1761286341.5982637,-3.9076378950396435,-0.14136283605645142,0.9116586883483219,-0.22882550616075384,2.2341499045692363,19.749106763260773,37.21110741394996
1761286341.6081088,-3.6166269543081095,-0.16287100032307014,0.9001379571116117,-0.23795188347578117,1.7865360570605562,19.63251515109153,37.55263287539933
1761286341.6197722,-3.341709852442715,-0.18539839609528322,0.8860227076447849,-0.24904010832798076,1.2377565386358573,19.46958229054637,37.778150443833916
1761286341.6278157,-3.084387069857884,-0.20683944212114985,0.8701563063820267,-0.26228985102116426,0.5835517553893674,19.198172827437773,37.86007946102309
1761286341.6378036,-2.8443578914359886,-0.22452412941243308,0.8539267029415984,-0.27772760097151405,-0.15765140240744605,18.725473787491932,37.78713038145657
1761286341.6477985,-2.6190890107789357,-0.23551632942164896,0.8392449832743218,-0.2951880810462659,-0.9432634328109953,17.939829451522353,37.564087679204846
1761286341.6577952,-2.403749685881373,-0.23704856665587679,0.8284275324540165,-0.3143385562427696,-1.709219096226167,16.730003404335964,37.20856647509734
1761286341.6677933,-2.191581429535644,-0.22701791130537025,0.8239736007692451,-0.33473502346778505,-2.377068940148137,15.008271499012038,36.74504869310711
1761286341.6777987,-1.9746943732724684,-0.204443098986538,0.8282555545017293,-0.35588465151784066,-2.8648788032727897,12.732821260956449,36.19706222946119
1761286341.6878252,-1.7451998939333502,-0.16978058305729482,0.8431669368840695,-0.3772793914699078,-3.100440071791507,9.924801649345468,35.578844147906516
1761286341.6979675,-1.496510962625885,-0.1250196226714475,0.8697889390393885,-0.39837081600582236,-3.0345717306023263,6.676094441926151,34.88807806054276
1761286341.707784,-1.2245845937895148,-0.07351880698810834,0.9081332838271471,-0.41848150343824336,-2.6520063194821737,3.1454250390851333,34.101202377358696
1761286341.7178981,-0.9288673652285715,-0.019599332496151648,0.9570070952130427,-0.43668398240431117,-1.9776515192331596,-0.45739216041695346,33.17234837325256
1761286341.7278051,-0.6127526256753739,0.032037268303743136,1.014030600316159,-0.4517034392902889,-1.076868915998216,-3.8968712981111513,32.03630010117067
1761286341.7378118,-0.2834618507809489,0.07695942381610568,1.0758189961214988,-0.46190195174632714,-0.049586849492922344,-6.94265772780681,30.615142977018422
1761286341.7478664,0.04861060904797032,0.11160081760533051,1.138312310327751,-0.46538210623305815,0.9807262258331989,-9.4002453719774,28.827640461817307
1761286341.7578049,0.3709466013294318,0.13369367135070856,1.1972077951295366,-0.4602149858469357,1.8812076172017373,-11.136166591997428,26.599947493694334
1761286341.7678092,0.6701544158895476,0.14247645256820415,1.2484300240582553,-0.4447608583367376,2.524262119978475,-12.093435854191771,23.87606918285194
1761286341.77781,0.9332304783601237,0.13866723715233537,1.2885702393913823,-0.41802043162677743,2.800111675133189,-12.295056986976112,20.626490555395705
1761286341.7878096,1.1486774597357552,0.12424107360090231,1.315234853333948,-0.3799386168829253,2.625180412389989,-11.835661821632687,16.85361561803504
1761286341.797812,1.3073694683485386,0.10207723423058215,1.3272576592447123,-0.3315855669909139,1.9453044748229342,-10.863304024958143,12.593065380135927
1761286341.8078399,1.4030999601844423,0.07554835641973143,1.3247499512328558,-0.2751616270802721,0.7339902016856006,-9.554760912953839,7.910505414486928
1761286341.8178258,1.432787573428946,0.04811314258128634,1.3089876375567333,-0.21380977295576073,-1.0129387706825752,-8.088325739332792,2.894448228183823
1761286341.8280444,1.3963485400479871,0.022955324229639286,1.2821617893364374,-0.15126235610363767,-3.2842275047533587,-6.618105707276319,-2.3537578449059713
1761286341.8378243,1.2962735240552157,0.002692528293739961,1.2470427581514065,-0.0913869865273194,-6.059332460489256,-5.253425358779184,-7.730982519658904
1761286341.8478281,1.1369744875818064,-0.01083393571819563,1.2066210090509242,-0.0377185156504469,-9.311906954842033,-4.046173081283376,-13.142427361911183
1761286341.858298,0.9239936282967879,-0.016682438738583532,1.1637853598076773,0.006936107022367357,-13.00954595179094,-2.9878426961723563,-18.509021497144467
1761286341.867852,0.6631860862724238,-0.014843595742889059,1.1210817323104483,0.0407554734426599,-17.109830604192375,-2.016613568221217,-23.770946156651217
1761286341.8778043,0.35999183244467986,-0.0061824473679335645,1.0805697385597512,0.06299562176625705,-21.553862816183056,-1.0331990038011447,-28.887054322625794
1761286341.887833,0.018893453519363564,0.007700547872149017,1.0437710606939505,0.07392646022745898,-26.25932343060458,0.0773171304530471,-33.830907137942646
1761286341.8978312,-0.3568826989778633,0.02467005832320974,1.0116899133790382,0.07465211016733851,-31.115350754895438,1.4214421461087352,-38.58485506655846
1761286341.907832,-0.7654136192396871,0.04229136046272776,0.9848817437561904,0.06686823111619923,-35.98114620267217,3.0750375734951,-43.1338514289616
1761286341.9178283,-1.2059110362946612,0.05807425359048832,0.9635471457124479,0.05260784243919857,-40.68934995903693,5.066287028236842,-47.460469934721246
1761286341.9279435,-1.6784015093828606,0.06970488109777202,0.9476300607015543,0.03401501762106101,-45.0542159056921,7.3660946636269085,-51.54205198229996
1761286341.9378133,-2.1833285909764384,0.0752517650572782,0.9369023341756467,0.013169020202503219,-48.88372417694712,9.886751003768035,-55.35024755972724
1761286341.947818,-2.7211437171941353,0.0733355982921056,0.9310220294837568,-0.008035178713517175,-51.99412705125328,12.488425252023127,-58.852609840288935
1761286341.957825,-3.29193722688832,0.0632518246727673,0.929560696857317,-0.027957443177381695,-54.22506357763418,14.992057027059758,-62.0154825272414
1761286341.9678533,-3.8951434281909663,0.045034278252180066,0.9320031263708551,-0.04524965242824644,-55.453312247298406,17.19658755191713,-64.80727020058451
1761286341.9778247,-4.529337854391747,0.019450585542242157,0.9377299169139813,-0.058876784229351616,-55.60346441914071,18.898205516612222,-67.20132238510733
1761286341.9879732,-5.192132514253509,-0.012073594462982128,0.9459971309510815,-0.06813465403815609,-54.65423016190586,19.909385653757347,-69.17800159146519
1761286341.9978325,-5.880166403944376,-0.047595445588147,0.9559272828975164,-0.07266828632046696,-52.63965273351442,20.075935644125714,-70.72589486064282
1761286342.007831,-6.589183393667314,-0.08484527363292978,0.9665220039384506,-0.07248529609051037,-49.64516252770214,19.290930290426775,-71.8424381093002
1761286342.0178497,-7.314186799905802,-0.12144287513079408,0.9767012516979642,-0.06795257539594968,-45.79910604160179,17.50507652145816,-72.53436407376722
1761286342.0278344,-8.049657945215978,-0.15511427336434533,0.9853694870388353,-0.059764926172133706,-41.261039706445885,14.733433730518106,-72.8183066166379
1761286342.037825,-8.789823186594793,-0.18388651809973044,0.9915056430187245,-0.048880142419292,-36.2085390153182,11.058348750916222,-72.72160914199043
1761286342.0478692,-9.528949363815148,-0.20624458768900059,0.9942685997352961,-0.03642282057228348,-30.824421374300563,6.628069803841097,-72.2829873839833
1761286342.057985,-10.261641639911472,-0.22123996421147507,0.9931027204316667,-0.023565910745056196,-25.286043959908564,1.6501241997233482,-71.5523402389866
1761286342.0678225,-10.983111706891213,-0.22854359674937805,0.9878219173548993,-0.011403527653476901,-19.757723126920084,-3.6214574509971125,-70.58884614820882
1761286342.0778558,-11.689380827176363,-0.2284383145657683,0.9786496932174643,-0.0008303131697812931,-14.386487542056052,-8.905413085186765,-69.45663436010115
1761286342.0878286,-12.377384234577164,-0.22175050279538513,0.9661983581816973,0.007558437422673963,-9.30059651874149,-13.918232840388749,-68.21779976936917
1761286342.0977983,-13.044953125339116,-0.20972917623934267,0.9513823521521921,0.013534480791641709,-4.609751253610334,-18.402635039092484,-66.9232541171156
1761286342.1078298,-13.690667471557404,-0.19388982996425908,0.935275727458259,0.01726327173238315,-0.4057639360195395,-22.15598487768306,-65.60268942825392
1761286342.1181037,-14.313594361764409,-0.17584673905233225,0.9189378665948554,0.019282339026833583,3.2374159701857304,-25.05431913888424,-64.25553407827307
1761286342.1279187,-14.91294853120778,-0.15715873105485106,0.903239054651197,0.020427308667009786,6.26504610219506,-27.067679715793506,-62.845018787651874
1761286342.1378243,-15.487730131132608,-0.13920964155290044,0.888716036447374,0.021708537565706912,8.644492639440546,-28.26339309488817,-61.297257671661626
1761286342.1478212,-16.036405611279275,-0.12313621950076285,0.8754797588477998,0.024151221436457964,10.369279198398257,-28.795643620588088,-59.5066002507366
1761286342.1578627,-16.556697140660187,-0.10980506684125257,0.8631880529677279,0.028620543400192672,11.463354531717513,-28.881869257145556,-57.347508762791726
1761286342.1678207,-17.045532258530976,-0.09982980795192006,0.8510879009059553,0.03565784469701351,11.98432584398601,-28.76870704725989,-54.69201979204219
1761286342.1778252,-17.499179835072443,-0.09361341754522363,0.8381252610658809,0.04535375319158879,12.024373168285917,-28.691987596655768,-51.43068420031234
1761286342.1878657,-17.913565789837694,-0.09139970439231275,0.823114461720651,0.05728078720106994,11.707861513799974,-28.83633792787766,-47.49398672833684
1761286342.1978786,-18.284728951447427,-0.09332170622501763,0.8049534100145083,0.07050146899554083,11.185232181241531,-29.300211944041642,-42.87080927792856
1761286342.2078311,-18.609350403049547,-0.09944177973677344,0.7828650889130391,0.08365815111858982,10.623420039139328,-30.07169597059421,-37.6206001923465
1761286342.217844,-18.885273774381968,-0.10978603382102205,0.7566401890141657,0.09513814302912874,10.193623164946679,-31.019375541575236,-31.876551117314662
1761286342.2278228,-19.11193205757039,-0.1243804957870878,0.7268510213387951,0.10329415000481448,10.057623857567087,-31.9010187574894,-25.838230121428335
1761286342.2384841,-19.29060846065264,-0.1432939461205574,0.6950043819089422,0.10668783105993618,10.35402308378346,-32.39088661098172,-19.753678753294842
1761286342.2484221,-19.42448127819512,-0.16668116004974406,0.663601585441301,0.10431576792322923,11.185764594105306,-32.124157400182995,-13.892732825210325
1761286342.2578456,-19.518430324691963,-0.1948032899786216,0.6360769392202663,0.09577486772522774,12.610214197858912,-30.754351233855424,-8.514942722345086
1761286342.2678344,-19.578609902416908,-0.22798734517319488,0.6165912613461176,0.08133116784091424,14.632815750512354,-28.017003150001354,-3.836631156317553
1761286342.2778533,-19.611818354488012,-0.266485373369096,0.6096670719918311,0.06187411115758781,17.205001347964952,-23.790589010206464,-0.0021227313378764253
1761286342.28785,-19.624718614452817,-0.31021448641507215,0.6196706817221953,0.03876542166527205,20.22665668164508,-18.144444762612586,2.9361217587770376
1761286342.297847,-19.62298971196551,-0.35839990741732897,0.650174753458424,0.01362000147428167,23.55305791970692,-11.363734755448819,5.024910184084321
1761286342.3081737,-19.610512489136337,-0.4091916798754088,0.7032694426866222,-0.011924655495492237,27.005761544582782,-3.943797045066166,6.4036974983560455
1761286342.317842,-19.588704331946047,-0.4593633767895562,0.778924131344809,-0.03639290666219845,30.386428811098178,3.4496411831490685,7.284862528627169
1761286342.3278341,-19.55610903897238,-0.5042148258936221,0.8745265539747018,-0.058572983751196406,33.49215971904233,10.052454976543055,7.924232501711194
1761286342.337852,-19.5083190753053,-0.5377867808215703,0.984731725643615,-0.07754165329634782,36.130903826444474,15.09877518293312,8.586929458310555
1761286342.3478725,-19.438266168142825,-0.5534542631799223,1.1017305476542134,-0.09266175970298526,38.13604386373058,17.930030348099844,9.514206519079806
1761286342.3578446,-19.336870263087967,-0.5448941661079182,1.2159930445209124,-0.1036215064972578,39.37996691004708,18.100896880303516,10.896325307554097
1761286342.3696775,-19.19398917399657,-0.5073181170275409,1.317452540720279,-0.11055121383642912,39.78664394236256,15.465198257391952,12.854925168638673
1761286342.3787687,-18.999563574959698,-0.43873677544837775,1.3969762701231274,-0.11417737782579955,39.34242062943974,10.225358009816995,15.436176887509
1761286342.3882444,-18.744811383821297,-0.34092274787066024,1.4478367394392568,-0.11590455236132308,38.102621530510376,2.932444956721756,18.61385281423202
1761286342.3984885,-18.42330461232068,-0.21973438968710143,1.4668179462606004,-0.11771158995981065,36.19032729258347,-5.568926763542008,22.299848226349486
1761286342.4078672,-18.031772064066985,-0.08459888167108587,1.4546379478333993,-0.12182771052586701,33.784215878690254,-14.24581545464325,26.359035155415913
1761286342.4179766,-17.570517006571233,0.05279439873392696,1.415564864409855,-0.1302682312994302,31.095147519950828,-22.015486938454384,30.62564881017946
1761286342.4280074,-17.04341259057075,0.18027709908155146,1.3563662833703072,-0.14438391108403886,28.33512188002442,-27.891942639333816,34.91935844607873
1761286342.4381082,-16.457519326460815,0.2870073087623448,1.2849275429795584,-0.1645712984633918,25.685389693606012,-31.11342892487664,39.06018788615897
1761286342.447843,-15.822432580684504,0.3648822958531455,1.208916043768757,-0.19022012747730635,23.27135747591364,-31.22970520891917,42.88198970985222
1761286342.4579475,-15.149495847554633,0.4093179176804316,1.1347715915929162,-0.21988244706270804,21.150150729234596,-28.13855107219806,46.24403961294594
1761286342.4678671,-14.451006595962266,0.41936308741676037,1.0671472541344083,-0.25157919021397124,19.31307765105045,-22.072473982298693,49.03977884914364
1761286342.4778476,-13.739508405977672,0.3972788658218529,1.0087861951474517,-0.2831366483816267,17.70115426519367,-13.545247499253534,51.20138069474152
1761286342.487852,-13.027221694233917,0.3477892752281636,0.9607313895610782,-0.31246623691301084,16.228670679740837,-3.272116165620268,52.69913603599806
1761286342.4978263,-12.325628197543901,0.27720997586320134,0.9227302147702792,-0.33774689242758343,14.80834543341881,7.922291173285238,53.53567683100726
1761286342.5078926,-11.645199418033128,0.1926098716702205,0.8937045205436912,-0.35751770191372956,13.37212651267219,19.196399100653036,53.73638777500817
1761286342.5179324,-10.995248046684361,0.1010927069129645,0.8721907910614437,-0.37071973358318944,11.883749440325602,29.77522150426462,53.3384609362677
1761286342.527865,-10.383878299805493,0.009227237161523107,0.8566943155612243,-0.3767286546437607,10.34190777639347,39.01807150915741,52.381499344758005
1761286342.5378659,-9.818006696090242,-0.0773783688932461,0.8459331023015132,-0.37539650751945913,8.775355265822784,46.465421288145535,50.90217614624318
1761286342.5479422,-9.303413707081814,-0.1543671523739795,0.838968524468808,-0.3670906562659518,7.232749038215416,51.86177066168131,48.93430243625209
1761286342.5578468,-8.844773106238872,-0.2187880416644346,0.8352332795266814,-0.3527006770210998,5.770399783772817,55.15367603987646,46.514118193044084
1761286342.567855,-8.445600744851934,-0.26910749652754795,0.8344777238724336,-0.3335866421508156,4.440624586231102,56.46490219044613,43.68918313449184
1761286342.5778346,-8.108077509729489,-0.3050796689322778,0.8366643072512486,-0.31145852276881897,3.2825809253573626,56.05362618753421,40.52830393865993
1761286342.5878258,-7.8327342472225805,-0.3274969637370218,0.8418430755054103,-0.28819660223688437,2.3166506365870583,54.25905263076797,37.12967188493099
1761286342.597837,-7.6180326742098465,-0.33786477694919465,0.850035939445976,-0.26563943350398767,1.5427599800139875,51.446042345192964,33.62477535680865
1761286342.6078248,-7.459923070350848,-0.3380581628857207,0.8611463339006112,-0.2453745389710637,0.9424488047912077,47.95608376713059,30.176536335592846
1761286342.6178296,-7.351492548590816,-0.3300186639917102,0.8749001276882604,-0.22856643989296538,0.48401659063798813,44.071181928437305,26.971261970599038
1761286342.6278145,-7.282825655595684,-0.3155359276160654,0.8908168649045197,-0.21584857434041135,0.12968877478925966,39.994380692049035,24.20513910894918
1761286342.6378174,-7.241178054999587,-0.29613596191470715,0.9082073567117082,-0.2072937648290083,-0.1565053813338677,35.84734260278523,22.066916633896145
1761286342.6478498,-7.211519114093994,-0.2730740157702201,0.9261928620741301,-0.20246508342199623,-0.4015285471866339,31.6824571855987,20.71899289815663
1761286342.6578763,-7.177441086850776,-0.24741101621109082,0.9437418447801801,-0.2005368268544831,-0.6180495972784282,27.50488981136265,20.279313296658326
1761286342.6678789,-7.122372417044191,-0.22013956474284355,0.9597217422804488,-0.2004651790176877,-0.8019654349743803,23.299004620371846,20.806317443178187
1761286342.6778462,-7.030978874059905,-0.19231791069036389,0.9729639930036798,-0.20118152885745116,-0.9331177205639037,19.053616634625655,22.288748023364334
1761286342.6878664,-6.890594094585711,-0.16516813759540727,0.9823403449081699,-0.20177905504434884,-0.9790635289053338,14.78139805189231,24.641567138154073
1761286342.6978266,-6.692494906022422,-0.14009960446333475,0.986848210172039,-0.201664765576414,-0.9013198602573594,10.529324343941006,27.708622567877658
1761286342.7078583,-6.432833238362085,-0.11863288546616868,0.9857029152615646,-0.20065446292478425,-0.6632122852521604,6.379076295370495,31.27210120379428
1761286342.7178485,-6.1130645307115845,-0.10222361021869515,0.9784338150790589,-0.19899718731467847,-0.23830025776057462,2.4384619867153385,35.068188074019176
1761286342.7278461,-5.739776591897546,-0.09201505255494238,0.9649783598858845,-0.1973276943814926,0.3817419302514017,-1.1732891258364075,38.80772745955562
1761286342.737841,-5.323914213985006,-0.08857334667257229,0.9457642117291202,-0.19655791043634369,1.1809877584876967,-4.342527270518178,42.2001154860919
1761286342.7478418,-4.879492073625306,-0.09167006742694149,0.9217661573190024,-0.19772795413144273,2.116088151965756,-6.976660554221401,44.97821331063753
1761286342.7578516,-4.421967629291258,-0.10016992531957919,0.8945229459032654,-0.20184224447059673,3.1171270676505882,-9.01515230383298,46.92182520855692
1761286342.7678602,-3.966492293763395,-0.11206110054963311,0.8660999096326508,-0.2097162433954834,4.093067156342416,-10.434425070946162,47.87729235519798
1761286342.7778392,-3.5262715588168834,-0.12464017001436506,0.8389875221825897,-0.22185505371394168,4.94152256334005,-11.24650013253158,47.77102238077033
1761286342.7879126,-3.111247434598521,-0.13483654767699654,0.8159349232901298,-0.2383769431073388,5.561631751875838,-11.492455225849842,46.61528336950547
1761286342.7978551,-2.727272684631093,-0.13963368527882383,0.7997284050920942,-0.2589847386870785,5.867993597245537,-11.232701983341174,44.50533299210697
1761286342.807898,-2.3758790101287097,-0.13652128909339825,0.792932665484014,-0.2829799847525663,5.803208335457288,-10.536556981999247,41.60793322258005
1761286342.8185203,-2.0546582504409643,-0.1239034829680652,0.7976162300084758,-0.3093121093460591,5.346633265918426,-9.473484660969534,38.14244521752785
1761286342.82838,-1.7581872503927913,-0.10139422266550556,0.8150860953393932,-0.3366558113155143,4.517508917041963,-8.107721482682619,34.356786097202615
1761286342.8381002,-1.479341466387867,-0.06994552000234965,0.8456619963079718,-0.3635085085871526,3.3715665593934765,-6.496959124054665,30.501250300514414
1761286342.8494313,-1.2107686751867623,-0.03177056126750368,0.8885252070250542,-0.3882943689522624,1.9914985404927126,-4.694675960214591,26.803349619760777
1761286342.8578894,-0.9462520780958497,0.00995031759495964,0.9416786217657077,-0.4094600984418089,0.4730611563635043,-2.7547860054144726,23.44644718255198
1761286342.867885,-0.6817100237444573,0.051547846006041814,1.002050259236405,-0.42555675983495445,-1.0903056991582478,-0.7366655241874565,20.554250501077036
1761286342.8794646,-0.4156717797775066,0.08943793282968245,1.065753930373041,-0.43531305731111597,-2.62107725143356,1.2915275254141312,18.182381981426307
1761286342.889615,-0.14921364390432135,0.12066611386871025,1.1284880664822285,-0.43770639201271855,-4.066774581315707,3.252881394609273,16.31739850197509
1761286342.8992634,0.11451673027614036,0.1433012031282728,1.1860179621984221,-0.4320313601756255,-5.403293388534181,5.065777986822443,14.882870963356734
1761286342.9078553,0.37097544639721713,0.15660243921595624,1.2346606483964395,-0.417961317458787,-6.63272220836832,6.651456416077641,13.751489588425404
1761286342.9193935,0.6148863090097464,0.16094964193959924,1.27168249439053,-0.39559746933763135,-7.777270794018457,7.943595672695928,12.761630910016688
1761286342.928874,0.8407522292452771,0.15758554439980996,1.2955327506161682,-0.36549756796413296,-8.871571519298493,8.897851139481574,11.736430630315775
1761286342.9384909,1.0431643696181827,0.14825621996760674,1.3058731313650291,-0.32867451081644306,-9.955489261050964,9.499201742160608,10.503206651331187
1761286342.948151,1.2169351343815131,0.1348433640326027,1.3034147837175707,-0.2865571942899328,-11.06887083683874,9.765362860944409,8.911118519910891
1761286342.957878,1.357124467063815,0.1190649280934536,1.2896213326446022,-0.24091100865150805,-12.248712631078691,9.745326599200032,6.845248716999441
1761286342.9679222,1.4590389506107395,0.10228861330906909,1.2663637460971753,-0.19372118238776348,-13.528340437817837,9.51313005886163,4.23581693480163
1761286342.9778972,1.518267072175927,0.08546796277422435,1.2356124695819364,-0.14704842619940453,-14.937594293098567,9.157955924485615,1.061919049763853
1761286342.9878714,1.5307837863581522,0.06918265072871403,1.1992276563218287,-0.1028725619725681,-16.502802341598827,8.77237954640446,-2.650080616449777
1761286342.9979837,1.4931262025745953,0.053747560248482325,1.1588699592504943,-0.06294321353480062,-18.24553179408536,8.44083558599207,-6.8327032465783075
1761286343.0078723,1.4026175350987193,0.03934821060154875,1.1160162276309977,-0.028654682075215123,-20.179646197350056,8.230159664075114,-11.386781661278372
1761286343.0178936,1.2575991440418306,0.026159832341693414,1.0720384113532875,-0.0009565712628481311,-22.306904710228967,8.183460722904835,-16.192691884133062
1761286343.0279012,1.0576201642041207,0.014413934297950582,1.0282953372654708,0.019693469614559637,-24.611987092391473,8.317780494974578,-21.121980183407583
1761286343.0378797,0.8035342166287267,0.004391861685652477,0.9861940368770529,0.033331926155921475,-27.05821118863619,8.625212289107118,-26.048178290174512
1761286343.0478687,0.4974670585015033,-0.003652053958351472,0.9471942710903388,0.04044654107692197,-29.58519811413303,9.076553794910343,-30.855860926463833
1761286343.05792,0.14264612574712826,-0.009612202115352665,0.912750691484092,0.041892303106305186,-32.109339688133915,9.626242831624419,-35.44727818278976
1761286343.0680096,-0.2568857328887878,-0.013658188585333625,0.8842064421892459,0.03877552104344688,-34.52730907801122,10.21729147455283,-39.746191063527704
1761286343.077905,-0.6966247633823807,-0.01632345630756382,0.8626652403938051,0.03232125619704059,-36.7222923443912,10.785185100247205,-43.69887386587329
1761286343.0878892,-1.171968765462913,-0.018521614307604798,0.8488725971650123,0.023743638798857117,-38.57227306614023,11.260203698856527,-47.27260316558358
1761286343.0979555,-1.6785281525101914,-0.021472651970007476,0.8431306710589577,0.014137968120957935,-39.959554091172514,11.568241125652849,-50.45224985949645
1761286343.1078672,-2.212338704360715,-0.02654302330092112,0.8452591625851708,0.004407666806077905,-40.7806267691719,11.630773104400042,-53.23575885548461
1761286343.117907,-2.769949648467844,-0.03502543527533415,0.8546024758120071,-0.004769238624469479,-40.95540803650793,11.364985143892756,-55.62934238904161
1761286343.1279032,-3.3483851442818007,-0.04789956253702254,0.8700756991116857,-0.012937424041535769,-40.43476044843429,10.685118161828377,-57.6431672493395
1761286343.1382031,-3.9450007509383314,-0.06561957707975363,0.890240236538696,-0.01983426884396476,-39.20517526432705,9.505843451589088,-59.28819853624317
1761286343.1479194,-4.55727475229992,-0.08796878938934355,0.9134023208622275,-0.02534397308711465,-37.289672055225054,7.748060801235153,-60.57466308088881
1761286343.1578703,-5.182584852606994,-0.11400963478237845,0.937730443412193,-0.029447492595957622,-34.744465135683974,5.347058204403583,-61.51231833129596
1761286343.1678774,-5.81802286595726,-0.14214242309129282,0.961387662009863,-0.032178952824560084,-31.651740985782347,2.2625355491579597,-62.11238269590055
1761286343.1782236,-6.460293097217436,-0.1702703451561333,0.9826710338701147,-0.03359616972370195,-28.109765319767295,-1.5104514645611165,-62.39064033507382
1761286343.187995,-7.1057242613757445,-0.19605170783795212,1.0001451236285095,-0.03376751682138518,-24.22219535044324,-5.931054032755357,-62.37093807759486
1761286343.1978872,-7.750402480542439,-0.21720510696349438,1.012752870238664,-0.032771921371391885,-20.088686513842227,-10.90457849185784,-62.08812070209841
1761286343.2078886,-8.390409092538732,-0.2318227741456574,1.0198874258734862,-0.030706129784198698,-15.79856621400042,-16.278954588040847,-61.58946644552764
1761286343.2183723,-9.022126574227377,-0.23864424124437883,1.0214133698626857,-0.027693781380041624,-11.42856774006759,-21.847717715187688,-60.93390937571985
1761286343.2278786,-9.64256160172146,-0.23724680598915138,1.017633685912715,-0.023892287041264566,-7.044598014830323,-27.360819720723864,-60.188731416982364
1761286343.2378774,-10.249627498173345,-0.22811987170597228,1.0092081663687202,-0.01949432011306856,-2.7065438247453284,-32.54339100438685,-59.423882953750514
1761286343.2478716,-10.842329953692138,-0.21260624116844537,0.9970377664630988,-0.014720939194562794,1.5255631092151773,-37.12109998993278,-58.704541385424896
1761286343.2578583,-11.42080990691246,-0.19271417026965026,0.9821360643069095,-0.009804435754104068,5.5859679775149225,-40.8493144611056,-58.082860341015284
1761286343.2694757,-11.98621487803179,-0.17082733154282817,0.9655110146682004,-0.0049616931191039755,9.399959060756998,-43.542158168559666,-57.590048426118685
1761286343.2779257,-12.540393971217805,-0.14936109807921902,0.9480758738097489,-0.0003619995642551594,12.884159232484876,-45.09702640112052,-57.22992368115416
1761286343.2881832,-13.085441162202807,-0.13042635642629652,0.9305987547130271,0.003904347660612047,15.950711561811506,-45.51037296683628,-56.97493580877351
1761286343.2979252,-13.623142723530071,-0.1155615995231213,0.9136900257271161,0.00784869633184215,18.51486879298994,-44.88166704820763,-56.7653875380044
1761286343.3078773,-14.154410419470151,-0.10558010796562602,0.8978196945393039,0.011589632550811748,20.50476854257332,-43.404171067582176,-56.5122764565536
1761286343.3179245,-14.678794476022265,-0.10055542634902014,0.8833538800825883,0.015335513295040912,21.87171667911979,-41.343246146362254,-56.10384492912701
1761286343.329335,-15.194165069042986,-0.09993999994608595,0.8705985350760653,0.01934331462847759,22.59918119874319,-39.004842416972636,-55.41556570665088
1761286343.3379717,-15.696629321472843,-0.10278393133155043,0.8598375091294037,0.023859910038965145,22.708898197196987,-36.698332157941415,-54.32290324421268
1761286343.34822,-16.18071812475872,-0.10800018630426254,0.8513509169213589,0.029057387660995887,22.262925907558273,-34.69863388981064,-52.715800050682695
1761286343.3579154,-16.639840735509793,-0.11461602418349554,0.8454012446522542,0.034976271752370273,21.361064676480705,-33.21252771646887,-50.5134960729285
1761286343.3678815,-17.06697013023005,-0.12195955659914164,0.8421810193019836,0.04148902592070527,20.13371682904024,-32.35325596014811,-47.678062756710155
1761286343.3779652,-17.455490427698916,-0.12975015247029156,0.8417265152159468,0.04829199093503967,18.730913860693537,-32.1261943182028,-44.22497964815679
1761286343.3892155,-17.80011095098273,-0.13808504122022922,0.8438134778190411,0.05492865246069643,17.308807453614726,-32.42686823685427,-40.22922106039846
1761286343.3979316,-18.097733195335493,-0.14733721287313625,0.847859272246181,0.060842029094423614,16.01531391496703,-33.05113414638921,-35.82561287200076
1761286343.4079363,-18.348151110240693,-0.15799805871274525,0.8528590330826541,0.06544911624707589,14.976725156428412,-33.71614292024561,-31.20259397793584
1761286343.4178777,-18.55447371196901,-0.17050811841093444,0.8573815401261934,0.06822552957599035,14.286928291717775,-34.089863026141266,-26.588962428480166
1761286343.4278903,-18.723181312936106,-0.1851179474867444,0.8596448400863885,0.06878447489153891,14.00050941622479,-33.82644288345465,-22.233793836209994
1761286343.4378836,-18.863760942355075,-0.20180964968013954,0.8576825102200683,0.06693252225285927,14.130601024219347,-32.604411047838745,-18.380596246542474
1761286343.4479034,-18.987912424769142,-0.22029291909406967,0.8495987903468971,0.06268677019038399,14.651918000776902,-30.16452443939435,-15.237893119509451
1761286343.4578712,-19.10837318505679,-0.24007281834010863,0.8338951148040339,0.056244305562174184,15.508934724037175,-26.343946478744467,-12.94959508419362
1761286343.4679759,-19.23747208047198,-0.2605731234364428,0.8098335708350359,0.047905121996937555,16.628482204733462,-21.103437974207736,-11.569403308668871
1761286343.47786,-19.38558019379894,-0.2812896016282318,0.7777869681372999,0.03796307578136781,17.935197923159883,-14.544487864187321,-11.043772806967178
1761286343.4879339,-19.55966639204426,-0.30194117307110535,0.7395131366760512,0.026593893117700072,19.367403498352566,-6.913888454954822,-11.207442631826542
1761286343.4978683,-19.762174335681507,-0.3225821836331337,0.6982858229825241,0.013780028577394406,20.890360163557897,1.4057922653669945,-11.794139560242963
1761286343.5078878,-19.99040513341682,-0.3436354069635451,0.6588202529790236,-0.0006872575115774042,22.50369187613663,9.920076907846155,-12.462904848947534
1761286343.519123,-20.236513555883423,-0.36580503601717457,0.6269514224767297,-0.01710350510421566,24.240250865201727,18.059418542686647,-12.837904494597051
1761286343.5279086,-20.48811888232104,-0.3898390117993099,0.6090562591825,-0.03565142129196666,26.154952292467332,25.22599826944367,-12.55701466607327
1761286343.5378895,-20.72942477907074,-0.41614071749223386,0.6112512625997144,-0.05615525103705422,28.304150948495938,30.846200036322195,-11.322423049985899
1761286343.5479155,-20.942670292635974,-0.4442840928177192,0.6384401280620038,-0.07787450782031484,30.71877370675234,34.424011040687894,-8.945409599219744
1761286343.5579543,-21.109712068170573,-0.4725489218434964,0.6933303726960968,-0.09943271288284986,33.37704251082082,35.59092967627242,-5.377676660351193
1761286343.5679278,-21.21355692124047,-0.49763620601802905,0.775582548967944,-0.11894896080038157,36.18420516336312,34.148637569543475,-0.7231948315848997
1761286343.5779452,-21.23970285791708,-0.5147220293656876,0.8812882093879232,-0.13437824749680177,38.96624546165154,30.10109709358754,4.772600741740747
1761286343.5879037,-21.177189953889954,-0.5179539757890528,1.0029686465049725,-0.14399186942896688,41.481778898408294,23.672556557206576,10.75567886036864
1761286343.5978997,-21.01930480638225,-0.5013962917806815,1.1302223106007663,-0.14687268271906254,43.45199670976705,15.307474390969487,16.813786507750624
1761286343.6079113,-20.763922520023772,-0.4603064999435268,1.2510221181134669,-0.14328679786777934,44.60399058972877,5.648479811563976,22.536335958986438
1761286343.6188765,-20.413505060418924,-0.39249798072643005,1.3534971341288906,-0.13482711442594125,44.71932901675966,-4.509938138086861,27.573619880755928
1761286343.6279285,-19.97479798035896,-0.29944112801884176,1.4278663544825185,-0.12428416581917323,43.678023966627336,-14.291071349416283,31.6848048891562
1761286343.6380084,-19.45827444404268,-0.18673068076602362,1.468081748582604,-0.11525747493881466,41.488239233172294,-22.823687290783575,34.76597651115505
1761286343.6480055,-18.877368495144225,-0.06365406224813372,1.4727511108193239,-0.11156433724911016,38.29436553750529,-29.337972821977964,36.853422224942996
1761286343.657875,-18.247528354733493,0.0581555718285029,1.4450877133640598,-0.11654246622491218,34.360379166375054,-33.256096063587215,38.10264809989638
1761286343.6680114,-17.58511797003385,0.16668984651326743,1.3919266359064266,-0.13238407428530696,30.03098362417659,-34.26185168590753,38.74902580533433
1761286343.6779766,-16.906211727237938,0.25164775794652905,1.3221283085220692,-0.15966154432386653,25.678319630191798,-32.335506081920386,39.05978586991936
1761286343.6879542,-16.225367139225813,0.30609766289979495,1.2448336758579064,-0.19717779540401154,21.645331249160918,-27.746095031922007,39.28798890006246
1761286343.697904,-15.554513329246223,0.32735691296786495,1.1680030307154496,-0.24218987869335,18.19732941041665,-21.002731055189145,39.63697114002448
1761286343.7078733,-14.90212984186508,0.3169882945800473,1.0975089534748539,-0.290941358753881,15.490947608444479,-12.775501684672621,40.239675099598145
1761286343.7179232,-14.272876394294544,0.28004762494869045,1.036847487499739,-0.339347714750581,13.565183062772505,-3.8019166584822632,41.1528838073639
1761286343.7278702,-13.66776177809274,0.22385750081952666,0.9873592782148451,-0.38364983620542586,12.353755039317669,5.20459167772167,42.363090813086885
1761286343.7381136,-13.084838048142664,0.15661761208014086,0.9487594650181564,-0.4208900152325527,11.713205263409408,13.63082611934265,43.7993106876015
1761286343.7478857,-12.520312646553359,0.08611967466777411,0.9197649853661845,-0.4491448806855889,11.458431636715094,21.016353666029925,45.348534634001275
1761286343.7578797,-11.969905909969098,0.018753879384726987,0.8986558575122081,-0.46753171573284574,11.397255603438946,27.079194518464902,46.871076150037574
1761286343.768001,-11.430246107843459,-0.041093524377875425,0.8836814792759367,-0.47606000079313465,11.357761769052576,31.715630919152257,48.21477590722527
1761286343.777876,-10.900086549776736,-0.09122763652257307,0.8732958223656202,-0.4754162818169222,11.20544912158452,34.97810032868862,49.228189434387694
1761286343.787888,-10.381150218372458,-0.13145585747929792,0.8662553731878253,-0.4667513546975063,10.850440057477194,37.03710335088704,49.77320427595614
1761286343.7979813,-9.878457578523406,-0.16311235210019517,0.8616323723978617,-0.45150274450082406,10.247108417728022,38.134139470279685,49.7372178818872
1761286343.807895,-9.400067587607774,-0.1884203617613051,0.8587892544469027,-0.4312546753330536,9.389127664841892,38.532926941575035,49.044435850858065
1761286343.818068,-8.956248390570675,-0.20982485470159995,0.8573414384648897,-0.40762390323831194,8.302403617972075,38.47557162773168,47.66534446034769
1761286343.8279958,-8.558178101465614,-0.22941017227558397,0.8571172227449523,-0.3821610499047419,7.037328453204442,38.14900164479511,45.623144199305266
1761286343.8379588,-8.21634555203885,-0.24848340148437117,0.8581126919906011,-0.3562648489991498,5.660918018481577,37.6650754324783,42.99595595192849
1761286343.8479173,-7.938868733528379,-0.26736568704431435,0.8604372791767052,-0.3311132243899122,4.248991899556679,37.05557997493465,39.91392179043111
1761286343.85791,-7.7299707351456615,-0.28539815922336925,0.8642489809817361,-0.3076170652396408,2.8785818940555172,36.28117033966282,36.55088114313747
1761286343.8680296,-7.588845654473266,-0.30113891063437564,0.8696835652340795,-0.2864007772871573,1.6209535776643085,35.25144771252327,33.11102851776098
1761286343.8778658,-7.509107091013777,-0.3127022374440692,0.8767867541920478,-0.2678105678454782,0.5357400075149047,33.85205882167016,29.811707634536038
1761286343.887927,-7.478940066827254,-0.3181728643119053,0.8854605196511784,-0.2519488344445809,-0.3333877234340843,31.97406104775226,26.864110316528517
1761286343.8979557,-7.481981082426686,-0.3160203014796654,0.89543315665763,-0.2387313973669799,-0.9612835027734757,29.54085831358955,24.454020610793783
1761286343.90792,-7.498844261398854,-0.30544390338733646,0.906257921449659,-0.2279624659842109,-1.3420830318098877,26.528700712350922,22.72482009268179
1761286343.918564,-7.509110228305362,-0.28659458047682684,0.9173388555202618,-0.21941859231873262,-1.48823948175183,22.977926731310475,21.764721152857025
1761286343.9278972,-7.493513946455922,-0.2606395069976834,0.9279778723519627,-0.21292788780202523,-1.4280088493940333,18.993640590589536,21.59964897160273
1761286343.937925,-7.436022610218841,-0.22965892687702857,0.9374356174162969,-0.20842776357269552,-1.2016534631840399,14.736139332435323,22.192449821524793
1761286343.9479015,-7.325497023736193,-0.1963885000033789,0.944999126746366,-0.20598691622101423,-0.8567594005335417,10.402894136713863,23.448297085571387
1761286343.9579139,-7.156685256184767,-0.1638445480771639,0.9500503563678944,-0.20578541959265978,-0.4431890361701933,6.205050437818715,25.225428028185824
1761286343.9679306,-6.930399308228511,-0.13488880606899012,0.952130425830066,-0.20805712897137993,-0.008256307562332877,2.3421170420194,27.349782388970578
1761286343.9779336,-6.652854834051299,-0.11179945254695091,0.9509947104898502,-0.2130069582664573,0.4073191064922413,-1.0213088735895641,29.63179451920399
1761286343.98801,-6.3342852341938665,-0.09591469055203473,0.9466538345492465,-0.22072003337159457,0.7722503414095836,-3.7733229931922594,31.88353085958017
1761286343.9978812,-5.987051993149472,-0.08740550600651416,0.9393956280438571,-0.2310810009809802,1.0660827092433471,-5.864461046116111,33.934528014020394
1761286344.0078924,-5.623547171699258,-0.08521749748082799,0.929783747886185,-0.2437211464909674,1.2791510779153366,-7.308172031346698,35.64498995960006
1761286344.0181024,-5.254212464821822,-0.08719917515589497,0.9186301267936214,-0.25800832536388907,1.4113166755103594,-8.172243948723418,36.91535926104263
1761286344.0281854,-4.88597936635487,-0.09040741100759037,0.9069406793342553,-0.273089030881892,1.4698835796351026,-8.562821235744604,37.69163985612928
1761286344.0378966,-4.52136917183949,-0.09155219828303297,0.8958367493996515,-0.2879829141943887,1.4671847720927664,-8.603800613001297,37.96620288213426
1761286344.0478919,-4.158387423008617,-0.0875166081652979,0.8864585014397673,-0.30171885148252864,1.418291993796558,-8.415067900728106,37.77414760125065
1761286344.057969,-3.7912194993841775,-0.07587009821936241,0.8798603047309013,-0.3134905866643718,1.3391417224102469,-8.093103842383757,37.185623917454045
1761286344.0679066,-3.4116033810992565,-0.05529008182250558,0.8769110696902755,-0.32280213464795793,1.2451342133629122,-7.696951417965074,36.294866071372965
1761286344.0778983,-3.010644594648646,-0.025819742141466623,0.8782131198379941,-0.32957130990161304,1.1500453611004413,-7.241557172406236,35.207040996850886
1761286344.0879142,-2.5807661452555006,0.01108310988037685,0.8840507854563157,-0.3341654667077174,1.0649837442990548,-6.699290494176903,34.02434270178054
1761286344.0978997,-2.117466691917009,0.05271574703797814,0.8943752311544927,-0.3373561083934794,0.9971807611769392,-6.009196780777341,32.83297848354472
1761286344.1079214,-1.6205992620195295,0.09549071178878261,0.9088266881760677,-0.3401951414505545,0.9486072803169414,-5.092398770624354,31.692693677940408
1761286344.1178975,-1.094974682850291,0.13542610964375762,0.9267901017629574,-0.3438306700992891,0.91468070392655,-3.8711499094496524,30.630217504503776
1761286344.1278775,-0.5502203682257245,0.16868495076583007,0.9474750551368609,-0.34929109772004335,0.8835357332841908,-2.288475834745611,29.63749551033771
1761286344.1378846,4.191897891170651e-05,0.19207705978957748,0.970005896951332,-0.3572719650400152,0.8363702031440553,-0.325200548349662,28.67486528569939
1761286344.147885,0.5395276319926087,0.20344833268368775,0.993504785725463,-0.36796049489708405,0.7491967480849534,1.9885135033617858,27.678549617699385
1761286344.1579027,1.050898192127428,0.20190725872874432,1.017151162048449,-0.3809281532664056,0.5959630536558956,4.5691935588905945,26.571152205394387
1761286344.167916,1.5174054443311122,0.18786984858441944,1.0402075479318167,-0.3951116721630011,0.3525485178183136,7.284580254597862,25.273401309419786
