timestamp,angle,linear_acceleration_x,linear_acceleration_y,linear_acceleration_z,angular_velocity_x,angular_velocity_y,angular_velocity_z
1761284453.6413805,-8.572450883048813,0.1097768123680219,0.9971517681088703,-0.2777947545400908,15.100511389028272,17.20156563354782,31.54793487509568
1761284453.6513984,-8.03523947964085,0.05993046302155643,0.988426167124849,-0.29470894888595084,13.728790906858668,22.62063509151667,32.83286975575101
1761284453.6613662,-7.544153745879916,0.006828550611905807,0.9785219212837877,-0.3121076889246433,12.08176772660166,27.669134619142827,33.66011999910718
1761284453.6713765,-7.101225991116076,-0.044851871424266915,0.9682570747261958,-0.32964034094709166,10.268701755836426,31.91492942933613,34.1042808774647
1761284453.6813707,-6.704132835515048,-0.09090124957764077,0.9583902471106125,-0.34648979306480415,8.40915812908444,35.03552683997079,34.25170494796447
1761284453.6913972,-6.346928831968003,-0.12797042813104179,0.9495030426827566,-0.3615747092433289,6.614664275466982,36.84381686315258,34.184345385859096
1761284453.701404,-6.021214029534188,-0.1538846887236342,0.9419402084397718,-0.373788659536179,4.974926903971955,37.29679302370024,33.96770917373761
1761284453.7113729,-5.717568931022261,-0.16782640525409942,0.9358080133869963,-0.38221837047672247,3.5500370949872115,36.486861116978844,33.64417755962196
1761284453.721378,-5.427046733349184,-0.17034912061220273,0.9310205290473683,-0.3862992684517863,2.3686209741583637,34.617742238017236,33.231939056753326
1761284453.7313848,-5.142505952746669,-0.16321477625955025,0.927375570672382,-0.38588805381317626,1.4308278624812432,31.96911916923143,32.72886743208219
1761284453.7414117,-4.85959487867476,-0.1490788373662642,0.9246386542110059,-0.3812528885920526,0.714503779061652,28.855630038761024,32.119999929650106
1761284453.751371,-4.577255472295264,-0.13107525563317568,0.9226151877390542,-0.3729981009104276,0.18281804722210834,25.586281920806083,31.386901958689094
1761284453.7613788,-4.29768902541467,-0.11236869676254224,0.9211973104612947,-0.36195021733526245,-0.20813868441662778,22.42976519685557,30.51714579326582
1761284453.7713573,-4.025809147791429,-0.09574400954029279,0.9203798860122012,-0.34903436845399516,-0.5028275086130467,19.58969462374495,29.512330172084436
1761284453.78139,-3.7682876900046494,-0.08329357436144318,0.9202475516781238,-0.3351645485884315,-0.7413478176760893,17.1918618467954,28.39345130814039
1761284453.7913895,-3.5323619844395835,-0.07624359547952089,0.9209397408918126,-0.32116066836526386,-0.9562297082403384,15.283549583052062,27.20293027933335
1761284453.8013768,-3.3246038174491237,-0.07493357891424204,0.922602911979534,-0.30769489117771803,-1.1707082450295878,13.843152514632632,26.00313231814891
1761284453.8114026,-3.149844008994451,-0.07893431348074616,0.9253396034240463,-0.29526312206214295,-1.3981070164728309,12.797018039046991,24.871706637937784
1761284453.821519,-3.010403633707166,-0.08726530993723,0.9291631462288308,-0.2841751156871336,-1.6419544326693314,12.039722859952125,23.89447327239579
1761284453.8314006,-2.905716969595879,-0.09865900971686631,0.9339650049355832,-0.2745571669484671,-1.8965431197356721,11.453996380579612,23.156843834414452
1761284453.8416023,-2.8323613373941092,-0.11181883644331964,0.9394988383202406,-0.26636367593273336,-2.147776777183249,10.927124696016621,22.734854531715705
1761284453.8514273,-2.7844509901983003,-0.12562867064569994,0.9453821156674288,-0.2593969453366442,-2.3743093615593214,10.361746396658573,22.686806509181118
1761284453.8616629,-2.754311515444555,-0.13928600700050334,0.9511138055354064,-0.25333652927235134,-2.549144319876982,9.6802526188904,23.04629005897094
1761284453.87142,-2.7333235969674523,-0.15234409951537667,0.9561063224393889,-0.24777892988604017,-2.641967997859108,8.823310348083758,23.817103806352378
1761284453.8813887,-2.7128065244550537,-0.16465958815937864,0.9597308823708218,-0.24228620127650255,-2.622460244341602,7.7441717685213165,24.970384567101476
1761284453.8913858,-2.6848076115314656,-0.17625584533292765,0.9613757404735056,-0.2364402189092234,-2.4646073565034503,6.4012663579237445,26.444216768624415
1761284453.901374,-2.6426832079852574,-0.18713025402969544,0.9605155715397395,-0.22989897516055055,-2.151664806220909,4.751933753778327,28.14605463901145
1761284453.9114056,-2.5814015498473615,-0.19705044705909025,0.9567879606063927,-0.22245116359760475,-1.6809900008706244,2.749913118608362,29.958320760592958
1761284453.9213939,-2.497556079801293,-0.20539233876153182,0.9500698717920264,-0.21406426537807938,-1.0676568967377056,0.3483508029039237,31.747387305411685
1761284453.931384,-2.389133595087638,-0.21106749916729542,0.9405432857944434,-0.20491966896138816,-0.3457351942428235,-2.4912417506551563,33.37572799730803
1761284453.9413822,-2.255121150849489,-0.21256996040594306,0.9287362073870509,-0.1954270805670514,0.43356747800827655,-5.785223916974491,34.71638689884865
1761284453.951389,-2.0950524764356224,-0.20814713395857712,0.9155248095323982,-0.18621027347619087,1.2071063704712697,-9.511926563300273,35.66818041725869
1761284453.9614978,-1.908589828493493,-0.1960721837563841,0.9020860129288976,-0.17805809588901203,1.9078229862448979,-13.597409956661531,36.16942747179335
1761284453.9714181,-1.6952175212589171,-0.17497205613127917,0.889797790864834,-0.1718402065284469,2.474382669316023,-17.90703017188567,36.20769837591039
1761284453.9813976,-1.4540971641561489,-0.1441508044652086,0.8800959387774636,-0.16839635854905077,2.860718121353012,-22.24632732525918,35.82325337314331
1761284453.9914155,-1.1841077376813964,-0.10384372764423891,0.8743082404824051,-0.16841823414810492,3.0435660102906605,-26.373128634151715,35.10457230924891
1761284454.0014102,-0.8840677696912386,-0.05534418379159728,0.8734963300155831,-0.17234904333403053,3.0262383606862997,-30.02047394057032,34.175594348019175
1761284454.0113976,-0.5531107926474873,-0.0009619199106518974,0.8783377053587076,-0.18032423155983246,2.837411353892399,-32.92754792352076,33.175823797249336
1761284454.0214086,-0.19115838023160134,0.05619901728138128,0.8890702233826291,-0.19216532486883217,2.524618082367837,-34.8737795588055,32.23606020816861
1761284454.031382,0.2005887329579334,0.11261401527968071,0.9054994854524204,-0.2074221732682611,2.143288368181724,-35.710073286306354,31.453820294071527
1761284454.0414045,0.6192333137901611,0.1647924358981003,0.9270486678119034,-0.22544615158164183,1.743350121854312,-35.381082161477295,30.87311750345675
1761284454.0514235,1.0599228458894867,0.20971698990081264,0.9528259851561127,-0.24547530396608758,1.356230238093702,-33.93370396013375,30.47283453974541
1761284454.0614104,1.5158058343887648,0.24517800589695635,0.9816964967505083,-0.26671807413256604,0.9852177621315246,-31.509536321807683,30.166428146105204
1761284454.0714028,1.9782185624931452,0.26994907514743116,1.0123574331500373,-0.2884251560384188,0.6014723148216883,-28.322449519110695,29.81345220159903
1761284454.0813906,2.437078531324083,0.28380034738347215,1.0434194369499141,-0.3099355940655604,0.14671021444603788,-24.625844698425333,29.24094769275482
1761284454.0915718,2.881435352043616,0.28738472193334397,1.0734920739216025,-0.33067979796681995,-0.4578101890727332,-20.676465179867904,28.270772669318042
1761284454.101413,3.3001186905865576,0.28204523535500453,1.1012669968303244,-0.3501272035459439,-1.2975927329627013,-16.702058592771262,26.74791362952874
1761284454.111431,3.68241911288972,0.2695832727574542,1.1255901759804872,-0.3676827704259194,-2.448883503912113,-12.878718803007802,24.564887040140743
1761284454.121584,4.0187358452759545,0.25201313474437764,1.1455164741608335,-0.38255908795890753,-3.963035438139837,-9.321005220433396,21.678337123538363
1761284454.1314566,4.301125866249624,0.23132187067163476,1.1603438531169123,-0.39366999188808605,-5.853864922701953,-6.084850824714511,18.115515751838647
1761284454.14159,4.523696159021492,0.20925563938398425,1.169627848304427,-0.399599477759846,-8.090182594681892,-3.1805855715865983,13.970137517724314
1761284454.151513,4.682800110129853,0.1871584737903381,1.173178558028985,-0.3986926568731381,-10.595025106202298,-0.5915523810874623,9.38885950480308
1761284454.1615317,4.777029506164717,0.16588847248403835,1.171043375723948,-0.3892918138745461,-13.252300313298287,1.7069893760748847,4.551106187298249
1761284454.1714168,4.80702745947108,0.1458257316055764,1.1634799136699305,-0.3700984698771456,-15.920598391014261,3.733518441742872,-0.3541017397689146
1761284454.1814191,4.775172704674926,0.12696627000612298,1.1509254275780156,-0.3405838508339156,-18.452738811852427,5.49355942126031,-5.150456256608089
1761284454.191445,4.685193889005843,0.10907364484409388,1.1339710450082816,-0.3013156499578113,-20.718199408820947,6.981030188351851,-9.692513930730474
1761284454.2021291,4.541765938150172,0.09184626023256931,1.1133468287016721,-0.25406356053927776,-22.624264793946477,8.185259756648062,-13.877512959065855
1761284454.2114737,4.350127751650657,0.0750605999195718,1.089913877299629,-0.20162095336640698,-24.131292183407563,9.099703860950994,-17.650017446989263
1761284454.221887,4.115746751763018,0.05866478480495958,1.0646495379172396,-0.1473975662440493,-25.25849812208491,9.728589024448448,-20.999821812948227
1761284454.231421,3.8440421639902427,0.0428133647721799,1.0386126090874637,-0.09491567063098197,-26.07888696067924,10.089307151314665,-23.954548829739142
1761284454.2415237,3.5401670987859886,0.027847294723954093,1.0128869069835718,-0.047341413976565445,-26.70446175433167,10.21032800128341,-26.56896777176675
1761284454.2517161,3.2088427436172746,0.014231583047027757,0.988513192442149,-0.007134737585886063,-27.26481830728268,10.125888703802525,-28.913187305779168
1761284454.261852,2.8542368512172542,0.0024669408198845907,0.9664235887613614,0.024150260698533103,-27.883261214095896,9.869473220866988,-31.061604848696234
1761284454.271533,2.4798800390179916,-0.0070089387896680455,0.947389596248238,0.045918898549027434,-28.65472345373957,9.468136636670838,-33.08396332436909
1761284454.2815826,2.0886137444097264,-0.013917955170539396,0.9319888226747965,0.058468289281392534,-29.6291707062958,8.939186784753169,-35.03922539149574
1761284454.2914395,1.6825627424557474,-0.018225768079411314,0.9205902813602324,0.0628317406021356,-30.803010800557107,8.289804082517408,-36.97234941611929
1761284454.3014436,1.2631255337273588,-0.0202029838473842,0.9133548971905139,0.060569017957635356,-32.11954188514677,7.519147377939324,-38.91354205006156
1761284454.311479,0.8309798035085514,-0.020451249974583,0.9102462826354277,0.0535334877632647,-33.47793905500389,6.621698350412574,-40.87924774174711
1761284454.3214808,0.3861067261547868,-0.01988251623181487,0.9110465184982085,0.04364329078220662,-34.74895358594329,5.590305303979932,-42.874058949324414
1761284454.3314657,-0.07215575543550881,-0.019644039710532756,0.9153728304196845,0.03267957698608151,-35.79455296346171,4.417681552114545,-44.892867700822656
1761284454.3430884,-0.5450169172959705,-0.020989542903765403,0.9226935668249282,0.022130361416395426,-36.48824918580232,3.0958813541620236,-46.92283881845891
1761284454.3516784,-1.0340814327360837,-0.02510668379363494,0.9323447427148226,0.013092847313100049,-36.73287532714764,1.6142546207683717,-48.94506586186742
1761284454.3614693,-1.5411353516982602,-0.03292135358543498,0.9435504315929545,0.006239344110339049,-36.473062447482384,-0.04278440812297456,-50.93600239352184
1761284454.3714826,-2.067876906252373,-0.04490853990931211,0.9554509213668524,0.0018430659352218462,-35.70057984656328,-1.8964703931553064,-52.86889999114616
1761284454.3814936,-2.6156162591069823,-0.060944802174407633,0.9671418118258858,-0.00014796110458261557,-34.45190755136343,-3.9714007601334536,-54.71550359278764
1761284454.3914747,-3.184983066055929,-0.08023660486458764,0.977725122445556,-6.930951009709892e-06,-32.79873173522387,-6.289492967409411,-56.44815544340986
1761284454.4014392,-3.7756884871560645,-0.10135138300252006,0.9863701041121189,0.001883746314223255,-30.833294533830713,-8.860466554693314,-58.04227229279391
1761284454.411452,-4.386387149142943,-0.12236399563688866,0.9923776690053425,0.0051305194153153525,-28.651488089041706,-11.670273585412787,-59.478933627221124
1761284454.4217484,-5.014673287217212,-0.14110944114337223,0.9952395835288455,0.009396682537788713,-26.337041620512075,-14.669876254165265,-60.747117746428145
1761284454.4314275,-5.657223543512048,-0.15550591059317917,0.994682938145996,0.01443433430310091,-23.949928471699717,-17.76725036548301,-61.845029489318385
1761284454.4414356,-6.3100703605429525,-0.1638894765273106,0.9906923607113854,0.020084668294047994,-21.52118944100327,-20.825231219954258,-62.78003386001056
1761284454.4514563,-6.968962717543621,-0.16529416708230238,0.9835065042223671,0.026257327221958213,-19.054919728226235,-23.666828645211677,-63.566940279611636
1761284454.4614189,-7.629753526907527,-0.15962335711633102,0.9735901605777465,0.032900723343982904,-16.536560561646247,-26.088220691469136,-64.22472010788222
1761284454.4714386,-8.288749711893358,-0.14768463311993008,0.9615873896463993,0.039972092248550146,-13.945286500567732,-27.878197953827563,-64.77210018530414
1761284454.4814405,-8.942971340607746,-0.13108972563199545,0.9482632527569476,0.047410640602065006,-11.267508228582775,-28.841685866629604,-65.22275422071064
1761284454.4914632,-9.59028624860203,-0.11204499108217421,0.9344417611513736,0.05511285803486074,-8.508444175110103,-28.82428025406839,-65.58092200892175
1761284454.5014408,-10.229410604360377,-0.09307261216608466,0.9209457128823015,0.0629092924943258,-5.699282977625655,-27.734546174019684,-65.83818909506739
1761284454.5114717,-10.859788069839958,-0.07670790286594087,0.9085408923801167,0.07054649860233225,-2.898477056804049,-25.561137598295257,-65.971903547855
1761284454.5214179,-11.481376315425708,-0.06521471484845374,0.8978842205267413,0.07768188643203475,-0.18693128421724522,-22.382498784350982,-65.94539814545988
1761284454.5316057,-12.094377900056735,-0.06035130556305576,0.8894747220317919,0.08389889133165342,2.341992975998951,-18.367832689091333,-65.70992618462512
1761284454.5414367,-12.698953757750541,-0.06320717069040734,0.8836077834731743,0.08874545356011296,4.595876706408242,-13.76898743235027,-65.20805398833495
1761284454.5514314,-13.294954018329964,-0.07412023531846915,0.8803352210781002,0.09179293602776499,6.497798864841273,-8.90379419420628,-64.37817717435485
1761284454.56143,-13.88169462242108,-0.09267355357468404,0.8794343321009044,0.09270768286646353,7.999730373535605,-4.132110951951497,-63.15981184205884
1761284454.5714362,-14.457800225673003,-0.11776094486470672,0.880388452636658,0.09132423164105974,9.092723735272582,0.17365232801320868,-61.49932837426051
1761284454.5814557,-15.021125158410149,-0.1477038354716079,0.8823814774451272,0.08770705866605012,9.812411468305141,3.6614055832105974,-59.355817926222045
1761284454.5914936,-15.56875628128652,-0.18040032404668754,0.8843110660177449,0.08218600955711632,10.239059343017528,6.0332891947648415,-56.70677024367306
1761284454.601467,-16.097096163096246,-0.21349333484680075,0.8848291931831508,0.07535040279813969,10.49220046172125,7.078069969327015,-53.55315720324849
1761284454.611445,-16.60202274663176,-0.2445546375180852,0.882421186014039,0.0679908807931724,10.72056093509048,6.699253662920921,-49.92336452220335
1761284454.6214395,-17.07912131811474,-0.2712892398973837,0.875532311915575,0.06098823913140747,11.088452473007692,4.935887419207641,-45.875258869869356
1761284454.631609,-17.523983101660317,-0.2917642644891256,0.8627434838453217,0.05516288241226337,11.760012044509198,1.9728388351492663,-41.49560416052403
1761284454.6414547,-17.93255838250378,-0.30465599530896975,0.8429865387239781,0.05111144404644875,12.882699107631911,-1.86252209896269,-36.89611400164561
1761284454.6515768,-18.301538281093123,-0.3094915591158397,0.8157780699406353,0.049062869096900226,14.57146385076316,-6.1195796928655035,-32.20569628920181
1761284454.6614554,-18.628719605246978,-0.30684463645883714,0.7814418010561343,0.04878416045492134,16.895057193344172,-10.26056008035892,-27.55895310224674
1761284454.6718092,-18.913288307695833,-0.2984355270765593,0.7412846894068715,0.04955889969878044,19.866010030543613,-13.712250639552147,-23.08173688250755
1761284454.6820242,-19.155949022838175,-0.2870895309864945,0.6976921793515132,0.05025116668653828,23.435715505816372,-15.929651746132915,-18.875428270714632
1761284454.6914902,-19.35883919925733,-0.276522950837225,0.6541129905676909,0.0494530176333719,27.49566525130601,-16.465298227523522,-15.002392887774667
1761284454.7014856,-19.525198050910817,-0.2709487131811381,0.614911937363937,0.045696374756486316,31.885174451175885,-15.035833848307135,-11.475524382826768
1761284454.7114654,-19.6588071092908,-0.2745208720715175,0.5850789557253026,0.037695496417108065,36.40494386285819,-11.576229104553047,-8.254622343498097
1761284454.7215445,-19.76327025544003,-0.2906685774042866,0.5697940425703157,0.02458090554224598,40.83471209998576,-6.272273224981885,-5.251453545273107
1761284454.73151,-19.84124450593816,-0.321402148936257,0.5738633077747392,0.006091510389572784,44.95233395505247,0.4361129340353418,-2.3437813147064674
1761284454.7414875,-19.893756249096516,-0.3666976253749776,0.6010623636171978,-0.017297522864462896,48.5512389304296,7.884679493439,0.6033010662754511
1761284454.7514606,-19.919732383734424,-0.42407201957962337,0.6534490222640382,-0.04432762349069884,51.45363871496029,15.247068086375158,3.7122817274495095
1761284454.7614536,-19.9158410100962,-0.4884475168422652,0.7307356335201531,-0.07301045187958057,53.51808292506893,21.623899465369153,7.06922607566926
1761284454.7714427,-19.876680134377963,-0.5523753617936094,0.8298390907301579,-0.10080851757229373,54.64173972733315,26.149090173403238,10.70595957347078
1761284454.7814672,-19.795289870244737,-0.6066560930632624,0.9447450093274155,-0.12496197302172224,54.75953649632999,28.10100681448435,14.592583565159979
1761284454.791438,-19.66390987288811,-0.6413513636752772,1.066815458224076,-0.14294897680212665,53.843304143857196,27.004658146896816,18.64239698777462
1761284454.801476,-19.474871153165783,-0.6471253477399679,1.1856185451056376,-0.153015024014087,51.903761007667015,22.710925659934944,22.728500501310595
1761284454.8117201,-19.22150376481141,-0.6167734638586189,1.2902541678122417,-0.15465533949041604,48.996468920490045,15.44002093128037,26.708490511751183
1761284454.8217847,-18.898954637788222,-0.5467000228935134,1.3710026515361522,-0.14890954212162888,45.23028444211363,5.779440167532687,30.45146648703276
1761284454.8314667,-18.5048344486796,-0.43802610794466657,1.4209659426950707,-0.13834661276255444,40.77423690237338,-5.36791968859799,33.86072251868093
1761284454.8415067,-18.039640634640932,-0.2969984853673022,1.4372725591296973,-0.12668415418980222,35.85735047343247,-16.882273488142772,36.886384008808804
1761284454.85155,-17.50692967928851,-0.13448134774808398,1.4214667414807203,-0.11808988090709815,30.756715293594894,-27.56019258269955,39.52493811579569
1761284454.8617148,-16.91323436834634,0.0354525578025051,1.3789372773105635,-0.11632784772213094,25.77230343533798,-36.262798462936665,41.80649657424875
1761284454.8714828,-16.267745189804685,0.19753988313928642,1.3175721419981963,-0.12398606681376413,21.19151680511436,-42.05470964471394,43.774347567458825
1761284454.8815398,-15.581803716222073,0.33748324397113644,1.2460744561824568,-0.14200701961629555,17.25038298859951,-44.310949574721135,45.463339171177296
1761284454.8914804,-14.86828441229164,0.4437819781709263,1.1724220184941767,-0.16963514689153233,14.10020414046721,-42.77644187087773,46.88317762869876
1761284454.902036,-14.140954955860861,0.5089365498954235,1.1028118364061827,-0.2047466254542124,11.7877740371873,-37.57345011985768,48.010395594732614
1761284454.9114692,-13.413892378677524,0.5299400158871356,1.041209091962452,-0.2444067265189274,10.254247269587397,-29.16232732883218,48.78982970570928
1761284454.921829,-12.700997664700513,0.5081349738597184,0.9894274600743893,-0.2854573437931175,9.353182774714199,-18.26737127285399,49.14404715832653
1761284454.9317183,-12.015612799645451,0.448592456826772,0.947563559461686,-0.3249769009003593,8.883441235937754,-5.7819387959424775,48.98780497866885
1761284454.9415355,-11.370218173366556,0.35917805351720167,0.9145911617972315,-0.36054258187229077,8.628926003771063,7.333549893342312,48.24432036555749
1761284454.951463,-10.77617913584561,0.24945103438132799,0.888955765930236,-0.39031255174194146,8.395846409358303,20.1489436878668,46.86055434299997
1761284454.9617343,-10.243512822591482,0.12952576666521484,0.8690624506300293,-0.4129984025243924,8.03973628166036,31.847460700217663,44.81944786484615
1761284454.9717515,-9.780652919414027,0.009017076842449318,0.8536012338687391,-0.42780512162066653,7.4782077087787036,41.787301165485765,42.147793633863394
1761284454.9814827,-9.394197257422597,-0.10382018234248956,0.8416995340804836,-0.43438868505849343,6.689760482567426,49.537214776651226,38.91905139914467
1761284454.991472,-9.088631325409358,-0.2026754724919077,0.8329278602617278,-0.4328426235792838,5.702255069269337,54.884809932363524,35.25093121416949
1761284455.001507,-8.866032381411806,-0.28345505113852054,0.8272068234870729,-0.4236962829605728,4.576042599405214,57.82012030406216,31.29805479323536
1761284455.0120533,-8.725775564908304,-0.344258487296205,0.8246675771212958,-0.40789913907127073,3.386377480021089,58.500223706768985,27.240516213072464
1761284455.0219293,-8.664283003255402,-0.3851168440209621,0.8255077889908815,-0.38677347984232546,2.208363962147572,57.20268629536503,23.269680435647967
1761284455.0314765,-8.674872558577047,-0.40757346414606327,0.8298697099591077,-0.36193068455022137,1.1061048094809083,54.27591648448034,19.5729857713302
1761284455.0415268,-8.74776729283407,-0.4141934638308823,0.837752874130165,-0.335155458641336,0.12642963405905341,50.093356457979596,16.31970902574291
1761284455.051486,-8.870317082395859,-0.4080795283351962,0.848964264078037,-0.3082667465660014,-0.7032654143997045,45.016356911443395,13.649485207236422
1761284455.0615392,-9.027462054766703,-0.3924539125583019,0.8631029340756189,-0.2829674123618669,-1.3739930425615907,39.368192689651174,11.66484744522802
1761284455.071559,-9.2024372972107,-0.37034358597940986,0.8795727707074003,-0.26069916560359796,-1.8920652017666757,33.419494062805924,10.428308564366054
1761284455.081487,-9.377683142296672,-0.3443813201705278,0.8976157005383372,-0.24252244003559667,-2.2749621737695107,27.383709708349937,9.963731830530534
1761284455.0915186,-9.535889516441584,-0.31671428112633376,0.9163579483462502,-0.2290396510659819,-2.547055655000147,21.42021058701491,10.261085280421778
1761284455.101712,-9.661072406524843,-0.2889965691148908,0.9348630091357221,-0.22037368441801383,-2.7357901889488563,15.642279022056563,11.283236641439956
1761284455.1116376,-9.739563114660852,-0.26243500943428083,0.9521858861578423,-0.21620370306779216,-2.8686515475176773,10.127403439813675,12.973275837979351
1761284455.1215158,-9.760793767271696,-0.23785843327388714,0.9674237974446577,-0.21585034199058437,-2.971024260944704,4.927825661545675,15.260964652064144
1761284455.1314888,-9.717788096079092,-0.2157874614229076,0.9797595171520134,-0.21839467460659287,-3.0648757554622135,0.07992679574759516,18.06727570301319
1761284455.1415098,-9.607309341740326,-0.19649049710037486,0.9884953436545766,-0.22281179609877066,-3.1680871614959623,-4.388384904099374,21.306512611439903
1761284455.1514945,-9.429665119579436,-0.18001898358365204,0.9930784689412339,-0.22810063130512387,-3.2941732195200006,-8.452670652481137,24.886093883739413
1761284455.161493,-9.188210207092236,-0.16622029180844747,0.993121411521616,-0.23339497396385822,-3.4521138787651626,-12.089396823549357,28.70462887860088
1761284455.1715128,-8.888616844465846,-0.15473126185747574,0.9884226056646906,-0.23804476879543518,-3.6460847002799786,-15.275600621360093,32.64931961059919
1761284455.1817496,-8.537999235929625,-0.14496063886227561,0.9789912238793296,-0.2416604707018611,-3.875021383542274,-17.990337203870627,36.593927576684145
1761284455.1914997,-8.143987418180307,-0.13607377554850694,0.9650772525518948,-0.24411761465051712,-4.132142659068433,-20.21725224620112,40.39853683573373
1761284455.2015092,-7.713846971671108,-0.1269960546973106,0.9472038660370043,-0.2455243497126428,-4.404718685819515,-21.947477369009462,43.91211907847286
1761284455.2115,-7.253735535556019,-0.11645103148885792,0.9261950679081028,-0.24616124851433316,-4.674449068718556,-23.18197246169106,46.97845355924079
1761284455.2215602,-6.768175518785713,-0.10304534057601798,0.9031881092799766,-0.24640839952850657,-4.918773030215677,-23.93246352522281,49.4453082938728
1761284455.231494,-6.25980585105128,-0.08540566453854781,0.8796187949293824,-0.24667731994036915,-5.1132768904536805,-24.220310527645623,51.17606482773264
1761284455.241627,-5.729453911720647,-0.06236295906168652,0.8571699477197491,-0.2473626449033444,-5.23512882597975,-24.073041095936983,52.06232651628647
1761284455.2515063,-5.176539851708651,-0.033164475115213164,0.8376788783562814,-0.24882001886176822,-5.267219334012242,-23.518867328403008,52.03562472730519
1761284455.2615151,-4.599787497671396,0.0023222465831326216,0.8230070193198293,-0.2513638839572265,-5.20248020633513,-22.580115387972388,51.076220800553784
1761284455.2715166,-3.998170568907148,0.04345880406175096,0.8148824435841212,-0.2552672614707758,-5.047737203324695,-21.266945842685892,49.21724782038553
1761284455.282297,-3.3719764953344815,0.08877969858065478,0.8147328678014064,-0.26074191236467925,-4.826436540044742,-19.572889065941617,46.543035634077526
1761284455.2938056,-2.7238318578528085,0.1360539925655655,0.8235315290918177,-0.26788498481924217,-4.579666195669009,-17.473541625948627,43.18133190256234
1761284455.3015168,-2.0595125003146264,0.18246568232446772,0.8416790097522356,-0.2765950074681946,-4.365052889203297,-14.929343860429158,39.29014786887352
1761284455.31152,-1.3883664573342747,0.22489212147517404,0.8689389889065642,-0.28647882068168595,-4.253335699146806,-11.89278535486161,35.04095866498327
1761284455.3214998,-0.7232179371093675,0.26024272303495843,0.9044352334168222,-0.2967833081351578,-4.322687302329971,-8.31970467754156,30.600746408950084
1761284455.3314953,-0.07969974330569338,0.2858095753857994,0.946704826647694,-0.30638514714781456,-4.651171879596212,-4.183566466488629,26.115657924931085
1761284455.3414922,0.5249309950881722,0.29958003035715325,0.9937954212739197,-0.3138572290317152,-5.30807605616837,0.5092017482219596,21.698765629109246
1761284455.351525,1.0733304847370062,0.30046932154262146,1.0433959397406696,-0.31760814594389447,-6.345161339332747,5.705336154683947,17.423665198877796
1761284455.361533,1.5497189479814695,0.2884457785442884,1.092996241568938,-0.31607168443786005,-7.789066401656198,11.29503247155799,13.324603138690934
1761284455.3715057,1.94138102017774,0.26453767279034723,1.1400728392552735,-0.30791420586373636,-9.636051836870125,17.108769215238603,9.402686135717312
1761284455.3820944,2.2397894394712106,0.23072619945182118,1.1822903259032365,-0.29222896233543644,-11.849996135469967,22.92217450976518,5.636667388080858
1761284455.3915272,2.441209872228505,0.1897423494985219,1.2176955448180147,-0.26869203644273104,-14.36406004786316,28.469257410677038,1.996037428415906
1761284455.4014966,2.546750335427939,0.14479507956625928,1.244871519487698,-0.23765959395501332,-17.085849972437714,33.463016330179535,-1.5461620759908772
1761284455.411488,2.5619152977455184,0.09926245810292815,1.2630177952649932,-0.20019009636632,-19.905363123948966,37.621295935832514,-5.0031781737961305
1761284455.421509,2.4957889956759343,0.05637647963151561,1.2719369720250822,-0.1579814937606705,-22.70458436263283,40.69497900288203,-8.368767730012696
1761284455.431508,2.3599970791466984,0.01892898654519072,1.2719322731356741,-0.1132253037214425,-25.367385720106128,42.49521625393858,-11.616587622347094
1761284455.441599,2.167587678048649,-0.010976125411848869,1.2636489441830727,-0.06839549348896079,-27.78838674325102,42.91637833933915,-14.70450703792247
1761284455.4515033,1.9319464193848086,-0.032100170534509816,1.2479093448081278,-0.026004223865325058,-29.87965356084949,41.951712165913236,-17.58267383411214
1761284455.4615557,1.6658270803922022,-0.04415521620883306,1.2255885903589196,0.011637407305480754,-31.574501550051956,39.69929016812661,-20.203557283426207
1761284455.471511,1.380547428379194,-0.04778645605197371,1.1975570235391568,0.042619762428490526,-32.82817414202622,36.35677877494174,-22.532014587143987
1761284455.4815147,1.0853717624490193,-0.04445665214061707,1.1646887317200667,0.06557490734403239,-33.61573581418219,32.20478970595335,-24.553653224419893
1761284455.4916773,0.7870806152417403,-0.03625522989198174,1.1279131196288568,0.07975091710845708,-33.92803937386739,27.579976721793507,-26.2802092269373
1761284455.501849,0.48971736460987636,-0.025663882736896917,1.0882761080603598,0.08502640896491113,-33.76698712448723,22.840394978699152,-27.751151826917642
1761284455.5115283,0.19450342507213933,-0.015306927119129624,1.0469806105834327,0.08187611313162281,-33.141397813780905,18.32674429866998,-29.031184526807564
1761284455.521512,-0.10007313671060826,-0.007701054087031201,1.0053894012794884,0.07129718608512124,-32.06455569934104,14.323841218182535,-30.203766243730914
1761284455.531571,-0.39797323567649084,-0.005005595734036879,0.9649903066686474,0.05470392648923756,-30.553979459636377,11.026980803541194,-31.36125510123047
1761284455.541736,-0.7050947358309521,-0.008772348467794835,0.9273356427243394,0.03379929584218373,-28.63324438282874,8.517745783051787,-32.59275567227093
1761284455.5515192,-1.0285125981409553,-0.01970813226311853,0.8939696474969622,0.010435226361848597,-26.335037803466314,6.753215174613436,-33.97116281690191
1761284455.5615335,-1.375491873271892,-0.037487829209312304,0.8663500073069423,-0.013522789613231903,-23.70423638052331,5.571301754876615,-35.54118610462228
1761284455.5714908,-1.7523590740270532,-0.060676390245113704,0.8457591640829356,-0.03631120055655502,-20.799799714354005,4.713027979713471,-37.310266721600534
1761284455.5814908,-2.1633855557522685,-0.08681831048393673,0.8331974525206062,-0.05635365221970585,-17.694702287463418,3.859975659110009,-39.24418966089595
1761284455.5914996,-2.60987708396009,-0.11272258264213014,0.8292592288344545,-0.07231673164647265,-14.473833483591529,2.682258566976004,-41.26872475129051
1761284455.6015122,-3.0896527371070035,-0.1349180027714737,0.8340106080700789,-0.08315035459662386,-11.23044609344955,0.8898899398166625,-43.277724253375695
1761284455.611616,-3.5970321826787317,-0.1502013212401821,0.8469007568426685,-0.0881337725735564,-8.061964677176197,-1.7208354029148552,-45.14686359217995
1761284455.6215587,-4.123353659555526,-0.1561710141837163,0.8667401542888935,-0.08693938283733979,-5.065700209110267,-5.233883936722033,-46.7509196383628
1761284455.631518,-4.657943319186377,-0.151639537292051,0.8917700638415055,-0.07970373566369283,-2.3345556671870074,-9.598805306716732,-47.9814992319087
1761284455.6415288,-5.189371885628712,-0.1368415037187682,0.9198285235387531,-0.06707347651144725,0.047448811366371885,-14.637375542606936,-48.761804191706965
1761284455.6516287,-5.706781508347957,-0.11339581766127588,0.9485898889068463,-0.05019030142482297,2.0098914980934888,-20.070199851478012,-49.055571165262116
1761284455.6637583,-6.201054839739422,-0.08402941880432009,0.9758277809768037,-0.030596515527448125,3.5006540839570626,-25.558192516850333,-48.86869324610624
1761284455.6718783,-6.665634739410412,-0.052120475545407906,0.9996419083302287,-0.010069545526446079,4.490137033417371,-30.751131128852,-48.24379721990925
1761284455.6817482,-7.096879801275642,-0.02115616972099327,1.018604325961368,0.009585068784375515,4.974505162650301,-35.334441197139974,-47.2496164451528
1761284455.6915758,-7.493938261541059,0.005788120660588954,1.031811072288761,0.026744835365508576,4.977641275729918,-39.06628685772868,-45.96789402896464
1761284455.7016308,-7.858214671818848,0.026457395080359863,1.0388543958587113,0.040152521313128416,4.551634005234152,-41.79961393359103,-44.48062656082551
1761284455.711568,-8.192568167741927,0.03965615401615061,1.0397469687644532,0.04904598510040387,3.775653539039795,-43.48723582141779,-42.859866620314406
1761284455.7216384,-8.50040862805157,0.0452991014540351,1.0348307480751482,0.0532218309542836,2.7530092940851603,-44.171478963747916,-41.16135160609548
1761284455.7315605,-8.784850831374994,0.04428834806717441,1.0246949708621982,0.053028021873068765,1.6061578172224045,-43.962563044640035,-39.422243881039826
1761284455.7415226,-9.04805739262396,0.03825672830792214,1.0101162242213728,0.04928967947809681,0.4695210378237983,-43.01130974762817,-37.66248516252249
1761284455.7515268,-9.290859762305884,0.02922999785884776,0.9920219562060177,0.04318055854608381,-0.5198079512837098,-41.48186448443673,-35.88877299132903
1761284455.7615173,-9.51270028752574,0.01926365116462373,0.9714691756367059,0.03605841658414438,-1.2330740715076751,-39.52912929921057,-34.0999466106963
1761284455.7715342,-9.711890794786388,0.010107251164895933,0.9496248890610997,0.02928531914204403,-1.5617935202262891,-37.283929201349814,-32.29259417171827
1761284455.7815142,-9.886136901053849,0.0029431408967622963,0.9277358957768443,0.024054557964623798,-1.429422733785371,-34.84693784569312,-30.465936411712963
1761284455.791559,-10.033236935184616,-0.001764370771602616,0.9070815658669541,0.021244878748848138,-0.8012938477464328,-32.29041467967338,-28.625443099873078
1761284455.8015356,-10.15183698875216,-0.0042909780155709785,0.8889097849405507,0.021320007383052897,0.3086981566246047,-29.665203473320453,-26.78508130031577
1761284455.8115373,-10.24211583146564,-0.005549974090305937,0.8743598544020665,0.024286386998534516,1.8359494699129835,-27.009547893199485,-24.968434856170965
1761284455.8215792,-10.30628792703299,-0.006892442347421408,0.8643772204408506,0.029713805724721036,3.6684123276486114,-24.356328641204332,-23.209056242663024
1761284455.831584,-10.348846818160709,-0.009853464547486725,0.8596262081144764,0.03681268366865167,5.655594433654602,-21.736325308185503,-21.550289039576068
1761284455.8415325,-10.376517360686995,-0.015894219836366262,0.8604096771887609,0.04455145366945175,7.62296454201186,-19.17675208524881,-20.04452662199929
1761284455.8516424,-10.39793364736495,-0.026184955820499945,0.8666073701608924,0.05179236660255748,9.390666356088696,-16.696066819459308,-18.75161379565674
1761284455.8615294,-10.423099654299863,-0.04145977074168104,0.8776458787297261,0.057426245621118845,10.794600282316813,-14.297353940339347,-17.735989003927454
1761284455.8715687,-10.462714112531613,-0.061955874709323684,0.8925118131390355,0.060493500739185135,11.707168246147798,-11.963100088567238,-17.06226424965459
1761284455.881539,-10.52744771322666,-0.087432773595642,0.9098158028636603,0.060284903773432805,12.054551519250007,-9.653859483268599,-16.789232174776465
1761284455.891913,-10.627252835612996,-0.1172543235151552,0.927908407245083,0.05641794196056314,11.827576294652927,-7.312292825181475,-16.962700829087325
1761284455.9023361,-10.770769442687891,-0.15051002272035252,0.9450400514969153,0.04888365872221242,11.08410414554284,-4.872649457723214,-17.607978694125034
1761284455.911657,-10.964870920693308,-0.1861504602742706,0.9595466581328699,0.038057597374424955,9.942274783849951,-2.27431401251369,-18.723148062021142
1761284455.9215724,-11.2143741164663,-0.22311447166209689,0.9700335116134372,0.02466926507546193,8.56547773149279,0.5230843258515288,-20.274367218080226
1761284455.931545,-11.521920494917104,-0.26043140106700086,0.9755265538504965,0.009728254673367173,7.141301129892826,3.526003003553325,-22.194266138416697
1761284455.9419372,-11.888019341534514,-0.29728899804276976,0.9755657152587294,-0.005589110340067202,5.857652172508024,6.6974773140641775,-24.384055501579134
1761284455.9515789,-12.311226376868584,-0.33306293535283926,0.9702272759245796,-0.020082618685008196,4.879616056129393,9.953506205679336,-26.71934738552222
1761284455.9615798,-12.788410849301819,-0.36730633366263354,0.9600765169483764,-0.03268486077380904,4.33037151174598,13.165731886074667,-29.059041500484046
1761284455.971584,-13.315045387163138,-0.39969908903042217,0.9460636838517609,-0.042610935387405575,4.27866878582416,16.169571363485694,-31.25611625315618
1761284455.9816065,-13.885444931439322,-0.42996111480224974,0.9293834303510453,-0.04947615712667872,4.734166072823866,18.776129398122908,-33.168874190602374
1761284455.99164,-14.49289307714131,-0.4577423716208353,0.9113197773252891,-0.05335586291215469,5.650568135118846,20.78594028451427,-34.67116499135197
1761284456.0015883,-15.129628351311078,-0.4825126399501154,0.8930959878719005,-0.0547671865555421,6.935309599604469,22.002845968221553,-35.66034864855379
1761284456.0116267,-15.786711674285575,-0.5034801553383018,0.8757442694072092,-0.054566794590345406,8.463727198613514,22.24697492685883,-36.0622139190663
1761284456.021594,-16.45384514228103,-0.5195674052655183,0.8600069568261036,-0.05377836693404612,10.095385251388308,21.36655878462328,-35.83261707922179
1761284456.0316145,-17.1192465571342,-0.529464445527806,0.846279649587738,-0.05338226312076549,11.690380375932653,19.24889711995926,-34.95612471904675
1761284456.0415862,-17.76969281982553,-0.5317659042500419,0.8346055528578153,-0.05411044929280517,13.12385326892501,15.830945337935148,-33.4423442063272
1761284456.0515676,-18.390822411597064,-0.5251789009414084,0.8247262734491766,-0.056289504221061604,14.297403522647118,11.109726492205644,-31.320872527417375
1761284456.061557,-18.96773327237311,-0.5087690910241531,0.8161866055381934,-0.05976477420141904,15.146576116888955,5.152185936288089,-28.63588249079666
1761284456.0715432,-19.485837951529838,-0.4821972778435927,0.8084806154453218,-0.06392260822387233,15.64407524174457,-1.896570347539957,-25.441296369967766
1761284456.0815492,-19.931864329754816,-0.44589602075427326,0.8012162819232805,-0.06780835098093708,15.798865114667722,-9.808252911161285,-21.797295684291306
1761284456.0915651,-20.294843174911374,-0.4011469558687755,0.7942692135293477,-0.07031921125474541,15.651790976749734,-18.271382244422632,-17.7686334839333
1761284456.1015482,-20.566921357575506,-0.35004169644982464,0.787894792557546,-0.07043729894491997,15.268707969292848,-26.897883750788413,-13.424889397863113
1761284456.1115544,-20.74388293407298,-0.29533483373799263,0.7827731795097547,-0.06746131607466155,14.73226072119921,-35.237302567128914,-8.842450921101545
1761284456.121548,-20.825332882175694,-0.2402190198511233,0.7799722144148566,-0.061195183408452355,14.13338689168645,-42.798867173375974,-4.107644996114892
1761284456.1315935,-20.814572899611406,-0.18806380154736266,0.7808270369702361,-0.05205717656970546,13.563371180953583,-49.08075714319394,0.6798743548619429
1761284456.141551,-20.71825029952459,-0.14215987508035172,0.7867488325948067,-0.04108419730513321,13.106966595245476,-53.60509582064335,5.404614658812298
1761284456.1519692,-20.545877658891737,-0.10550073251959707,0.7989863828275096,-0.029823029977665193,12.836857126912319,-55.95646859236036,9.934850000419177
1761284456.1615384,-20.30930528974039,-0.08061821316915976,0.8183735216219356,-0.020121401411618053,12.809607844350358,-55.821220564912686,14.12550284435045
1761284456.171581,-20.022192224646226,-0.06947129386587893,0.8451036803413766,-0.013850819641192858,13.063152034911894,-53.02447384085326,17.825158155355414
1761284456.1815584,-19.699478309094644,-0.07337275400009106,0.8785765960377072,-0.012605340639551208,13.61568026832477,-47.561682763702045,20.88750503139423
1761284456.191562,-19.356824387618243,-0.09293044953813767,0.9173567181403824,-0.01742398123799094,14.465510659275834,-39.62145203313218,23.186667212507718
1761284456.2015676,-19.009971723473978,-0.12798132762961578,0.9592649517837568,-0.0285808383690495,15.591273368572251,-29.596173254795985,24.634845264308705
1761284456.21158,-18.6739824336256,-0.17750619828106345,1.0015978536807524,-0.04547810160396792,16.951743598089063,-18.07691209016469,25.199667407631246
1761284456.2215595,-18.362357760708534,-0.2395288651658838,1.0414393204401535,-0.06666465996425064,18.485046911146902,-5.829255375451716,24.917954173581393
1761284456.2315588,-18.08607959666385,-0.31102191571129645,1.0760091312397482,-0.08998815766984922,20.107708271264833,6.252058348924485,23.90254530723131
1761284456.2415705,-17.852667675146545,-0.387860450956748,1.1029868502829017,-0.11287183083223984,21.71488787463737,17.20970229474631,22.339578496492873
1761284456.2515562,-17.66537690995648,-0.46487925814411174,1.1207587939012411,-0.13268912030814128,23.183757803648678,26.108325898729543,20.47509807024276
1761284456.26156,-17.522668571934876,-0.5360910917997763,1.1285569398259225,-0.14718873966478263,24.38192209208876,32.130212513707775,18.591820876268944
1761284456.2715735,-17.41807303051848,-0.5951066519843199,1.126486771250848,-0.15490257347330263,25.181813488902367,34.67151527352711,16.97884118768485
1761284456.2815812,-17.340522649422883,-0.6357573615648645,1.1154656253917332,-0.1554546369327585,25.480147466470054,33.425880864068546,15.898547657252854
1761284456.291684,-17.275176700915534,-0.65286508128111,1.097101180680674,-0.14969077987978183,25.219230522201112,28.441415598416445,15.555717271682436
1761284456.3015766,-17.20469407686042,-0.6430426905058337,1.073528773157973,-0.1395746115280585,24.405070223527822,20.13872454542572,16.073509307420643
1761284456.3123662,-17.110843349686434,-0.605366244811618,1.0472098999064103,-0.1278476314687499,23.116756298854654,9.28260637257042,17.479978717620998
1761284456.321583,-16.976282309518346,-0.541753528650853,1.02069019300229,-0.11751978358864913,21.502947944882784,-3.0925653068205716,19.70701820739135
1761284456.331669,-16.786299219704933,-0.45692763467036634,0.9963289669979045,-0.11131371086429821,19.764223088979147,-15.79537755485589,22.601681586835703
1761284456.3416197,-16.530294987908018,-0.3579321269170652,0.9760343880876802,-0.11120173777518526,18.123621271639635,-27.61241353055252,25.94798117851285
1761284456.351561,-16.202807882117582,-0.2532690600870625,0.9610526116622519,-0.11813857157566847,16.790842742692938,-37.44645368958056,29.495744641143553
1761284456.361572,-15.803943008421554,-0.15181575140147205,0.9518552088334145,-0.13202371386908687,15.927344271324197,-44.438327726026294,32.99214822282812
1761284456.371701,-15.339158143914283,-0.061714684794726964,0.9481464402213097,-0.15185900149357315,15.619525370728432,-48.056054073198474,36.21126202579216
1761284456.3815713,-14.818455265473881,0.010580948277463812,0.948980327066599,-0.1760241709759742,15.865377581036277,-48.14038595099588,38.97742889401784
1761284456.3921013,-14.255111672257746,0.060971471416424186,0.9529526600356912,-0.20258454349149244,16.576910931811753,-44.902530875494826,41.179492519117574
1761284456.4020555,-13.66414278697704,0.08801257398472609,0.9584262181362245,-0.22956289551218514,17.597242026334655,-38.876558782296,42.774556618432975
1761284456.411602,-13.060715979440564,0.09284309896214557,0.9637565017446272,-0.25513855654833895,18.728333737019625,-30.834994723794544,43.781752761890665
1761284456.4215941,-12.458729846066632,0.07877880669298158,0.9674981979985936,-0.27776734883716764,19.763648242868037,-21.680675727095856,44.268084143955036
1761284456.4316745,-11.869736458966315,0.05065472597551927,0.9685790887541443,-0.29623769604543365,20.51962063072624,-12.330681762573407,44.32952619996376
1761284456.441592,-11.30231858747107,0.014031558659587494,0.9664268763836618,-0.30968815738142336,20.860732595321206,-3.608621359630582,44.0710236493021
1761284456.4516199,-10.761948428681812,-0.025600167263546605,0.9610313829837318,-0.3176104361057048,20.714703444333924,3.8404841140142096,43.58878642775499
1761284456.4615862,-10.251264795536043,-0.06348947814580842,0.9529269709029052,-0.3198525813035731,20.076453728387218,9.60278293714577,42.95747146066919
1761284456.471594,-9.770634115664208,-0.09607247129342715,0.943091020687915,-0.3166245453401526,19.001582416801018,13.511476109502164,42.223669800012715
1761284456.4815958,-9.318826637573803,-0.12115762095408567,0.93277136054847,-0.3084975479678744,17.591785811722204,15.627910396803662,41.40585810793192
1761284456.491816,-8.893648990392531,-0.13786725563973198,0.9232727759637446,-0.2963830949049905,15.97570210657833,16.19500312470352,40.499855080074745
1761284456.5016048,-8.49241825022871,-0.1463974270368211,0.9157441084098222,-0.2814782305077306,14.288951499213228,15.573571845564922,39.488021184595326
1761284456.5115907,-8.112224098000082,-0.14767906012078474,0.9110083255729179,-0.2651706619432912,12.656658905276803,14.173423814466076,38.35004026422973
1761284456.5215898,-7.749988788546318,-0.14302302650414306,0.9094664535450255,-0.2489092661114675,11.180676248100534,12.39025544878598,37.07312413487111
1761284456.5316522,-7.402387441585952,-0.13381662611937828,0.9110856555177899,-0.23405813098610662,9.932392184469986,10.556931017232946,35.659828734075916
1761284456.541609,-7.065724348711335,-0.12131457413817016,0.9154600475187671,-0.22176003610763106,8.950804977431474,8.914151342166411,34.132269989784255
1761284456.5515902,-6.735868474254211,-0.10653961869963327,0.9219180464307166,-0.21283443477005576,8.244728759826769,7.601590363856837,32.53225771974419
1761284456.561596,-6.4083324784175595,-0.09028245777744454,0.9296455986054887,-0.20772638788140763,7.797699358752604,6.666978581535916,30.917593689137824
1761284456.5716147,-6.078540005222649,-0.0731726021783461,0.9377995167649938,-0.20651073854562677,7.574242771952033,6.08794703514785,29.355392037549
1761284456.581604,-5.7422749154655675,-0.05578289231039651,0.9455959376616087,-0.20894464011627356,7.526471859882575,5.800101653717988,27.913694137362743
1761284456.5916078,-5.3962537045002,-0.038729382531072255,0.9523706765114522,-0.21455391851281885,7.600306617319245,5.724871405913774,26.652817110557603
1761284456.6015995,-5.038718794000969,-0.022733781673753284,0.9576159982083294,-0.22273474274744606,7.740873737603684,5.791949369399197,25.6177987499464
1761284456.6116064,-4.6699256411442756,-0.008626641229154446,0.9610000159996233,-0.23285076888680134,7.896819543867272,5.95318500318052,24.833035806422412
1761284456.62166,-4.292398388939794,0.0027152671792792216,0.9623726404411684,-0.2443074823653747,8.023397139276259,6.187076689906648,24.299826633408227
1761284456.6316643,-3.910860489810243,0.01048668531985224,0.9617593654068767,-0.2565911674059907,8.084296620408223,6.495090287897524,23.99707477724402
1761284456.6416478,-3.5318052516473477,0.014100197090533256,0.9593433867543187,-0.2692698463106198,8.052298089164513,6.892537710868792,23.884927996477725
1761284456.651643,-3.162744860325811,0.013324829532829149,0.9554376362989342,-0.28196488243565887,7.90894686042135,7.397475242705734,23.910676837469914
1761284456.6616213,-2.811246152481853,0.008380673226623779,0.9504500330539563,-0.2943102353215149,7.643560833875867,8.020956760484431,24.015903730024995
1761284456.671669,-2.4839086910524433,-3.6793635964792e-05,0.9448462485520025,-0.30591823934815887,7.25194539675931,8.761099625956442,24.143731678978284
1761284456.6816683,-2.1854560379261128,-0.010813549973424704,0.9391137935362731,-0.31636616907526244,6.735178610149974,9.60207213135376,24.24509103377018
1761284456.692036,-1.9180945556496936,-0.022549651184273864,0.9337293345455421,-0.3252095665674467,6.098729685403448,10.517689822322778,24.283168161567545
1761284456.7019002,-1.6812496979396931,-0.033747332697445356,0.929128935753312,-0.3320197965418531,5.3520126507514,11.478170486713015,24.23555911410195
1761284456.7116334,-1.4717244695465619,-0.043022654592716626,0.9256800257983441,-0.3364369768419261,4.508308244114816,12.457942300799777,24.094056065847287
1761284456.7216153,-1.2842507029290602,-0.04930342814305631,0.9236550078596848,-0.33822631660112545,3.5848628204338335,13.442279591174097,23.862374590584476
1761284456.7318294,-1.1123365089151858,-0.05197893221357461,0.9232084794832828,-0.3373257984494283,2.6029201211330997,14.430923914761204,23.552422455127115
1761284456.7419477,-0.9492655900931662,-0.050976291489575096,0.9243612073887227,-0.3338751217816774,1.5874623420628409,15.437631527610867,23.179873724688054
1761284456.7520566,-0.7890826543218825,-0.0467512471658289,0.9269936501453464,-0.32821866711234743,0.5665184401406785,16.485594092310595,22.759835553674222
1761284456.7617302,-0.62740521846768,-0.040195037546764206,0.930850775493296,-0.32087842610975226,-0.42998780141991794,17.599681970467703,22.303298378993297
1761284456.7716305,-0.46193419383800066,-0.03247296545013416,0.9355590865382389,-0.31249746439377757,-1.3717710236934595,18.797230084511796,21.814879982429122
1761284456.7815914,-0.2925895154456472,-0.024822254382986988,0.940656157118253,-0.303761247922162,-2.229953461638037,20.07944696584126,21.29215075264751
1761284456.7920167,-0.12126319981852962,-0.018343870636316918,0.9456321710907802,-0.2953101824834249,-2.9788977893540167,21.42540758430044,20.726596088913684
1761284456.8016975,0.04875364506168759,-0.013822484600593307,0.9499817521424374,-0.2876578981144816,-3.597926653383895,22.790051047572618,20.10605496519066
1761284456.8117423,0.21356428732512062,-0.011601388426291733,0.9532627317626512,-0.28112685490337064,-4.072762765072181,24.10680076467673,19.41828207906175
1761284456.8216703,0.3695470867473852,-0.011528599251516194,0.9551563536643678,-0.27581062779646914,-4.3965513407105465,25.294539848363467,18.655116300559385
1761284456.8316226,0.5141838188589938,-0.012979556608731138,0.9555208446631607,-0.2715726641184785,-4.570364490349113,26.267873106058204,17.816598432398145
1761284456.8418775,0.6467079674929286,-0.014951793086408049,0.9544283685858871,-0.26809048417136033,-4.603120744427701,26.949014316015827,16.914279940238693
1761284456.8520665,0.7684722167777246,-0.016218228226853797,0.9521762872689643,-0.26494700600193044,-4.51087652848156,27.279331622758345,15.97294411551772
1761284456.8620408,0.8829727355293768,-0.015518666221967396,0.9492688236566623,-0.2617565538042259,-4.315476312910832,27.22861033396869,15.0300724593149
1761284456.8716226,0.9955143477240962,-0.011763982409107438,0.9463730103247661,-0.2582989316656435,-4.042616576636108,26.800469356523845,14.132653099790014
1761284456.8817503,1.112549908062135,-0.004225707048710507,0.9442589549017747,-0.25462903780117996,-3.719504874666734,26.033049949265216,13.331333174136144
1761284456.891803,1.2407721259353783,0.007313994330715551,0.9437354354949191,-0.2511333321826693,-3.3724578684947413,24.994952425445327,12.672431341563797
1761284456.9016478,1.3860728668713778,0.02247317072032404,0.945586853213276,-0.248513804604537,-3.024912386263043,23.777244000186574,12.188872553234342
1761284456.9116392,1.552513545299818,0.040260335849555746,0.950509359254625,-0.24769200196390515,-2.6963311506127607,22.483015557520783,11.891531989285749
1761284456.9216042,1.7414664843056118,0.059157541625620196,0.959039757515386,-0.24963940455935502,-2.4023167001946355,21.216296075456015,11.762603046767232
1761284456.9318647,1.951078173318568,0.07729519754320954,0.9714769133990907,-0.2551552205396043,-2.155935073860452,20.072106170124588,11.752347856195382
1761284456.941645,2.1761587586199247,0.09269442043398636,0.9878081247469654,-0.2646273603905681,-1.9698999821486167,19.12909563061283,11.780006940782796
1761284456.951635,2.408521378200129,0.10353200640304183,1.0076609747723129,-0.2778236847296616,-1.8589974657776083,18.445639640547626,11.738918002954609
1761284456.9617486,2.637704351126176,0.10837657067630181,1.0302986920371084,-0.29376281742333693,-1.8420218806242632,18.059547282412286,11.505241220696647
1761284456.9716444,2.851940257673354,0.10635445203077057,1.0546675935697234,-0.31070329962355847,-1.9425778076132088,17.990779065910274,10.949250829672325
1761284456.9816027,3.0392074681309627,0.0972238680959372,1.0794947353620674,-0.32626900084112176,-2.1883669572497926,18.245931526406952,9.9479329586292
1761284456.991631,3.1882111609487134,0.08135714656143647,1.103424992677638,-0.3377035767697302,-2.608966745734861,18.82288295798636,8.397550756459124
1761284457.0016093,3.289180453926333,0.059648913883583336,1.1251790688341157,-0.3422226628119588,-3.2325192621229437,19.71400920661826,6.224844553464908
1761284457.0117743,3.3344211308275153,0.03338047127089837,1.143707296195101,-0.33741262886354734,-4.08207495933871,20.906781326096954,3.3956371332903834
1761284457.021612,3.318615060566004,0.004075052872816244,1.1583106600466835,-0.32161196360888333,-5.172481433225327,22.381263601105964,-0.08013832126818125
1761284457.0317938,3.2388965113234924,-0.02662588414490819,1.1687030714884825,-0.2942092558737039,-6.5086123038453865,24.104903379350763,-4.1475494320905435
1761284457.0417395,3.0947569065470675,-0.05704836698639936,1.1749987996767315,-0.25580302928430637,-8.085386966621657,26.02587935115039,-8.70993535154306
1761284457.0519738,2.8878337612474674,-0.08553617221945421,1.1776254871575356,-0.20819281222032393,-9.889520131796965,28.06695393703522,-13.635829002691665
1761284457.0616355,2.6216312447938876,-0.11048726000894386,1.1771829450241371,-0.1542025419893441,-11.90242535077591,30.12203678458516,-18.768634601958567
1761284457.071633,2.3012061342911543,-0.13040569180647898,1.1742838181449278,-0.09736782096083973,-14.10335729476464,32.05735481416353,-23.937951455451262
1761284457.0816162,1.9328405841216425,-0.1439884082223825,1.1694165632563354,-0.04153942933349198,-16.47181930292795,33.7182646707103,-28.97137564524986
1761284457.091643,1.523715025012525,-0.15024444571319404,1.1628617731531017,0.009536515237940413,-18.98847804345103,34.94155122331987,-33.70569089831778
1761284457.1016083,1.0815895053126037,-0.1486237474691086,1.154674710717473,0.0526053169099624,-21.63421922821136,35.571833641703776,-37.99655357766708
1761284457.1116347,0.6144982606579458,-0.13912345810525853,1.1447283051698653,0.08521399984293834,-24.38742880141002,35.47973820906983,-41.7260363310119
1761284457.1216202,0.1304602595422356,-0.12234296682691834,1.1327981407606875,0.10591899551006075,-27.22000353329533,34.579012072238385,-44.80768472920799
1761284457.1316369,-0.3627915199957101,-0.09947075814590083,1.1186656381353588,0.11438007914631364,-30.092929557855854,32.83983139328867,-47.18903309797279
1761284457.1416688,-0.8580576027032364,-0.07220051099778318,1.1022154349769446,0.11133859121859249,-32.95248536373556,30.29612737269965,-48.85177713727552
1761284457.151646,-1.3488893888009355,-0.04258605930932829,1.0835059262154838,0.09848375408820158,-35.728184306761804,27.04563608308248,-49.809969908730636
1761284457.161682,-1.829767219707198,-0.012852492166754667,1.0627989429667444,0.07821962403404711,-38.33339049950847,23.242404209557954,-50.106673420593935
1761284457.1716332,-2.2962289935449087,0.014815562607939018,1.0405464507396651,0.05336023937905388,-40.6690648413452,19.082570951290887,-49.80947644140355
1761284457.181712,-2.7449413194822188,0.03848489825464702,1.0173447888035976,0.026796588787192124,-42.63040830700057,14.785344592033645,-49.005238080926496
1761284457.1916523,-3.173712603383166,0.05665675700842057,0.9938734118415228,0.0011860780298913218,-44.11549994563936,10.572028656736112,-47.79439571362693
1761284457.2016273,-3.581460181806792,0.06839141675715675,0.9708332282435771,-0.02129193822048702,-45.034616593786026,6.646400725872753,-46.28519375691002
1761284457.211656,-3.9681572763627773,0.07334605941289499,0.9488938289409138,-0.03908894809732756,-45.3188698475011,3.1793950519438723,-44.58819780842786
1761284457.2217407,-4.334792546131454,0.07170990297025111,0.9286538544813416,-0.05134382366713219,-44.927054560983976,0.29981755207625926,-42.811395554299864
1761284457.231652,-4.683369371465085,0.06404226016201324,0.9106154146796084,-0.057855200020349336,-43.85004758584253,-1.9089566794791997,-41.056042705788904
1761284457.2416413,-5.016953027465087,0.051045615114049564,0.8951710599837104,-0.05899036051814564,-42.112566645639355,-3.4080228024475927,-39.4132544150717
1761284457.2517428,-5.339746158614218,0.033330019432785206,0.8826002599247366,-0.055553045738074736,-39.77244196118612,-4.200293015180812,-37.961254774233446
1761284457.2616389,-5.657144498025056,0.011237506596550614,0.8730720408557553,-0.04863090227182928,-36.917699704876796,-4.328417844346218,-36.76321185885409
1761284457.2717333,-5.975705525616193,-0.01521362390174625,0.8666510021975818,-0.0394403685574575,-33.661766589960884,-3.8743147218352623,-35.86567013724439
1761284457.2817702,-6.302961607111054,-0.04623638337422999,0.8633043059254096,-0.02918353936008321,-30.137094883718483,-2.9597755170134623,-35.29767828870312
1761284457.2918692,-6.647029657092157,-0.08204964140655621,0.8629068381144093,-0.018928140766246947,-26.487550983623386,-1.7463715640959685,-35.07073735052636
1761284457.3019865,-7.016007801761413,-0.12257284687057453,0.8652413748822669,-0.00951797924272702,-22.860007104048716,-0.4323258050344831,-35.17963758519265
1761284457.3116875,-7.417197089227599,-0.16711539602078318,0.8699916413894931,-0.001517452803795112,-19.395665091562037,0.7557240134980107,-35.60412698416756
1761284457.321653,-7.856232780205593,-0.2141382551035394,0.8767290593403193,0.004809249600112307,-16.221652817866882,1.5772029531368361,-36.311197335375105
1761284457.3316712,-8.33624550168803,-0.2611542797814691,0.8848977462083312,0.009485746712757273,-13.443343398845526,1.7980611737553338,-37.257639777393116
1761284457.3416364,-8.857189441397821,-0.3048116511144355,0.8938052541041629,0.01278104250817558,-11.137695841327947,1.2154688098409105,-38.39246947836475
1761284457.3516576,-9.415467594616008,-0.34117485233922124,0.9026274855691714,0.015141704103109548,-9.347769855138113,-0.3162598737120486,-39.658878803858975
1761284457.3616378,-10.003951407057023,-0.3661831206782332,0.9104354456964328,0.01710504611174442,-8.07848651824558,-2.862252359277909,-40.99553510486537
1761284457.371642,-10.612436235306271,-0.37623106734021755,0.916249758367874,0.019202564585258868,-7.293731508504891,-6.389998764569715,-42.33725287083111
1761284457.3821864,-11.228502156414963,-0.3687851028655978,0.9191262202456829,0.021866107405617015,-6.915049236440907,-10.761856687231603,-43.61530263276998
1761284457.3920314,-11.838676106867371,-0.34292950095177965,0.9182712344170467,0.025351350905997334,-6.822441971923554,-15.739231011277763,-44.75783624819128
1761284457.4016461,-12.429734697205953,-0.299733721220148,0.9131786331338334,0.029692957027481308,-6.858098996186435,-20.998929823974276,-45.69105726726898
1761284457.411678,-12.989962495111381,-0.24235086300377714,0.9037689588603698,0.034702450592368504,-6.834089443949744,-26.160398495192055,-46.341771055469835
1761284457.4216495,-13.510194002039391,-0.1757967586916775,0.890500810062123,0.040012372387120715,-6.5449519518454125,-30.82083503250557,-46.64175058048553
1761284457.431711,-13.984514838913173,-0.1064185623532628,0.8744161885339382,0.045158832689865584,-5.785528578644503,-34.59394326807879,-46.53394527871368
1761284457.4416718,-14.41056622907969,-0.041130140483790545,0.8570844180016642,0.04968239093482961,-4.373289655487925,-37.14755357704927,-45.980012676588736
1761284457.4516783,-14.789468525931596,0.013452281216049768,0.840427089041567,0.05321972957072557,-2.172961152956335,-38.23560742305625,-44.96809556468958
1761284457.4616401,-15.125435739285287,0.05181927123095792,0.8264379084675019,0.05556043023175932,0.8801136754697069,-37.72092970830855,-43.5193461400802
1761284457.471656,-15.425181341274659,0.07018948653745057,0.8168455363472709,0.056654901815285964,4.762255744674163,-35.58653330420709,-41.69153364934947
1761284457.4816463,-15.697214080003059,0.06686521974175387,0.8127894560172253,0.056576998411846095,9.353547973214107,-31.934637389553313,-39.57825153400307
1761284457.491698,-15.95109954391273,0.04230598820326065,0.8145787315053088,0.055460389331349204,14.442588534571135,-26.973962036666304,-37.302798672088876
1761284457.5016718,-16.196733186992212,-0.0010504402371797835,0.8215826819838874,0.053433846672051304,19.744583836950838,-20.997122671241048,-35.00668206397181
1761284457.5116558,-16.443646836641836,-0.059167294173562174,0.8322718768813098,0.05057526848712935,24.93105568648259,-14.351056287197657,-32.833702721159085
1761284457.5216439,-16.70036028660707,-0.1269279114003991,0.8443994120721195,0.04689222805674655,29.66733145165645,-7.404244875868346,-30.9115229520676
1761284457.5316894,-16.97379154835324,-0.19873085186073164,0.8552927755985543,0.042325315406894604,33.65260890434829,-0.514806570817517,-29.333268702052994
1761284457.5416546,-17.268747805892524,-0.26909511968102323,0.8622162389163133,0.03676392276974264,36.65696584596053,5.99690323906162,-28.141952202411076
1761284457.551645,-17.58752785808144,-0.3332121958927895,0.8627599390748255,0.030063105964213438,38.55018387537506,11.868603477774736,-27.320267095643874
1761284457.5616462,-17.929672017630224,-0.3873918097542868,0.855211960343473,0.02205398462527894,39.318448318438854,16.908065780320864,-26.787666638861893
1761284457.5717554,-18.291894701519045,-0.4293640871598178,0.8388723986450739,0.012547726396716143,39.066622962885,20.996729051119583,-26.405682294450862
1761284457.581753,-18.668225609973362,-0.45841625352292265,0.8142730994064002,0.001341962221066713,38.00567333915227,24.085788545257355,-25.991288373586116
1761284457.591687,-19.050365549293467,-0.47535409982100224,0.7832733202755875,-0.011755666311373258,36.42673113035939,26.18606743224353,-25.33691988249734
1761284457.6016586,-19.42823479473735,-0.48228912964927356,0.7490100420513182,-0.026873389997851056,34.6650477092488,27.353170518300374,-24.234702254526823
1761284457.6116488,-19.790662675010847,-0.4822663454670535,0.7156922512889099,-0.04398763648549135,33.05845225952641,27.669576338667746,-22.501761913256576
1761284457.6217184,-20.126145160790532,-0.4787662019758403,0.6882415604153587,-0.06281625846431961,31.905696721294778,27.225653406462722,-20.00330312724257
1761284457.6317124,-20.423587094122983,-0.4751334234339346,0.6717973069463625,-0.08272429456093768,31.43009602531131,26.102088860923327,-16.670471952191967
1761284457.6416667,-20.672947414946183,-0.47400027114026577,0.6711224372234948,-0.10268136413415302,31.75312313474914,24.356641012138038,-12.510759626577165
1761284457.6516569,-20.865718502925628,-0.4767803300891903,0.6899653390467934,-0.12130215793022285,32.881180373774946,22.018096536078815,-7.609651856197877
1761284457.6617098,-20.995194311050216,-0.4833103820748435,0.7304493421570911,-0.13698146131050928,34.70687075144186,19.089526697114707,-2.123262037912647
1761284457.671796,-21.056514600256868,-0.4917105970699587,0.7925723991990589,-0.14811129890731425,37.024074792654474,15.561335062819962,3.7373022792370136
1761284457.681678,-21.04650927754163,-0.4985142308863465,0.873901748839947,-0.15334811813628713,39.55435258959058,11.432457594844658,9.728156375653661
1761284457.6916618,-20.963400531711063,-0.49908633319100654,0.9695408554162884,-0.1518859558467795,41.98093080967253,6.735992749148714,15.598939710550418
1761284457.701705,-20.806444522423767,-0.4883089447578389,1.072427691186934,-0.14368720888442343,43.98599022184808,1.5641215714791366,21.120090713065533
1761284457.7116919,-20.575603597140972,-0.4614611842037637,1.1739908180734653,-0.1296257598860691,45.287137278298054,-3.91319883128709,26.10770396263978
1761284457.7216601,-20.271331114259528,-0.41517045464293273,1.2651355402447693,-0.11150894753457852,45.66954490754848,-9.44060534772712,30.442702636887034
1761284457.731707,-19.894524826853193,-0.34826577405332537,1.3374528503999277,-0.09196315765464318,45.01083835455774,-14.68413641936491,34.08156712194933
1761284457.7416625,-19.446667890431307,-0.2623452916922665,1.3844517231355544,-0.07418353911185879,43.29610010824364,-19.253921551779655,37.05671599631239
1761284457.7517009,-18.93013772127284,-0.16189934724054875,1.4025491416784626,-0.06155604853351401,40.62057093096426,-22.741856373008783,39.465850223889944
1761284457.7617283,-18.348628219231117,-0.0539177240918428,1.3915650652798723,-0.05717304092954937,37.178353230108655,-24.7704495206841,41.45118517200758
1761284457.7717288,-17.707602587719244,0.05296428919622383,1.3545870451521864,-0.06330140691101885,33.23717510259001,-25.045777873144566,43.17143612200518
1761284457.7816672,-17.014674739564715,0.14961093223612715,1.297252038358663,-0.08091555565722326,29.101881777843133,-23.40508336047161,44.77129688371861
1761284457.7916658,-16.27981449657124,0.22759457818128745,1.2266562373417054,-0.1094340475839463,25.07204525591637,-19.84951864566618,46.35422860216778
1761284457.801911,-15.515295205923733,0.2802530773668113,1.150179150847689,-0.14676290235579662,21.401057841525585,-14.555434146880968,47.963983418761885
1761284457.8117862,-14.735351511245742,0.3034434128814611,1.07448099568501,-0.18965634184389632,18.26452545866239,-7.862332554709055,49.57832141835348
1761284457.8216615,-13.955570139833632,0.29592173110767067,1.0048332700506635,-0.2342998156655334,15.744182982838028,-0.24031897243743058,51.115454330457936
1761284457.8316395,-13.19207220070258,0.2593549972712601,0.9448228493994539,-0.27695168725589786,13.830058106992405,7.756934973099549,52.450889380602405
1761284457.8422346,-12.460555774096687,0.19801815054958605,0.8963771647588106,-0.31447820530722664,12.439191160003446,15.546510730812477,53.4404780296842
1761284457.8516588,-11.775269729854283,0.11824940892088759,0.8600126452084106,-0.34467414681483877,11.445291299963673,22.571103003297914,53.94499945769589
1761284457.8616672,-11.14799993784135,0.02773692441473151,0.8352017722815439,-0.3663449771425214,10.711510258205594,28.348955129009273,53.85228792140963
1761284457.8716538,-10.58716417905746,-0.06529195342371864,0.8207657391151412,-0.37919890827962466,10.11865377727581,32.51467742979974,53.09415034725537
1761284457.8816724,-10.097117028149844,-0.15290235192572568,0.8152185285225946,-0.38363603115239625,9.583412504230342,34.847646219508846,51.65659840451241
1761284457.8916626,-9.677750459308374,-0.22821701720539578,0.8170144013044914,-0.3805215128972482,9.064630188012543,35.28541324786396,49.58300750022518
1761284457.9016871,-9.324441276695893,-0.28602189954400953,0.8246843641839811,-0.37100101156315984,8.55897820449124,33.92066691462058,46.970682116320454
1761284457.9116454,-9.028352688911147,-0.32313302027228,0.8368798817091717,-0.3563782185017467,8.089650694663606,30.98210220642653,43.96195000028557
1761284457.9216757,-8.777057087928956,-0.3384844504325883,0.8523618751721574,-0.33804411945433555,7.692406120529624,26.80187128137947,40.73128802217819
1761284457.9318779,-8.555419634500959,-0.33295209610017096,0.8699741043246124,-0.3174331804119083,7.402650402889697,21.774477156302183,37.47008338571845
1761284457.9416916,-8.346669904994169,-0.30897886266728514,0.8886267277293637,-0.2959823404136524,7.245874340058202,16.313338029845927,34.37052334254129
1761284457.9516253,-8.133587439210794,-0.27009541286960104,0.9072982926940872,-0.27507880964752135,7.232282427956675,10.811315563257423,31.609903409155528
1761284457.9617047,-7.899728742976359,-0.22043009642834233,0.9250515708765691,-0.2559954568477742,7.355330797907693,5.610214891497675,29.336448857573338
1761284457.9716728,-7.630621139435675,-0.1642776395516172,0.9410543820948926,-0.23982264319889487,7.593277409646778,0.9820267072263111,27.657613694177012
1761284457.981676,-7.314842091016377,-0.10576294505709732,0.9545993161047583,-0.22740999594715783,7.912666631904835,-2.8778597389029295,26.631749209860764
1761284457.9917436,-6.944897925958368,-0.04860737363479145,0.9651214482551331,-0.21933044171488505,8.272765318309803,-5.847472711867281,26.263939761230137
1761284458.001682,-6.517821200157296,0.004013947220233561,0.9722163580922951,-0.21587302847727333,8.630192294685713,-7.868574474166508,26.506585032131326
1761284458.0116448,-6.035423531774072,0.04954506655129425,0.9756602001110682,-0.21706291670300074,8.943238954919657,-8.934428136468574,27.264915587024085
1761284458.021691,-5.504167063663003,0.08607733862844323,0.9754302274786396,-0.2226993375483858,9.17560174324867,-9.078460781942436,28.40708613508797
1761284458.0316422,-4.934647586176565,0.11235630634908517,0.9717204140732182,-0.23239833696122883,9.299391504057464,-8.366029688265845,29.77788605827593
1761284458.0416791,-4.340713045725528,0.12778451405013405,0.9649448187988116,-0.24562860328068678,9.297330362099558,-6.889917638221064,31.21456519727285
1761284458.0516522,-3.7382729587310206,0.1324267645062051,0.95572216492721,-0.2617347107899087,9.164021686332438,-4.768678163948441,32.562919335137906
1761284458.061678,-3.143888028443628,0.12701193560691337,0.9448386547845042,-0.2799494919151707,8.906151729369071,-2.1458774448093267,33.691703709570085
1761284458.071842,-2.573263488765278,0.11291488347321835,0.9331910586508564,-0.2994029039464512,8.541518806229679,0.8121244298829313,34.503673925264614
1761284458.0817757,-2.0397988443486543,0.09209656745686055,0.921716600360092,-0.3191371022814356,8.096903521884876,3.921874064579663,34.942050346025276
1761284458.0916648,-1.553362015908009,0.06698272466851775,0.9113184787705649,-0.3381359056911569,7.604952834361374,6.993072105440839,34.99187319334911
1761284458.1016905,-1.119448684919906,0.040271738743811576,0.9027956332968033,-0.3553718939359077,7.100396410699864,9.843111983079474,34.67645201084601
1761284458.1116438,-0.7388526592515117,0.014679011548217229,0.8967832613676109,-0.36986809217560823,6.616010626990014,12.314292510270315,34.04979410199783
1761284458.1217008,-0.4079107667917428,-0.007355682945052981,0.8937078891508592,-0.38076630650665705,6.178781869792786,14.291029891294592,33.18639895850112
1761284458.1317015,-0.11930300210139695,-0.023954938485938604,0.8937586788262665,-0.3873920614365636,5.806696722180019,15.713938255937377,32.17004582290266
1761284458.141685,0.13670135286672389,-0.03403325093409213,0.8968752287279517,-0.3893064419836178,5.506514284688395,16.587912103844715,31.0831684041372
1761284458.1516654,0.37074039197327985,-0.03742137501729004,0.9027506959114469,-0.38633733604308235,5.272779232751299,16.98224047182375,29.99815167240299
1761284458.161708,0.5928382025110748,-0.034853277508858964,0.9108480383312281,-0.37858642651778224,5.088232358184665,17.02209867643395,28.97146476629119
1761284458.1717217,0.8111111209102894,-0.027809294706123155,0.9204282609490655,-0.36641351614296563,4.925666349650832,16.872243643652414,28.041017621701595
1761284458.1816785,1.0309037191068449,-0.018239585540287463,0.9305932261380925,-0.3504051538748954,4.751144975252444,16.715111433538063,27.22655652448194
1761284458.1917164,1.254469922664121,-0.008218719429121507,0.9403492129842598,-0.3313377020046618,4.528355559998687,16.726510233704655,26.532385099999054
1761284458.2017953,1.4812056197281618,0.00040346241493654985,0.9486970577260719,-0.31014383558973285,4.223721480984792,17.052496398027664,25.951329707102637
1761284458.2117193,1.7083352625224364,0.006291816912640788,0.9547487466370622,-0.2878865129274284,3.8117817053897287,17.790727793959846,25.468758975165848
1761284458.2216997,1.9318795545265428,0.008809668522936638,0.9578608355652248,-0.2657389073662412,3.2802435230826585,18.978720159155944,25.065639078999634
1761284458.2316906,2.147696230261491,0.008071964043269398,0.9577659767727398,-0.24496515078710304,2.6340328663629475,20.59023901752464,24.71999726455692
1761284458.2417283,2.3523920423698383,0.0048668658825671545,0.9546781882777008,-0.22689433161887473,1.8976419338864636,22.539790581269646,24.406667034299105
1761284458.2517123,2.543945741715064,0.00046619711448381724,0.949346558918973,-0.2128778428893218,1.1151672932640355,24.69402821362899,24.095687904340235
1761284458.2617831,2.7219499122084962,-0.0036372516299597694,0.9430364219534081,-0.20421993159400492,0.34768685985214653,26.88805416908738,23.750135641844874
1761284458.271791,2.887460550594678,-0.0060165739203726885,0.9374270372820226,-0.20207648156089517,-0.3319678821450213,28.94420232051883,23.324383154050324
1761284458.2817142,3.04251898728866,-0.0055721615118413505,0.9344294156389205,-0.2073270663407692,-0.8465234067341377,30.690922224098777,22.763767312552638
1761284458.2917979,3.18946312300233,-0.0017286325377427556,0.9359437929552291,-0.22043480923124184,-1.1227860538020533,31.979736593766912,22.006332648908543
1761284458.3017273,3.3301651482175316,0.005454865387181496,0.9435891448175374,-0.24131291920139408,-1.100390055702137,32.6988088340355,20.986797820415273
1761284458.3117185,3.465325043936348,0.01526737808617545,0.9584438186369494,-0.26921684664106177,-0.7398988467339674,32.78230991293867,19.64229767795765
1761284458.321716,3.5939246243255747,0.026417861993595353,0.9808359349470411,-0.30268072097573395,-0.029584989846977192,32.215332762140335,17.918969424529166
1761284458.3317318,3.7129152677086954,0.03718517902925572,1.010215775959188,-0.3395166727974313,1.0096282407744317,31.034436329898515,15.778193144451
1761284458.3417323,3.817177775041344,0.0456290703871213,1.0451321836088463,-0.3768927935279806,2.3215042496897107,29.324037527792022,13.201296501068496
1761284458.3517354,3.899756230625645,0.04983724391469926,1.0833231968128505,-0.41149885801392827,3.8145103896516965,27.20894688606962,10.191770273994416
1761284458.3617027,3.9523323620763966,0.04817763611679781,1.121918543711085,-0.4398005995077802,5.3648171459361285,24.843488272193195,6.774471564743545
1761284458.3717735,3.9658783092930707,0.039523577353024524,1.1577386376123284,-0.458371710026487,6.822338973079236,22.397896165817336,2.991832751540852
1761284458.381712,3.9314085863157864,0.02342380019985245,1.1876629632791447,-0.46427329703264925,8.019496366392104,20.04301083381958,-1.1023581582326987
1761284458.3917801,3.8407469220124857,0.00019680720931583456,1.2090300233953348,-0.4554286624394265,8.781974070254307,17.934605922047524,-5.450554109744882
1761284458.401714,3.6872273656365784,-0.029062859035364232,1.2200186361874685,-0.4309317026724401,8.9404630594128,16.19886452677939,-9.998991080946164
1761284458.4117057,3.4662577166748827,-0.06257072530543065,1.2199473610186893,-0.3912354217312041,8.342282511355814,14.92046265089078,-14.703564513832939
1761284458.4217405,3.175686121927609,-0.09802390162959466,1.2094244360784485,-0.33818594804263735,6.861882754423251,14.134406279336474,-19.532579236988536
1761284458.4317384,2.8159309317064096,-0.13283563830088493,1.1902973672781598,-0.27489086481773267,4.409488916349073,13.822305092877217,-24.465463166617138
1761284458.4417264,2.3898617757568044,-0.16439656006281445,1.1653930677779736,-0.20543580317664673,0.9374864342727118,13.913329256276578,-29.48742916732429
1761284458.4517143,1.902455053114655,-0.19032208209206328,1.138093081295612,-0.13448602788915276,-3.555523833857507,14.289827239792642,-34.581118111798745
1761284458.4617147,1.3602834760968583,-0.20865513723704868,1.1118308476987444,-0.06682612222390029,-9.022852557285896,14.797477925631481,-39.71718420102209
1761284458.471722,0.7709259501480691,-0.21801219776205957,1.0896125313491904,-0.006897709694368298,-15.369824865954836,15.259737618741132,-44.84629992349728
1761284458.4817283,0.14238932917264296,-0.21767775883241003,1.0736476132013595,0.04160995949126557,-22.45577528927949,15.495998030683529,-49.89496383837815
1761284458.4934886,-0.5173864345127289,-0.20765839036873807,1.0651400798662138,0.07607662255733412,-30.09808705156565,15.34219134669187,-54.76677348837632
1761284458.5017347,-1.2009054416191103,-0.1887019265651928,1.0642507415428162,0.09515192219180578,-38.07860346178627,14.67168225932779,-59.349639164346975
1761284458.5119357,-1.9013802604183534,-0.1622787115111267,1.0702088301347537,0.09883029537723188,-46.15267779169242,13.413487343403428,-63.52804233205397
1761284458.521727,-2.6129161035025454,-0.13051819112014043,1.0815318354515506,0.08839775223127865,-54.06079275759253,11.564531162385117,-67.19821944972682
1761284458.531767,-3.3306552575611534,-0.09609670091984722,1.096304941527038,0.06625714692781949,-61.54218460072656,9.193050423053556,-70.28337597844387
1761284458.5417554,-4.050910236423202,-0.06207655503555938,1.11247149106885,0.03565024303618774,-68.34945027283197,6.43143537609461,-72.74589598486055
1761284458.5517397,-4.771288974847348,-0.031698566234413215,1.1280907702759595,0.0003070407841131135,-74.26287929053527,3.458554233218535,-74.59404635242667
1761284458.5617616,-5.490788123810386,-0.008130702799552551,1.1415282301382987,-0.03593875590176212,-79.10325373721874,0.4735744903672447,-75.88173408108942
1761284458.5717287,-6.209811253745413,0.005821205061565192,1.1515565941006725,-0.06952588468980797,-82.74197313917993,-2.3349373638930686,-76.70118311928454
1761284458.5817585,-6.93006387648356,0.008025831349317314,1.157364307018803,-0.09749157781579126,-85.10750443658456,-4.819643954194481,-77.16967623289229
1761284458.591727,-7.654289010595561,-0.002667569457177853,1.1584878960767502,-0.11771093111929487,-86.18739966251732,-6.8994130340789805,-77.41254891401155
1761284458.6017132,-8.385834060323548,-0.026175306615515977,1.1547009728767543,-0.1290251356191204,-86.02556264074597,-8.573868640065042,-77.54526811023207
1761284458.6117191,-9.128076414942313,-0.061035125119808714,1.1458981878758305,-0.1312523914580479,-84.7150350719232,-9.924343091589641,-77.6575562901129
1761284458.6217425,-9.883771486409783,-0.10442526784696325,1.1320056563085263,-0.12509384739009888,-82.38711803232567,-11.100443808941272,-77.80207061322841
1761284458.6317122,-10.654411164394421,-0.15237388259051887,1.1129356692798382,-0.11195964552161167,-79.19796505919064,-12.294232183582746,-77.98917307363742
1761284458.6417902,-11.439685080889559,-0.20014555743681134,1.0885910223547213,-0.09374546700701382,-75.31384168535696,-13.706587617097556,-78.18804794307682
1761284458.6517713,-12.237121980408462,-0.2427564593966705,1.058916315895883,-0.07258995449255834,-70.89616144777735,-15.511988502483195,-78.33318190152157
1761284458.661929,-13.041960169652723,-0.2755501507723077,1.023987126414674,-0.05063985977297036,-66.08736392281064,-17.828181924319793,-78.33435108865852
1761284458.672368,-13.847261372189465,-0.2947577129593575,0.984119538816924,-0.02984281905001465,-60.99879326466218,-20.696014533856385,-78.08793590845272
1761284458.6818094,-14.644247345258464,-0.2979628295143966,0.9399733200963343,-0.01177891644088099,-55.70186421276584,-24.072465892138982,-77.48760399181391
1761284458.6917424,-15.422810123962675,-0.28440074631693185,0.8926177697403153,0.0024637837576511838,-50.22375670703708,-27.837238425826516,-76.43303546903178
1761284458.701733,-16.172131018015442,-0.25504644868898424,0.8435357357786307,0.01236530692105008,-44.54855782983878,-31.810678388432663,-74.836214452509
1761284458.7119,-16.881342139749933,-0.21248647894873648,0.7945577034800354,0.017995710409430758,-38.62424972593185,-35.77882612227317,-72.62563891398865
1761284458.72208,-17.54017346547324,-0.16060556613163657,0.7477355773568275,0.019978344269896354,-32.37536128274559,-39.520399712262396,-69.7493741727317
1761284458.7317326,-18.139542348873128,-0.10414161277590434,0.705175150748788,0.019394446796457222,-25.720514358102015,-42.83067676492816,-66.17802785030955
1761284458.741751,-18.672056252166634,-0.04816886201231233,0.6688449598095962,0.01763568363198194,-18.593458310466087,-45.53843724590516,-61.908422160090446
1761284458.751734,-19.132410343588575,0.002434077145183084,0.6403733219437768,0.016219004958995847,-10.965454626766897,-47.51396240890051,-56.96809128359905
1761284458.7617178,-19.517668190095144,0.043479549881423,0.620843625144592,0.01658572588071297,-2.8661100998621083,-48.6680468370598,-51.4199355237601
1761284458.7717333,-19.82741644712588,0.07188123282941901,0.6106053472905947,0.019910992577660387,5.60082780745288,-48.943704279542835,-45.3656537475122
1761284458.7817674,-20.063785530097913,0.08593466705488319,0.609132782445804,0.0269488721389784,14.250316578808032,-48.30353063828391,-38.946179067166035
1761284458.7918818,-20.231330504283292,0.08542957418199777,0.6149762628713051,0.03793300132595602,22.82051934065613,-46.71638026593149,-32.33741779965736
1761284458.8017552,-20.336770870209932,0.07156946024292267,0.6258511267685839,0.05254378414463467,30.990573226589376,-44.14702915098003,-25.740192424046942
1761284458.8117325,-20.388593606947396,0.04669822127383027,0.6388930616464882,0.06994023604153471,38.411102419136064,-40.55190508064464,-19.364354701848026
1761284458.8217473,-20.396529389860877,0.01386598862025343,0.651078497585481,0.08884046565872039,44.74445507492719,-35.88291425060211,-13.408349250619832
1761284458.8317347,-20.37091717737429,-0.023700711185222715,0.6597721712300244,0.10762806199201416,49.70941089774957,-30.09999016702251,-8.036746746322574
1761284458.841742,-20.321979649159697,-0.0631364960157732,0.6633265184086939,0.12447156545567382,53.12371614353664,-23.191301811342257,-3.3591676674555155
1761284458.8517323,-20.25904528476524,-0.10238867720879377,0.6616259435441133,0.13746680578499965,54.93750464972261,-15.19824690613221,0.5855547211653725
1761284458.861735,-20.1897739364705,-0.14050175124200118,0.6564533419760977,0.14482203695494578,55.251379860782684,-6.240747028322739,3.8362991276760563
1761284458.8719897,-20.11946636105526,-0.17767968220738883,0.6515667118394857,0.14508057333791743,54.31448188678913,3.462586427119471,6.504968417737682
1761284458.8817341,-20.0505526653918,-0.2151030461751379,0.6524117012684332,0.13733438280419086,52.50016508395006,13.584653764387859,8.759364558059731
1761284458.8917656,-19.982349193423733,-0.2545133375587855,0.6654495364184955,0.12137450507196457,50.25994814059686,23.694150182559,10.795338209516387
1761284458.901771,-19.911144721568864,-0.2976145569240709,0.6971360210229798,0.0977599211770127,48.060078107968096,33.27524445752335,12.802480043181795
1761284458.911771,-19.830628337821675,-0.3453792229112129,0.7526491530954672,0.06781333044659513,46.30916618004684,41.76166954401817,14.929448423276426
1761284458.9217823,-19.732610857694404,-0.397376682121054,0.8345409532952965,0.03353279755198655,45.289274452006474,48.58277681496623,17.25564804246486
1761284458.931756,-19.607934174697046,-0.45126392861256137,0.9415722342696595,-0.002618787788606982,45.10494873562827,53.21827182542475,19.7752574612919
1761284458.9417353,-19.44743030118573,-0.5025898486250163,1.0680369667106244,-0.03806002790064645,45.66294628960433,55.25729994111903,22.397607371868645
1761284458.9517324,-19.242799135182107,-0.5450486381112881,1.2038557534774377,-0.07051943321222408,46.68928816104885,54.45585294328513,24.96481942777092
1761284458.9618063,-18.98731671689829,-0.5712568759202118,1.3356028456060423,-0.09844370946685067,47.781830510240084,50.78470724404339,27.28389596005249
1761284458.9717321,-18.67634345088795,-0.574012944916408,1.4484377864700282,-0.12128648216529274,48.488764591022516,44.45932088850056,29.166937496440358
1761284458.9817452,-18.30765113961533,-0.5478420671097133,1.5286641115518724,-0.1396117117575246,48.39806397563888,35.94391277785312,30.470862851956188
1761284458.9918962,-17.881611656388948,-0.4904784350987612,1.5663848287810804,-0.15497908786381626,47.22031537913832,25.92436052332986,31.127745156276273
1761284459.0017567,-17.401282627342678,-0.40386047625189475,1.5575699984306186,-0.16960547264535966,44.84782072304477,15.248544661584802,31.158955307850633
1761284459.0117667,-16.87239387189648,-0.2942895444876716,1.5049203733929086,-0.18583724819441202,41.37687652037641,4.838384219325693,30.670261883673348
1761284459.0219197,-16.303201426237877,-0.17163526239688262,1.4172427572729227,-0.20553529831799972,37.087883751733756,-4.415459806010445,29.829745433006973
1761284459.0317478,-15.704157762398827,-0.04777053673514127,1.3075228060800235,-0.2295387101352684,32.38803126565673,-11.759284644163971,28.834452926308447
1761284459.0417569,-15.087365205750302,0.06535323548859066,1.1902726568917261,-0.2573841006765011,27.73062927082668,-16.663271823583152,27.87397465962678
1761284459.0517747,-14.4658334488055,0.1575159565508406,1.0788869502915925,-0.28739020600124093,23.530495923156657,-18.873902254040615,27.09902633907859
1761284459.0618148,-13.852626751495192,0.22154711933011545,0.983634817394519,-0.31709306331457143,20.094534325987308,-18.424438201064692,26.600948625030817
1761284459.071756,-13.260024795988603,0.25396956805983617,0.9106293169350739,-0.343888541483487,17.581306507763117,-15.605901310250752,26.40475057539094
1761284459.0817733,-12.69880805011594,0.2549857457869354,0.8617887415809256,-0.36566578532032135,15.995003670744747,-10.908663881975471,26.47505063802562
1761284459.0918016,-12.177721581348607,0.22796036702916464,0.8355606819098047,-0.38123157242648315,15.210334193492296,-4.948221693051547,26.73182508800709
1761284459.101845,-11.703106816500485,0.17860223538689746,0.8280692697949992,-0.39041903060620997,15.017948729889905,1.6119721651098389,27.071597005941292
1761284459.111805,-11.278655876735101,0.11402821876383912,0.8343487243155557,-0.3938960842276812,15.176743389983413,8.130963182953202,27.38955303881068
1761284459.121822,-10.905252395247064,0.04184318764586102,0.8494014764845448,-0.39278652977208134,15.460194570165253,14.04817847907338,27.598805899626022
1761284459.131786,-10.58090396641365,-0.030678346008201175,0.8689304157678684,-0.388258106180979,15.687999612756522,18.925813276239317,27.644268054409146
1761284459.141782,-10.300814246134909,-0.09725706188696107,0.8897078198591587,-0.38121352889036697,15.74000287122727,22.474504628527182,27.50999141169751
1761284459.1517649,-10.05765585064818,-0.15308745641037008,0.9096301591142785,-0.3721597572633709,15.554657418738227,24.561993175376255,27.220051769819456
1761284459.161765,-9.84207610704547,-0.19510849352756357,0.9275562599347297,-0.3612566500810689,15.117546522104243,25.205310682042757,26.833936080044577
1761284459.1717858,-9.643409949555808,-0.22205697216231002,0.9430387422176013,-0.3484874794986988,14.446207614451653,24.548254696454276,26.43788642619662
1761284459.1819484,-9.45051555321187,-0.23431432129128046,0.9560436013643412,-0.3338679022743846,13.576160412004441,22.82750013901669,26.133826136719254
1761284459.1917913,-9.25261265418976,-0.23358245780496892,0.9667207215857857,-0.3176174420731868,12.550740589858476,20.332223258293787,26.02743365747746
1761284459.2017832,-9.040001585876627,-0.22244626132318226,0.9752511253720224,-0.30024586608475434,11.415176320888307,17.36302687722374,26.21671957852445
1761284459.2117598,-8.804570295853884,-0.20389263465080948,0.9817665544579047,-0.2825401519774026,10.213984549569062,14.195865801189214,26.78215399850168
1761284459.221792,-8.540045613003295,-0.18085651388639096,0.9863207105766443,-0.2654651293670965,8.990330701215616,11.055515815633637,27.779020472818146
1761284459.2317731,-8.241999044440561,-0.15585335490646646,0.9888895359592702,-0.2500088292883468,7.7862058299874,8.101196464164603,29.2322860688158
1761284459.2417712,-7.907663377665339,-0.13073872878758377,0.9893851889118718,-0.23701273617930269,6.642705712811524,5.424725074016562,31.13394702545981
1761284459.25179,-7.535645948261168,-0.10661303894448747,0.9876779528993499,-0.22702820187531517,5.600036680929668,3.0595030550744795,33.44260651116092
1761284459.2618437,-7.1256338301692805,-0.08386688176263478,0.9836269539586313,-0.22023290508838506,4.697034699075514,0.9970505911688786,36.08499326006308
1761284459.271835,-6.67817507153911,-0.062342807519663895,0.9771221837207928,-0.21642595389097358,3.970039861281083,-0.7930708947527338,38.95921351306176
1761284459.2818098,-6.1945914525989485,-0.041574216923732574,0.9681374433682048,-0.21510047638684168,3.451025666415371,-2.3441810579456583,41.93967402557684
1761284459.2918108,-5.677039255466898,-0.021053999059109568,0.9567882197997826,-0.2155740361361005,3.1650081983068583,-3.677786838065005,44.88371413041676
1761284459.3017778,-5.12869492137661,-0.0004853073474912402,0.9433827097397064,-0.21714494654541955,3.126960998055557,-4.795526352535217,47.639938958755124
1761284459.3117895,-4.554009935475783,0.020027074124546077,0.9284512606393461,-0.21923872023528704,3.3386836061870304,-5.67840922173963,50.05803000237094
1761284459.3218505,-3.958957131919009,0.039876730898356576,0.912741621132244,-0.22151302334742537,3.786231810713098,-6.292445107623257,51.99949788069598
1761284459.3318307,-3.351180020540027,0.05796681057645479,0.8971741551105047,-0.22389964048636407,4.438555900015421,-6.598523549497987,53.348544062444965
1761284459.3418381,-2.7399593068592947,0.07283722295609517,0.8827595636362083,-0.22657547595567293,5.247903484750965,-6.563727938874339,54.02198598204209
1761284459.3517733,-2.135928275661283,0.08289524172416796,0.870488824747665,-0.2298688644670547,6.152348856409005,-6.17123190337563,53.9771154396955
1761284459.361805,-1.5505019023850901,0.08671852482184103,0.8612106154535302,-0.23412057317114515,7.080520879170496,-5.426529091286528,53.2164383027624
1761284459.372025,-0.9950330355114058,0.08338150358237346,0.8555165010978278,-0.23953038253267186,7.958201847704523,-4.35884302853043,51.78848244585117
1761284459.3818352,-0.47977039001926497,0.07273974614284175,0.853658192377704,-0.24602902894255183,8.715971756080876,-3.0178498787060573,49.784218505812746
1761284459.391782,-0.012758735490693557,0.055598038629437595,0.8555202051158807,-0.253216619884348,9.296601009469804,-1.4669334904673246,47.32910903575208
1761284459.4018087,0.4011287899518483,0.03370000833312689,0.8606600113832712,-0.2603956756519886,9.660704838967336,0.22522595994628228,44.57142091504077
1761284459.4117734,0.760829723257263,0.009520409115830452,0.868407095981062,-0.26670015632633987,9.78948236866146,1.9929021449440487,41.66813175349835
1761284459.42184,1.0692567561322746,-0.014097051696205537,0.8779937093340595,-0.27129265289456533,9.68412462960508,3.7799207766249423,38.77029609627073
1761284459.4317827,1.3329370364775153,-0.034366121122066676,0.8886859898177903,-0.2735835046470618,9.362359533295137,5.543586196580765,36.00988952117602
1761284459.441806,1.561184371360918,-0.048948858764070166,0.8998936857270138,-0.27342156448852023,8.853232369977567,7.255424888014041,33.4898865172358
1761284459.451785,1.7649528142409543,-0.056235537026583335,0.91124820077389,-0.27121225188943393,8.191416019010756,8.898774764021896,31.2787581686707
1761284459.4617908,1.9555711095980268,-0.05547719593299871,0.9226442099166811,-0.26793089868896486,7.412158528249505,10.463792825805461,29.40981020629626
1761284459.471776,2.1435608902735956,-0.0467716497630829,0.9342411317275506,-0.2650179264706488,6.547573874015403,11.940928370863583,27.88492745375398
1761284459.4817803,2.3377022177294857,-0.030931578843861284,0.9464226366509201,-0.2641661480897443,5.624533367503696,13.314260787333989,26.6815166695136
1761284459.4918747,2.544443214673164,-0.009280116639968488,0.9597183005562596,-0.26703539156691575,4.664055219844304,14.5563075794469,25.760955874293657
1761284459.5018039,2.767675338652311,0.016575211106672986,0.9746992928066116,-0.2749487330919313,3.6818924704319977,15.625894591039504,25.076782256584504
1761284459.5117817,3.0088287289446805,0.04494484796796874,0.9918640072551429,-0.28863082104245086,2.6899630632654032,16.470288422926757,24.581130460542052
1761284459.5217826,3.267193165500071,0.07420436905208455,1.0115274811410555,-0.30803959522332675,1.6982642883267436,17.031932190371904,24.22841182046616
1761284459.5323653,3.540344591682902,0.10287332137933992,1.0337237787213662,-0.3323216479742939,0.716920617911492,17.258962351827112,23.9757641741693
1761284459.5418153,3.824558535748127,0.1296327473329106,1.0581279723692316,-0.3598945541421827,-0.24193951824807972,17.117598103569758,23.780343026862106
1761284459.5518572,4.115120871208353,0.15330604061147027,1.08400603126483,-0.3886326426447422,-1.16269376677374,16.603863662712033,23.594062032627694
1761284459.5618236,4.406494900863786,0.17283507426407735,1.110206191691669,-0.41611198772920427,-2.0253101747953357,15.752105744605775,23.356902287476792
1761284459.571822,4.692355195405749,0.18727506070845654,1.1352103553136037,-0.4398614698737236,-2.8053038689809706,14.638351872104236,22.99032534576291
1761284459.5817978,4.965537670388439,0.1958122221904786,1.157261369625231,-0.4575731564508587,-3.475011247156674,13.377524584889297,22.39255156193486
1761284459.5917895,5.2179749762482075,0.19779194826381782,1.1745663818457392,-0.4672476212674683,-4.006606031387485,12.11461955879302,21.43742893929926
1761284459.6017892,5.440687225689558,0.19274348125810556,1.1855518546345944,-0.467281846309543,-4.376998848770184,11.010901977101689,19.978271677825962
1761284459.6118205,5.62388553379378,0.1803984677660594,1.1891235011854828,-0.45653246772561956,-4.574311586788487,10.22680589245386,17.857379276898367
1761284459.621805,5.757225178701654,0.16071162724578936,1.1848739215178823,-0.4343890430212367,-4.605180890011672,9.903527113308403,14.921008063598565
1761284459.63184,5.8302192738673915,0.13389269553274846,1.1731866138367142,-0.4008710039640869,-4.501843529944722,10.145340054420185,11.038487151041647
1761284459.6418464,5.832794445381042,0.10045221023065308,1.155207209977481,-0.35673327287730927,-4.327789963856776,11.004477973799064,6.123133561681617
1761284459.651841,5.755941606227605,0.06125710532219613,1.1326849068002196,-0.3035436127219995,-4.180693354158073,12.470061599588032,0.15183713914826064
1761284459.661859,5.592394610035777,0.017588034801710173,1.107718364154487,-0.2436860575670188,-4.191352016697313,14.462200947883494,-6.820131972909614
1761284459.6718438,5.337262381319814,-0.02881413691612766,1.0824618610142984,-0.18025102669862295,-4.517634069447056,16.832175150562737,-14.652219978320849
1761284459.6819434,4.988545975926554,-0.07573220244123086,1.058854197754247,-0.11679412108085373,-5.332983782473551,19.369490656187455,-23.121708798069612
1761284459.691904,4.547486137401177,-0.1205131956413921,1.0384231384687759,-0.056979845196765834,-6.809922831494792,21.81641136835311,-31.937447354907047
1761284459.7018092,4.018701662500449,-0.16019352429940756,1.022195447160147,-0.004165925196815966,-9.100004181203422,23.88997579408867,-40.7630845337664
1761284459.7118313,3.410089125754225,-0.19172717902957515,1.010712960303198,0.038985654754776784,-12.312616560559656,25.310431479278698,-49.24717370227344
1761284459.7218218,2.7324635035118603,-0.2123131865195417,1.0041255714133053,0.07078024516228854,-16.495624518781373,25.83355028693677,-57.05638638595029
1761284459.731805,1.9989358874007541,-0.21978865701125838,1.0023138204993005,0.09058646602284547,-21.620839810516344,25.28283166960698,-63.90744541370709
1761284459.7420428,1.2240538260078706,-0.21302686351945205,1.0049976208178042,0.09875815827049166,-27.576729390565777,23.576675368036774,-69.59340924177448
1761284459.751821,0.4227682728334631,-0.19226274421329337,1.0118084336793423,0.09643800607386706,-34.16978289998598,20.7456093759571,-74.00073235389601
1761284459.7618206,-0.3906714183798666,-0.15926623481943722,1.0223222446533162,0.08531566483951146,-41.134834590970534,16.935690313108605,-77.11499296022559
1761284459.7718158,-1.2037684408587537,-0.1173038301249411,1.0360600754814542,0.06739593882974754,-48.15349542651914,12.396088007639829,-79.01495625117636
1761284459.7818232,-2.0066461229621653,-0.07086987687164628,1.0524649459057351,0.04480610722193126,-54.87879966195594,7.451352392313269,-79.8563224478822
1761284459.7918236,-2.7926220504715578,-0.025216311270336262,1.070865132113683,0.01965265122288473,-60.96335360482852,2.4615781750412125,-79.84783068530076
1761284459.8018157,-3.5584157348714736,0.014254032163383785,1.0904347014050906,-0.006074198491963595,-66.087846494935,-2.223898523275105,-79.22323371937125
1761284459.811804,-4.30396524354066,0.04264596455413129,1.1101616053042496,-0.030559849635183416,-69.98682010433582,-6.312133106194852,-78.21298522050692
1761284459.8219242,-5.031880565192815,0.056192866366903294,1.1288297983267028,-0.05220890557277446,-72.46903498347092,-9.60423764591111,-77.01928719196863
1761284459.831835,-5.746609965977301,0.05275585005358708,1.1450175791779067,-0.06969457736877126,-73.43046977144434,-12.019022927179552,-75.79745945500547
1761284459.8418162,-6.453433221195861,0.03212989982689885,1.1571141013742678,-0.08202582300907406,-72.85881950272831,-13.598901356898278,-74.64551688160215
1761284459.8519857,-7.157417283727296,-0.0038928430951835936,1.1633610719338974,-0.08862580104597781,-70.8292462704854,-14.497242271008979,-73.60255476339628
1761284459.8618338,-7.862472326990302,-0.051720448729406336,1.1619335010984293,-0.08939784085243097,-67.49203783161867,-14.949304917812176,-72.65524815653447
1761284459.8718617,-8.570628005706453,-0.10639727148284477,1.1510758427820034,-0.08474822763497487,-63.05371625256549,-15.231464768429243,-71.75062329927698
1761284459.881815,-9.281613420114985,-0.16221797786056333,1.1293029509259618,-0.07554279554798246,-57.75394252478136,-15.615458821672352,-70.81239347829762
1761284459.8919199,-9.992775747014843,-0.21343050531244478,1.0956589576010147,-0.06299382320135521,-51.84114151699025,-16.32550987084641,-69.75773380169636
1761284459.9018395,-10.699320677461467,-0.2549264456100317,1.0500076448605327,-0.048496160005716056,-45.54995061203004,-17.506049742969857,-68.51155357408685
1761284459.911832,-11.39481193313016,-0.28282028293820227,0.9933129181412714,-0.03344586983447887,-39.083267874873975,-19.206031741736627,-67.01612939800918
1761284459.92206,-12.071834935971053,-0.29483621725852616,0.9278607268378026,-0.01907547600405425,-32.600894099767984,-21.38254968827255,-65.23520264853359
1761284459.9318209,-12.722716537250662,-0.2904542379022068,0.8573726398615933,-0.006330687491572859,-26.21573335798503,-23.92227771568101,-63.152997875921855
1761284459.941846,-13.340200435606704,-0.2708125530176367,0.78696493835176,0.0041986882571482505,-19.997452960278714,-26.67521102965339,-60.76973939896649
1761284459.9518392,-13.918003388467383,-0.2384090899597203,0.7229165265416304,0.012292029225982486,-13.982524371685644,-29.492469773865064,-58.09587195842461
1761284459.9618258,-14.451212737568998,-0.1966764503069599,0.6722255334515816,0.018062730648823664,-8.188737006700105,-32.25921744440257,-55.147224318059074
1761284459.9718509,-14.936521383011167,-0.14951541897716172,0.6419584257959512,0.021888107935294002,-2.6316482854229624,-34.91509629428559,-51.94285017231625
1761284459.9818678,-15.372323677541493,-0.10086250644898358,0.6384257454606354,0.024320401961132696,2.6599542028085836,-37.45753970924012,-48.50640248450569
1761284459.9918745,-15.75870969910725,-0.05434255279246244,0.6662527732368096,0.02599372008265594,7.632566681100484,-39.92713603764346,-44.87085524086622
1761284460.0018773,-16.09739527618839,-0.013027209851126277,0.7274480785615646,0.027538160139199165,12.203060011713887,-42.378072602146126,-41.08539183752618
1761284460.0118442,-16.39161437067514,0.02070568272457339,0.8206040528294848,0.02950835462103772,16.262043925126758,-44.83988898089797,-37.22250567792996
1761284460.0218556,-16.645984620596845,0.045231612750196916,0.9403856176034656,0.032330370995081244,19.685850788029022,-47.27881149689144,-33.38292078694566
1761284460.0318193,-16.866341337521767,0.059681276674197835,1.077468288330217,0.036267853231827345,22.35586459396043,-49.5674984881585,-29.695908539338678
1761284460.0418553,-17.059523614530626,0.0639050204468043,1.219064723399426,0.04140466745553798,24.182287768169502,-51.47096007757438,-26.313006469212986
1761284460.0519588,-17.233090653142238,0.05841323753251922,1.3501193613629479,0.04763789835975747,25.128136521687402,-52.65382907728142,-23.394071257695455
1761284460.0618236,-17.394948612335448,0.04429635215538567,1.455144047218296,0.05467404278812281,25.22864178577196,-52.7104376623987,-21.085989850857583
1761284460.071856,-17.55287872133447,0.02311488276900204,1.5205073453809017,0.06202427953381166,24.601540231924343,-51.21496060372272,-19.496085661402695
1761284460.0819747,-17.713973639399928,-0.0032638332083641513,1.5367892150296292,0.06900173205141781,23.445041527987886,-47.785053208176414,-18.66400131403061
1761284460.0919428,-17.884005356664186,-0.03290850720547008,1.5006484515038505,0.07473213882875107,22.022494103719236,-42.149717533760324,-18.537220113955847
1761284460.1018572,-18.066760116041248,-0.06414420937926764,1.4156766470999926,0.07819318266290445,20.635615219709273,-34.2110414741063,-18.95601158169525
1761284460.1118248,-18.263389329254455,-0.09588757943002282,1.2920106845461474,0.07829257902732173,19.590795672684873,-24.090031283727505,-19.653131880760007
1761284460.121852,-18.471852425277184,-0.12788438496487523,1.1448816485940838,0.07398645568567372,19.164343492108237,-12.148753463338675,-20.271882857606073
1761284460.1318488,-18.686565455900993,-0.16074305419402754,0.9925163217556532,0.06443597089152829,19.571961840545,1.0159805348834992,-20.403186042338046
1761284460.1418731,-18.898387925405423,-0.19571249259919704,0.8538006913397903,0.04919706685811384,20.945680238994594,14.608565334365215,-19.638564171330135
1761284460.1518567,-19.095047079486722,-0.2342153336363529,0.7460007948910632,0.028422332144561874,23.319090991271725,27.697666375321322,-17.632071116763928
1761284460.1618319,-19.262015576287464,-0.2772031178065836,0.6827405731224995,0.003023388517179351,26.620298210756193,39.300510313417874,-14.161194441075816
1761284460.1718411,-19.38376086596385,-0.3244553940103587,0.6723836402504635,-0.025283820384464206,30.67199818421955,48.47985664547165,-9.17545459516315
1761284460.1819391,-19.445209672244616,-0.37399432711445796,0.716944680276337,-0.05412186039314448,35.19917098514022,54.44336569202291,-2.822374251535763
1761284460.19208,-19.433234233052534,-0.4218039886616501,0.8116543754621192,-0.08080099403663832,39.84590465405786,56.63432157720056,4.556293601477374
1761284460.2018402,-19.337965545395406,-0.46200604789192223,0.9452969311236824,-0.1028128015941467,44.20288596974956,54.802931492332185,12.460169142349049
1761284460.2118795,-19.15376454140732,-0.4875517876739567,1.101402206530816,-0.11834286352588302,47.84576329878516,49.04874720360737,20.293818093261656
1761284460.2219362,-18.87972980348858,-0.4913696426276576,1.260284077382286,-0.126667408184322,50.382314835759445,39.82724901060829,27.44876588692055
1761284460.2318792,-18.519687218340728,-0.4677879493406584,1.401766905211467,-0.12834345380685552,51.50375446589586,27.91740036023254,33.39033606387449
1761284460.2418718,-18.08168511137276,-0.41395177109539966,1.5082440090632765,-0.12516675513824982,51.033037227922996,14.351725012698944,37.734143407877575
1761284460.2519097,-17.577091922802115,-0.3308871206153793,1.5675100612284458,-0.11991702133040336,48.961136835723195,0.3152929692975279,40.29851765496863
1761284460.2618623,-17.019444243525207,-0.22387593789798085,1.5747049937208466,-0.11592271033356291,45.46180045223032,-12.975927388862086,41.12346784342554
1761284460.2718787,-16.423210531320663,-0.10194074290336382,1.5328274142696774,-0.11648368101360121,40.87746555001638,-24.403703562340976,40.453271738922915
1761284460.281856,-15.80262246095338,0.023505361561333978,1.4516511137805403,-0.12422435540541622,35.67453964102255,-33.06701296187488,38.68705257292778
1761284460.291858,-15.170694748409163,0.14051171511893787,1.345358744911862,-0.14051040136036413,30.373986596841004,-38.375130063429644,36.308056057870715
1761284460.301871,-14.538520595058097,0.2384633301508264,1.2295609567393235,-0.16509938761921245,25.470280638604255,-40.0992818366475,33.806016982831736
1761284460.3119633,-13.914899445833955,0.3095344392220436,1.1184633755948792,-0.19616039863291518,21.355489186913594,-38.37452705191987,31.6069782840411
1761284460.321946,-13.306319251615625,0.349468229853525,1.0227914671375316,-0.2306855889074646,18.264379421164826,-33.65349849298127,30.021538625348835
1761284460.3318522,-12.717267841664206,0.357650480047837,0.9487811048634763,-0.2651771566860469,16.251476533059638,-26.62339929187469,29.21726321849501
1761284460.3419971,-12.150791725505487,0.3366198147020998,0.8982159873919429,-0.29639658991052065,15.20335598154363,-18.103648799699606,29.215655413870643
1761284460.3519,-11.609172628009405,0.29124677861975135,0.8692542119023796,-0.32195617203921245,14.8811522029065,-8.942375121543042,29.909913813556418
1761284460.3619277,-11.094568153103282,0.2278139885555897,0.8576832916847921,-0.3406112602610525,14.981555345761,0.07358460587676624,31.097245700461947
1761284460.3719027,-10.609471569162787,0.15316571528315628,0.8582536468509128,-0.35222961183749535,15.20126014333896,8.286267243072162,32.51873736486242
1761284460.3818884,-10.156890243917339,0.07401028735101972,0.8658201822994341,-0.35751745300671556,15.290701106899672,15.208601594965433,33.900293093348104
1761284460.3918781,-9.74021755077622,-0.0036095030549941898,0.8761336673181371,-0.35763733983509216,15.087402434575374,20.54196406192797,34.98943415009563
1761284460.4018629,-9.3628575090344,-0.07469672703588622,0.8862377696873048,-0.3538520826152587,14.525706075641073,24.1726378513512,35.58436395564847
1761284460.4119165,-9.027721980241907,-0.1355516324171992,0.8945182411366707,-0.34728424852287265,13.625850696620565,26.15126295088862,35.55334927040296
1761284460.4218762,-8.736733298553899,-0.18389840018095133,0.9005045634673983,-0.3388173295429899,12.469542223152295,26.65943387671445,34.843930748635195
1761284460.4322062,-8.490433486924871,-0.21887946655229013,0.9045406962298876,-0.32911058930586473,11.17046986505556,25.967762668533165,33.482635983764965
1761284460.441884,-8.287748297262466,-0.24091420176352943,0.9074280164893727,-0.31867267585632275,9.847009436119192,24.390177169847693,31.566680726034143
1761284460.4521284,-8.125904423021046,-0.25143737701019786,0.9101124840172391,-0.30794005476101927,8.60169570509506,22.239662065569057,29.24962572143008
1761284460.4621696,-8.000464050031246,-0.2525526185773141,0.9134526705370742,-0.29732373158836095,7.509150525713293,19.790605392525734,26.72315220960765
1761284460.4718928,-7.905426859450856,-0.2466484037253771,0.9180753398107288,-0.28720926504998306,6.611890366568525,17.252089400056253,24.19707398821772
1761284460.4819002,-7.833357862584257,-0.23602902609388818,0.924305857214497,-0.2779145913904911,5.922145775620068,14.754863611783534,21.879471956186972
1761284460.491894,-7.7755279193757465,-0.2226119971950264,0.9321532408425698,-0.2696259903257127,5.42742387355487,12.352617748286143,19.958504975354614
1761284460.5018888,-7.7220906262036015,-0.20773462963496633,0.9413322388648839,-0.2623422522852979,5.097755386311347,10.035923745676484,18.587113182496314
1761284460.511868,-7.662345492490548,-0.1920938045923025,0.9513123387685284,-0.2558567363584814,4.893095322158683,7.755254566261632,17.871532743183923
1761284460.5219238,-7.585138443828077,-0.17581725340125837,0.9613897245877673,-0.24979480405512294,4.769950010162785,5.4481911605811595,17.864270222982242
1761284460.5318809,-7.479425489803339,-0.1586397819611677,0.9707788083167538,-0.24370415962552397,4.686805657324789,3.0655696116957976,18.561892012263495
1761284460.542142,-7.334984460492462,-0.1401405227645174,0.978715543939012,-0.23717649854397335,4.608238348761403,0.5919654896664289,19.90762338347221
1761284460.5518615,-7.143218018113457,-0.11999046869919831,0.9845590791035562,-0.22996853198332043,4.507699580315214,-1.9426297025022,21.79832490680178
1761284460.5623446,-6.897961109044143,-0.09816284916982407,0.9878753187214687,-0.2220918327274605,4.368985300839353,-4.46120804786139,24.09499034973271
1761284460.5726275,-6.596193239352948,-0.07506966305109887,0.9884877506206927,-0.21385126297864,4.186413599119176,-6.847631656981238,26.635582930881892
1761284460.582234,-6.238559355619372,-0.051602473281421195,0.9864873023134508,-0.20582553903044118,3.9638067272928748,-8.961912379997303,29.248858580885674
1761284460.5926383,-5.8296191357495095,-0.02907215135945552,0.982201854575393,-0.19879617834978353,3.712478342540303,-10.659819297945242,31.76783711768001
1761284460.6019275,-5.377770830745989,-0.009059500251814276,0.9761340319259424,-0.19364025602675872,3.448517316413934,-11.813365438779213,34.041759230679965
1761284460.6118746,-4.894830697624353,0.006795540907874807,0.9688805821106643,-0.19120717940531737,3.1897067652235016,-12.328892427870159,35.94565161908118
1761284460.6218657,-4.395288154276723,0.01702807082332177,0.9610477524334861,-0.19220000435414983,2.9524296002873225,-12.160096926650922,37.386939433594385
1761284460.6318862,-3.895292982092465,0.020566139035775477,0.9531757218188626,-0.1970784360623291,2.748909964943195,-11.314315448472929,38.30884974260066
1761284460.6419232,-3.411458381119049,0.016899462792566523,0.9456822793126306,-0.20599498860309606,2.585124876915891,-9.851564887191696,38.69064178872049
1761284460.6519668,-2.959580570302345,0.006177489361501231,0.9388318964960877,-0.2187690777757148,2.459671787903924,-7.877035455320088,38.54498785235918
1761284460.6618624,-2.553382471956889,-0.010771865596977515,0.9327318967742025,-0.2348971347171646,2.363776017285627,-5.528730754337999,37.91309195837268
1761284460.671899,-2.2033868398944465,-0.032499658666625526,0.9273538765851932,-0.25359179191764925,2.282471141641573,-2.9625460206217986,36.85832480697506
1761284460.6819434,-1.9160149704643104,-0.057057805839366475,0.9225763255005807,-0.2738417329414781,2.1968118121050546,-0.3371602937090075,35.45923067188369
1761284460.6920984,-1.6929935615517484,-0.0821697048513489,0.9182424891050841,-0.29448622589307716,2.0868111813015027,2.199267972078069,33.80271432703891
1761284460.7019205,-1.531134391354469,-0.1054327329252702,0.9142249346764175,-0.31430231213579096,1.9346560017025887,4.519293597221256,31.978064539252383
1761284460.7118764,-1.4225254131676706,-0.12453409866264348,0.9104858518495251,-0.3321045922227112,1.7276642381454437,6.522715760996235,30.07225669079871
1761284460.721922,-1.3551347459803114,-0.13745888829292868,0.907121814826736,-0.3468555843484392,1.4604391774305283,8.139568402820963,28.166737851661605
1761284460.7318869,-1.313784297764535,-0.14266835394733102,0.9043842126981017,-0.35777946778784653,1.1357583380016347,9.330193512862742,26.33565166188679
1761284460.741893,-1.281406176735105,-0.13922979156516713,0.9026705230724947,-0.36446611579432253,0.7639157617216847,10.083323051912927,24.645221771976992
1761284460.7519002,-1.2404620885352653,-0.12688633447245523,0.902485752541139,-0.36694821542362704,0.3604996259348927,10.413173048098198,23.1538082012363
1761284460.761893,-1.1743899067984087,-0.10606365062064786,0.904377681628136,-0.3657336452477057,-0.05709484456672992,10.35639695237937,21.91202121492494
1761284460.7718792,-1.068943500005058,-0.0778184135346152,0.9088541814035191,-0.36177862660115456,-0.4738018951941061,9.96939200041405,20.962265188098907
1761284460.781908,-0.9133075785618443,-0.04373837346383248,0.9162950131298024,-0.35639382577888884,-0.8808313372759363,9.326002384296778,20.33721227041662
1761284460.7918913,-0.7008934004201325,-0.005805512904852769,0.9268732379747869,-0.3510844056332828,-1.2785356835632422,8.515251742678648,20.056956640058043
1761284460.8019035,-0.4297511137533649,0.033765962673905504,0.9405021005319038,-0.34733546586034536,-1.6774728806049537,7.638483593656259,20.124933039784683
1761284460.8119597,-0.10257138187617114,0.07270357270672745,0.9568205522828064,-0.3463664948640319,-2.0972862654647697,6.805265887196095,20.523044338188672
1761284460.8219028,0.2737056216703246,0.10884559478803452,0.9752225632684559,-0.3488908644016886,-2.5634836355583652,6.127649217422818,21.206769239386045
1761284460.831893,0.688604584782831,0.14028475829428316,0.9949237872882711,-0.3549241660845723,-3.102675975442098,5.712813789167139,22.101254978387153
1761284460.8419185,1.1290375901178964,0.1654673277508302,1.0150502756686837,-0.3636830890678867,-3.7372199368520653,5.654669428269499,23.09949793738323
1761284460.8519027,1.5802958927977846,0.18323797389398375,1.034732119871199,-0.3736036738927043,-4.480381196781246,6.0254059814217324,24.063636095784958
1761284460.861906,2.026984072403755,0.19283745291438736,1.0531878560523078,-0.38248788053117144,-5.333024285394351,6.868179840491253,24.830077298528323
1761284460.8719456,2.4538151021632184,0.1938751575509185,1.0697887464266311,-0.38776569973884456,-6.282455158868237,8.192024684002266,25.218657079210125
1761284460.8819685,2.8462422413820634,0.1863019209352063,1.0840947969926098,-0.3868409070385476,-7.3035223169490875,9.969768021221649,25.045330321608038
1761284460.8940048,3.1909461364911618,0.1703974520877873,1.0958581034084727,-0.377474516098587,-8.361617014153031,12.139343271556465,24.13720701452662
1761284460.9021199,3.4762093398662572,0.14676921791483521,1.104994180056043,-0.358151515299138,-9.416970083727112,14.60848182108995,22.348227734110917
1761284460.911991,3.692200714292844,0.11634673352768038,1.1115273059640374,-0.3283735143027135,-10.429661977481349,17.262351183127453,19.573576863761332
1761284460.921943,3.8311739391439934,0.08035331323871299,1.115520899131555,-0.288824027641268,-11.364943691466939,19.97327560114529,15.761096185635814
1761284460.931963,3.8875707932427113,0.040245069910359546,1.1170084346039137,-0.24136741995255562,-12.198641474783823,22.61129156964314,10.918438849620896
1761284460.9420247,3.8580179880575716,-0.002380770053980929,1.1159438753579045,-0.18886822068103362,-12.922439588896154,25.054047300709083,5.115355870530968
1761284460.9519691,3.7412180368497214,-0.04589399474454514,1.1121909525879015,-0.13485015797508595,-13.548643778604648,27.194552673038405,-1.5188717863825483
1761284460.961976,3.5377566540495087,-0.08873332449237224,1.1055646780503365,-0.08304500503349221,-14.113697949106404,28.945603657193587,-8.802427705107682
1761284460.9719825,3.249871430842911,-0.12947844350819793,1.0959238969646843,-0.036902097166985344,-14.67944617498915,30.24034872139988,-16.511761275663147
1761284460.9819705,2.881235957403302,-0.16687751267500273,1.0832933146399446,0.0008627765532647094,-15.331100379896318,31.029328919335093,-24.39547469157632
1761284460.9919748,2.436802238404845,-0.19983347517365474,1.0679770266377997,0.028604245166418244,-16.17118915111086,31.275196092015303,-32.19043075094265
1761284461.0020177,1.9227150888552218,-0.2273719478960093,1.0506241129241038,0.04591116038533788,-17.309397477003138,30.946927527538453,-39.638989549857634
1761284461.0119712,1.3462778178651365,-0.24862347178472846,1.0322224634897892,0.05356939963366856,-18.849041650901817,30.015500753195248,-46.50599075455939
1761284461.021986,0.7159240419527936,-0.26284585291184265,1.0140194145542671,0.05333724646698421,-20.87177026983949,28.4526224664867,-52.593812155821546
1761284461.031955,0.04114487350209575,-0.26949023727112553,0.9973840669747943,0.04758516797175697,-23.42271183965025,26.233331273203188,-57.75375850746428
1761284461.0419474,-0.6676673513020285,-0.2682901798915924,0.983634032140804,0.038874420162378465,-26.49850262607902,23.34230372078622,-61.892418593035785
1761284461.0519526,-1.399476655746785,-0.2593427101736375,0.973854822774087,0.029553341214574695,-30.040336181921884,19.782708171990354,-64.97246847048766
1761284461.061959,-2.1429585842530936,-0.24315912154859237,0.9687439428486868,0.021439397378962204,-33.933431786690974,15.585699019897397,-67.00837300882353
1761284461.0719728,-2.8869310955867595,-0.220678547783282,0.9685082723318368,0.015632303300060862,-38.01329093445629,10.818309453672866,-68.05821136968132
1761284461.081965,-3.6208256283015143,-0.19324522526068952,0.972831437229036,0.012474227290498812,-42.078034406753126,5.58767113295226,-68.2132780463009
1761284461.092022,-4.335154712791928,-0.16255033081801487,0.9809133979369414,0.01164525039355517,-45.90523755620234,0.04011452820606727,-67.58716461164963
1761284461.1019342,-5.021931905657125,-0.13053935282377657,0.9915728555372693,0.012361310420601875,-49.27117983174795,-5.645391572118987,-66.30574208037055
1761284461.1119628,-5.675006428513081,-0.09928940917178206,1.003395037408659,0.013628421754730398,-51.970301783156565,-11.269042589421566,-64.49894373603932
1761284461.1219194,-6.290285504821707,-0.07086541132203829,1.014901716094847,0.014500854664423508,-53.83279444837014,-16.625987869068847,-62.294647492336836
1761284461.1319818,-6.865828026442758,-0.04716707775864999,1.0247169237316647,0.014293616891630329,-54.73851337083324,-21.52424664122097,-59.814425360116914
1761284461.1419978,-7.40180131501548,-0.029779524130493385,1.0317026661997117,0.012711725553799697,-54.62578761705885,-25.802562755206647,-57.1705775418635
1761284461.151957,-7.900298227255208,-0.019838351207117452,1.0350459630750453,0.009878422577655917,-53.494226032516636,-29.345965848616444,-54.463768363687066
1761284461.162119,-8.365017006071641,-0.01791753601500318,1.0342907314913834,0.006267643525208958,-51.40132508483564,-32.09700927606789,-51.78073843440837
1761284461.1719725,-8.80081461634881,-0.02394804523255901,1.029320778659305,0.002567491863874636,-48.45347693642811,-34.06107883324242,-49.19190010741373
1761284461.1820052,-9.213158004893158,-0.0371779798444329,1.0203085583011058,-0.00048470449081626813,-44.79270979839922,-35.30479971439852,-46.748989427990416
1761284461.1925726,-9.60751541813747,-0.05618835132289734,1.0076466056907645,-0.0022534195051191934,-40.58101106888432,-35.94737113462528,-44.48322760434225
1761284461.2033086,-9.988746285699026,-0.07897716121862922,0.9918760148136929,-0.0023098512498972512,-35.98428988798313,-36.14556534055703,-42.40457130879445
1761284461.212646,-10.360556470164774,-0.103114975997608,0.9736216614242971,-0.00047555986124574884,-31.15790867152222,-36.07406733030432,-40.502570210682855
1761284461.2219932,-10.725082163452063,-0.12596027468415857,0.9535399848535735,0.0031929541010807115,-26.23530257163026,-35.903637584328294,-38.749112529319724
1761284461.2319782,-11.082651656529407,-0.14491026529966186,0.9322835085863908,0.008463305458923591,-21.320610459802772,-35.77998600246235,-37.10298711696992
1761284461.2419522,-11.431753046535217,-0.15765792627532965,0.9104852716844852,0.01500771175792777,-16.485592209427015,-35.806083037812854,-35.51581116373315
1761284461.2519598,-11.769210656627322,-0.162427129985023,0.8887626426730758,0.022482436007096526,-11.770549355928308,-36.029991066964875,-33.93857094225505
1761284461.2620149,-12.09054790400777,-0.15816215720644625,0.8677334980462553,0.030587891980527544,-7.188603634865314,-36.4394156105131,-32.32791244172279
1761284461.2719934,-12.390496061764425,-0.14465606074049148,0.8480328583938538,0.03909724152787922,-2.732530519085217,-36.963258900784915,-30.65144821029223
1761284461.281985,-12.663600232032088,-0.12261156721631201,0.8303181691133612,0.04784873416218151,1.6166853755294606,-37.47963565998907,-28.891634948489134
1761284461.2920203,-12.904872466041585,-0.09363211484341077,0.8152554040927779,0.05670649321150011,5.8804174554140545,-37.8291658313186,-27.048079993990697
1761284461.3019738,-13.110441762998107,-0.06013906311618771,0.803483678157956,0.06550459238129923,10.072988762197198,-37.831921862822114,-25.138374622038736
1761284461.3121104,-13.278149564295624,-0.025210979028937784,0.7955616958447352,0.07399486118800432,14.193274595602661,-37.30616194117901,-23.19769945670278
1761284461.32214,-13.408037813919428,0.007654331882687432,0.7919035650950406,0.0818154325723293,18.218336408600333,-36.08690683747009,-21.277442426123503
1761284461.3320236,-13.502675679293391,0.03484610578432484,0.7927130713772614,0.08848764263880773,22.100016533603483,-34.04250510181706,-19.442897013313125
1761284461.3420336,-13.56727350865799,0.05299460769817709,0.7979252904760046,0.09344147316906022,25.76518380011794,-31.08756648527649,-17.76990693335526
1761284461.351995,-13.609543527304409,0.05933737819818556,0.8071642770735112,0.09606725446487917,29.119939485724814,-27.19104706904552,-16.34027779041589
1761284461.362037,-13.639289782697388,0.05204917343485521,0.8197259579008239,0.09578971787543487,32.05758061817836,-22.378877434083012,-15.235926368105318
1761284461.3720186,-13.667744023972642,0.030483069544645938,0.8345943480006237,0.0921558544875502,34.46952313353317,-16.73127681010243,-14.531971705212962
1761284461.3820243,-13.706703858427502,-0.0047207759593714425,0.8504945394657736,0.08492134540623456,36.25784671127492,-10.375602457410608,-14.289170469095165
