timestamp,angle,linear_acceleration_x,linear_acceleration_y,linear_acceleration_z,angular_velocity_x,angular_velocity_y,angular_velocity_z
1760681492.3917158,-9.400299329238631,-0.09758659797057753,0.9607416848830685,-0.21575009909507423,8.12348358430478,9.535488191158448,10.275116852954563
1760681492.401419,-9.149363346172564,-0.09305784213745547,0.9591788585890575,-0.21979635377993467,8.216589908137996,8.556608969171103,11.413780210025484
1760681492.411489,-8.89383014176714,-0.09143998749201544,0.9568953926960986,-0.2238086703971413,8.300611319586219,7.387834998601749,12.583011338982509
1760681492.4213288,-8.640855566895757,-0.09302654812321809,0.9541806079588633,-0.22822416285083894,8.37874454591661,6.035133320030192,13.736615466609734
1760681492.4313078,-8.397744959549712,-0.09786671844639454,0.9513685310467769,-0.23340155664439832,8.452373503964695,4.5211576540574026,14.825769745313485
1760681492.441495,-8.171386996810563,-0.10573656037734719,0.9487857465601539,-0.23956694525706126,8.519753416058355,2.8869009997473603,15.801876153204866
1760681492.451439,-7.967697138155712,-0.11613751960174863,0.9467092211043554,-0.24678799600937162,8.57485425534884,1.190830624648685,16.619567730974
1760681492.461413,-7.791121878165045,-0.1283247399972964,0.9453433111926739,-0.2549757969919228,8.606711658481624,-0.4947725790062044,17.239833255953343
1760681492.4712925,-7.644248269387216,-0.14136279771647328,0.9448173837925079,-0.26390755921989195,8.599597418836048,-2.0900636288854235,17.633163747239895
1760681492.4812522,-7.527551838910143,-0.15420214331732346,0.9451975869674947,-0.2732603971146601,8.5341886576272,-3.5157737001142677,17.782532301389562
1760681492.491345,-7.439303621880723,-0.1657675426314169,0.9465021610381529,-0.2826470774888051,8.389715713734883,-4.702155962728324,17.685933588192626
1760681492.5013053,-7.375646099452834,-0.1750501391237033,0.948711048679589,-0.2916483831691022,8.146852066019068,-5.597446207316611,17.358152909884677
1760681492.5113533,-7.330836466229356,-0.1811951057971962,0.9517657441518287,-0.2998414733624393,7.790920802091977,-6.174554849162375,16.83141966705081
1760681492.52133,-7.29763991541573,-0.18357566259754057,0.9555608635311715,-0.30682670732845946,7.31486716348186,-6.4349221969084045,16.15464347337893
1760681492.531516,-7.267835986135572,-0.1818432087626975,0.9599324213381438,-0.3122553468415661,6.72141671041645,-6.408849246941598,15.391043411801256
1760681492.5412967,-7.232783838118434,-0.1759452222636835,0.9646487836299609,-0.31585799838867673,6.023928923571301,-6.152091302414239,14.614149042328343
1760681492.5515919,-7.183985061255446,-0.16610809285869635,0.969409426741512,-0.31747078433288345,5.245668791983857,-5.739001026872825,13.902347233858084
1760681492.561784,-7.113589240529305,-0.1527896495597119,0.9738550569462603,-0.31705497454135356,4.417515616380114,-5.252975308919589,13.332344240535777
1760681492.571281,-7.014806775871156,-0.13661324789708396,0.9775910754910876,-0.31470648386901656,3.574436906960566,-4.775352758838355,12.972087681028164
1760681492.5813408,-6.882219338438965,-0.11829921518410635,0.9802246286412902,-0.31065333309562115,2.7512988643956535,-4.374187661035154,12.873833669487674
1760681492.5915241,-6.712002094365684,-0.09860855150349718,0.9814128178354828,-0.3052408827578332,1.978703914030383,-4.094449534067618,13.068130299914388
1760681492.6013124,-6.5020853305179775,-0.07830818647582635,0.9809157260955884,-0.29890581852653153,1.2795125045566034,-3.951119078104186,13.55948778560146
1760681492.6112583,-6.252281622211442,-0.058158591028667196,0.9786436271067469,-0.29214043888606056,0.6665396657084799,-3.9263421877117852,14.324390579097743
1760681492.6213315,-5.964389014682741,-0.03891618608383267,0.9746852661774199,-0.2854492284312141,0.14167656116380362,-3.9712736327154023,15.312078964080749
1760681492.6313682,-5.642258529389824,-0.021338329107698836,0.9693059445602106,-0.2793006032973017,-0.30355599084963747,-4.0125505859588015,16.44821595345861
1760681492.6416147,-5.291797515095342,-0.006179859528575422,0.9629113205042961,-0.2740783271391782,-0.6862088887776192,-3.962595593725013,17.641200001981254
1760681492.651275,-4.920877618481835,0.005824020739285112,0.9559833333831238,-0.2700390554631126,-1.0291714422161973,-3.7323039161464506,18.790529648346432
1760681492.6627128,-4.539126366651763,0.013987752701003052,0.9490037410354156,-0.2672836839350633,-1.3578784359871634,-3.2442569815758957,19.796329051134315
1760681492.671265,-4.157594728602876,0.017715443201376496,0.9423839551212965,-0.265749136793857,-1.6968640203023986,-2.4445123082884153,20.56896930811249
1760681492.681616,-3.788299769094265,0.016550083974874258,0.9364161311028688,-0.26522340751962287,-2.066578284869607,-1.3112746632920402,21.03771323464499
1760681492.6911962,-3.4436401976586577,0.010233727673397202,0.9312525031001767,-0.26538152256227077,-2.4808557643522056,0.14070738715829645,21.15746269145923
1760681492.7012296,-3.135681031399054,-0.0012205922099181154,0.9269117657658263,-0.26583584443123903,-2.945343815368973,1.8604915340626524,20.912953878384272
1760681492.7113023,-2.8753141659994386,-0.01745127311383774,0.9233060827250901,-0.26619204283250486,-3.4570626421806168,3.7658425687444184,20.320078057053628
1760681492.7212698,-2.6713344956796625,-0.0376830269685902,0.9202813714813699,-0.2661025935094852,-4.005098011854026,5.751941721829845,19.424342800089267
1760681492.73123,-2.5295227151539503,-0.06070302732741688,0.9176655751707393,-0.2653124802492011,-4.57225636406979,7.702772244546892,18.296763038785702
1760681492.741408,-2.45187161739694,-0.08490548068129115,0.9153213282377742,-0.2636948346526033,-5.137380310881926,9.50381841233326,17.027647721360445
1760681492.7512336,-2.4361021918412233,-0.10841411638078523,0.9131985459303109,-0.26127485402072115,-5.677959676685933,11.054639626355257,15.7188474612083
1760681492.761506,-2.475580267913786,-0.12926877212851148,0.9113803418525062,-0.25823829581079677,-6.172682672406458,12.279951319937439,14.475086101451996
1760681492.7712655,-2.5596822039070193,-0.14564717382252176,0.9101148915219761,-0.25491911103507536,-6.603638688964926,13.13804674636628,13.39502302644141
1760681492.7814684,-2.6745928792919402,-0.156089343321254,0.909826724779353,-0.2517621289623581,-6.957992603772427,13.625708124308167,12.562670099877272
1760681492.7912817,-2.8044618602872005,-0.15969372018110167,0.9111020913201356,-0.24926093822050116,-7.229083223173488,13.77914332921323,12.039713244467695
1760681492.8014731,-2.932796614281316,-0.1562569623455623,0.9146444662667177,-0.24787602390197352,-7.417023385129945,13.670887376010146,11.859184405835778
1760681492.8114145,-3.043940771339421,-0.14633513691843533,0.9211995851442828,-0.2479422263901517,-7.528952484797998,13.402971482427398,12.020822904122465
1760681492.8213358,-3.1244786666704965,-0.1312142440864798,0.9314554782831594,-0.24957764609109653,-7.5790859386574425,13.096959239600313,12.48837308889366
1760681492.8315148,-3.164426227546591,-0.11279049262238262,0.9459302146794688,-0.25260869101699684,-7.588631406560163,12.881674506637031,13.189003947977305
1760681492.841501,-3.158104463886566,-0.09337158551614425,0.9648653772373529,-0.256527457244011,-7.585542566253835,12.879596882646451,14.015027081696635
1760681492.851204,-3.104631174239767,-0.07541677078903755,0.9881443230866749,-0.2604960315584832,-7.6040062693425385,13.192983968296872,14.82813190464381
1760681492.8615143,-3.0079969148068044,-0.061236041654139636,1.01525081400135,-0.26340594145418683,-7.683529741813501,13.89083104629341,15.466403753806572
1760681492.8713055,-2.8767123500390817,-0.05267227662682077,1.0452771768162596,-0.2639908805194966,-7.867496142280482,14.997854646484797,15.75435621156536
1760681492.881275,-2.723036853635221,-0.05079887134720359,1.076983364278592,-0.26098091318220945,-8.20105940812971,16.486814165748505,15.51600519489611
1760681492.8912678,-2.561833276930643,-0.05567828802987916,1.1088998484299886,-0.25328071856438017,-8.728246388449953,18.27561588217507,14.590598361427244
1760681492.9013634,-2.4091417434489117,-0.06623703445800108,1.139459456644337,-0.24015383412659994,-9.488162404552765,20.2306354286941,12.850040181362504
1760681492.9112592,-2.2806160588141755,-0.08031075289263696,1.1671390669661255,-0.22139545824974757,-10.510314042331204,22.177343932030524,10.216457401877433
1760681492.9216125,-2.190003032776402,-0.09489178187124744,1.1905937122944683,-0.19747276606534334,-11.809302195565168,23.918449288765594,6.677882874349172
1760681492.9312928,-2.1478520524390463,-0.10657052920767504,1.2087707493746545,-0.16960273162778403,-13.379466915417838,25.258351855651025,2.2997916605502406
1760681492.9415045,-2.160614387469795,-0.11211163694595855,1.2209949418624055,-0.13972970755562805,-15.190383293864981,26.031024804557013,-2.769760748027484
1760681492.9513633,-2.2302369771709007,-0.1090632923278375,1.2270143551288855,-0.11036954892837678,-17.184277345582913,26.12696542022047,-8.303334826122526
1760681492.9613774,-2.3542891934881447,-0.09627929221125964,1.2269955212775057,-0.08431088262973954,-19.276339859717915,25.51416347534439,-14.006903733171136
1760681492.971467,-2.526596779489292,-0.0742460827048455,1.221460188659211,-0.06420343180408457,-21.358546487720744,24.248436839111996,-19.54245171044803
1760681492.9815226,-2.7383010437113136,-0.045145082020548656,1.2111678136589228,-0.05210409288797402,-23.30704072889325,22.470007469339503,-24.559160314568647
1760681492.991227,-2.9792139604555663,-0.012629543416325653,1.1969645582256923,-0.04907656567352322,-24.9925499220131,20.38554337464806,-28.730365930925718
1760681493.0014963,-3.2393017333771335,0.01865693975922733,1.1796326054813537,-0.05493844678494453,-26.29279587203515,18.23761150113847,-31.792010348381876
1760681493.011466,-3.510105240287788,0.04375139301710148,1.1597754200860484,-0.06822073605665151,-27.105487721842895,16.266067704884463,-33.57741248388188
1760681493.021311,-3.785902872811719,0.0581306276785528,1.137764653408467,-0.08635837435634136,-27.360278231869,14.66783361385573,-34.043176199131615
1760681493.0315087,-4.064445981010826,0.05843930341406969,1.1137587768535773,-0.1060804344739153,-27.028066246643355,13.56226089483385,-33.281974464284865
1760681493.0413716,-4.347152101987716,0.043067317401353625,1.0877880783792298,-0.1239275553374767,-26.126266578418903,12.968536395040488,-31.519648487511716
1760681493.0514238,-4.63872303049363,0.012475708480303193,1.0598875031174717,-0.13680096992052584,-24.719113116414643,12.799449859345724,-29.096206977531835
1760681493.061394,-4.946252227128487,-0.030792134806772686,1.0302482153205568,-0.14244533215053162,-22.912626723710716,12.87287919624991,-26.432488938532995
1760681493.071517,-5.277979890960422,-0.08242525707793683,0.9993508444141576,-0.13978375036107396,-20.844496004116507,12.939259859822828,-23.986085327203124
1760681493.08139,-5.641921183075232,-0.1369420546762012,0.9680397634901402,-0.12905163006090106,-18.669769051141476,12.720679461529325,-22.201391001356132
1760681493.0912168,-6.044614419302982,-0.18847949474190026,0.9375040341449487,-0.1117102774409835,-16.54392694556438,11.955395607085041,-21.459377716901006
1760681493.1015131,-6.490203976098658,-0.23165485177509063,0.9091527091163979,-0.09015802493360647,-14.605513676304074,10.440645703250429,-22.032947217663164
1760681493.1113873,-6.9799933782532495,-0.26236747548265027,0.8844063581932049,-0.06729249316619731,-12.96083116290945,8.0667393886569,-24.053544160686904
1760681493.1217542,-7.512496262451378,-0.2784128594251291,0.8644582535652081,-0.046006666743952485,-11.673067234149778,4.836749678464022,-27.49389277737875
1760681493.1314182,-8.083906095132578,-0.2798052000195635,0.8500718604283161,-0.0287150716509046,-10.75756739196892,0.8685556760174481,-32.170063739530754
1760681493.141861,-8.688831040319295,-0.26874771646226703,0.8414687779023666,-0.01699732779869548,-10.18395007029316,-3.6209681609992876,-37.76359919420117
1760681493.1515317,-9.321115063893924,-0.2492456204648336,0.8383283754645324,-0.011415766500114156,-9.884644574850897,-8.346882428330098,-43.86143957346262
1760681493.1614153,-9.974585478693074,-0.22641372437393756,0.8398838918840215,-0.011522198168521496,-9.768401518135137,-12.997178375962257,-50.0084252481343
1760681493.1713169,-10.64361398704431,-0.20558174086154576,0.8450771411939345,-0.016029785433841582,-9.736517799857697,-17.277233966854862,-55.76477845275572
1760681493.1813507,-11.323435822242487,-0.1913425040019637,0.8527306052212178,-0.023098956834720987,-9.69904054109579,-20.950357144425382,-60.75976368358376
1760681493.1913698,-12.010226541906203,-0.18671540486379012,0.8617049067165488,-0.03067526579035535,-9.588185763607319,-23.867257149168008,-64.7331154351802
1760681493.2014995,-12.700979665495403,-0.19259528294087874,0.8710216067281976,-0.03682049311474078,-9.366707678951851,-25.97885661401759,-67.55793627508137
1760681493.2113483,-13.393256039552847,-0.20761203762958316,0.8799398000871528,-0.03999015579893598,-9.029932161430851,-27.329906997203892,-69.24221177385722
1760681493.2214856,-14.084885641440803,-0.22844001233071473,0.8879803836905119,-0.039224322836632734,-8.601412865645003,-28.034887038432366,-69.91003725463877
1760681493.231264,-14.773696052511056,-0.2504938803793863,0.8948988219479979,-0.03423171982560439,-8.123386846868888,-28.24160374176107,-69.76723174579396
1760681493.2412353,-15.457324941219062,-0.2688650709764155,0.9006182281013589,-0.025361735621114833,-7.6441428722458875,-28.090664546497813,-69.058574535182
1760681493.2514071,-16.133153161166117,-0.27931135200288143,0.9051454652669473,-0.013477392857539312,-7.204922300578595,-27.679812443801836,-68.02499134985754
1760681493.261287,-16.798373062875665,-0.2791111486646714,0.9084961830269079,0.0002382207108507856,-6.8289955886938385,-27.04085482934907,-66.86837963415773
1760681493.2713456,-17.450182935330297,-0.2676240257345409,0.9106471556299307,0.01449664248424199,-6.515096349547571,-26.13395938543619,-65.72950337733153
1760681493.2814186,-18.086074071388538,-0.24645308988549172,0.9115208003357245,0.028094361442324137,-6.2364977084258655,-24.860197200495776,-64.68111084820748
1760681493.2915535,-18.704155667520332,-0.219178622498469,0.9109952082672579,0.04004636626704651,-5.945813223449204,-23.089293071751378,-63.73503276228343
1760681493.3014197,-19.303450236161332,-0.19071574402778257,0.9089279139871494,0.04965109100749226,-5.584334275582393,-20.69644091354056,-62.859331895699064
1760681493.311262,-19.884093307919752,-0.16642586014888916,0.9051826322534966,0.05649491704371857,-5.09368950871748,-17.600356054071383,-62.00011006594782
1760681493.3214495,-20.447386703709693,-0.15116048419412237,0.8996523499055137,0.060417038250046066,-4.427123992794984,-13.794694433933403,-61.10246552479999
1760681493.3315556,-20.995680207524096,-0.1484219978909812,0.8922763727358622,0.06145832127230955,-3.5579079690420605,-9.366457865740218,-60.12614639954617
1760681493.3415205,-21.532085956186933,-0.159791612134134,0.8830514796824043,0.059812625586422766,-2.483238298927384,-4.497681203511501,-59.053290077765965
1760681493.3516748,-22.06005888227543,-0.18471574131809249,0.8720382438500717,0.05578965854925205,-1.2232102309365869,0.5499763724716432,-57.887808677353085
1760681493.3612635,-22.582901697444782,-0.2206739405670489,0.8593637713208797,0.04978865180528149,0.18437087121878792,5.464857038704172,-56.64796709692271
1760681493.3713932,-23.103268931597075,-0.2636835723355607,0.8452221028404331,0.042275793969481376,1.6917160557502258,9.923794506218687,-55.35504170991626
1760681493.3814516,-23.622744318661155,-0.309033785772864,0.8298729928936814,0.033758694936444913,3.2493307562962324,13.63284844255474,-54.02137592412645
1760681493.391705,-24.141545287805975,-0.35209418836463413,0.813638831741245,0.024757851861777955,4.812970681204573,16.363655679616105,-52.64068864481934
1760681493.401401,-24.658372929388978,-0.3890294459583683,0.7968994667932336,0.01578257084757097,6.34789638251986,17.97987996514525,-51.18246040885996
1760681493.4115367,-25.170390696927825,-0.41728346358055574,0.7800865427686453,0.007320581077020869,7.829780361542002,18.450249942481783,-49.59108631496492
1760681493.4212925,-25.673295969536248,-0.4357682273661622,0.763681503535738,-0.00015476955523829227,9.242430110506028,17.847225008005324,-47.789611834262125
1760681493.4313657,-26.16145118478059,-0.44477391779383607,0.7482223270634356,-0.006164795466647478,10.573227736463954,16.332868118961194,-45.687353613739106
1760681493.4412577,-26.628059401220025,-0.44567738543586527,0.734322222953609,-0.010206700713477495,11.807732708001357,14.135446736837494,-43.190428428245944
1760681493.4512355,-27.065391035381637,-0.44055071295075726,0.72269904895749,-0.011753809231676593,12.925136330986593,11.521269264950204,-40.21401043929978
1760681493.4613702,-27.465083676186566,-0.431764232641082,0.7142077453934043,-0.010290368412752906,13.896087908264413,8.76625864175951,-36.694952265824
1760681493.4715407,-27.818539384893946,-0.42165162637679066,0.7098609174275105,-0.005385766026881032,14.683809147046068,6.1309555958570225,-32.60328577425439
1760681493.4816842,-28.11743228099502,-0.4122708556153304,0.7108171584727403,0.003201905549368389,15.24851393862662,3.841329695903839,-27.95113621544348
1760681493.4913936,-28.354315292830446,-0.4052630281437158,0.7183158899699664,0.015414325866626053,15.554223529833385,2.076302065825357,-22.79777313949057
1760681493.501309,-28.523282363810814,-0.40178803468238716,0.7335440192300119,0.030797431744742677,15.576386726797077,0.9615797418038649,-17.249872568170073
1760681493.5112426,-28.6206065193055,-0.4025035859142284,0.7574340586238723,0.048441464261522536,15.308468202804237,0.5685185004681882,-11.456528100491417
1760681493.5212526,-28.64524484243862,-0.40755511051316906,0.7904131826952377,0.06697028115342317,14.765928532242532,0.9163976198425346,-5.599048732999386
1760681493.531528,-28.599094224809928,-0.4165598122654297,0.8321438526860896,0.08458931725836039,13.986720785585153,1.976686772514978,0.12391931580712695
1760681493.5413728,-28.486910821081782,-0.42859517774327405,0.8813139903941013,0.09919786974854498,13.028339799891432,3.6784320496752128,5.514869283770222
1760681493.5513744,-28.315871033010943,-0.4422273523407457,0.9355425858009125,0.10856659022025908,11.96225960833121,5.914487143954246,10.397826767177573
1760681493.5614703,-28.09483265974154,-0.4556226717037236,0.9914599115096348,0.11057335768342688,10.867032774790035,8.54867654251436,14.638396615052878
1760681493.5712783,-27.833421087019065,-0.46676836837118674,1.044997159188288,0.10347756014950865,9.821331585230569,11.423970909208213,18.16079123213827
1760681493.5815501,-27.541092784380528,-0.4737902346252918,1.0918780910095744,0.08619464632468667,8.897862224275976,14.371470579826756,20.95905528310169
1760681493.5916095,-27.226312908304955,-0.475310056786161,1.1282479287719638,0.05851794336223833,8.158530555353286,17.219661566380484,23.100028344774636
1760681493.6012785,-26.895941255430294,-0.4707515283892898,1.151312599967115,0.021236049019085965,7.650685059614388,19.803266096139048,24.71650254985806
1760681493.6113648,-26.554871258578082,-0.46049505591026313,1.1598207662117348,-0.023883934868751365,7.403959948690416,21.97116971743763,25.99055523048559
1760681493.6213803,-26.205922130971977,-0.4458098146120888,1.1542373330023852,-0.07424587194467536,7.42740389963096,23.593278211537918,27.128898792175136
1760681493.631522,-25.849950806420935,-0.4285556604839004,1.136545450613288,-0.1266816819859447,7.707200109123869,24.56649990064766,28.333776363559743
1760681493.6414986,-25.486133047765147,-0.4107276342698326,1.1097428739452375,-0.17778121941638375,8.206014444165183,24.82015679700037,29.773939554872257
1760681493.6513245,-25.112362168241738,-0.39397524241707504,1.0772037593351331,-0.22425824910965722,8.865319230538823,24.320970052792592,31.56033461334491
1760681493.6612887,-24.72572112452043,-0.37923841273128134,1.0421069631650457,-0.2633132970534261,9.6115754788229,23.077441002664326,33.73035857592271
1760681493.6713257,-24.322988894966375,-0.3665995069094797,1.0070793277249597,-0.292947988555292,10.365990212977362,21.143047722201104,36.243160194081376
1760681493.681294,-23.901141073487576,-0.35537760782172534,0.9740993499786954,-0.31218075436974463,11.0561662028194,18.617261135083705,38.986709421526555
1760681493.6914392,-23.457801361335875,-0.34441764667440267,0.9446013924971484,-0.32112018779922474,11.626945782876485,15.64311094576578,41.79547660967492
1760681493.7017694,-22.991601518700293,-0.33247696745892247,0.9196569639838847,-0.32087605298327726,12.047598649965478,12.40014501626905,44.475804477406015
1760681493.7113414,-22.502415670950736,-0.318596561188416,0.9001097760079668,-0.31332476641617407,12.313356589410272,9.09225472006593,46.8347520297841
1760681493.7216122,-21.991449030866043,-0.3023617185647498,0.8865958551403823,-0.3007822579522225,12.440893846003078,5.9308561605348205,48.707659368992964
1760681493.7314732,-21.46117688804498,-0.283997142139247,0.8794545161359534,-0.28565682084353333,12.459118934196676,3.115023103869482,49.98006836425789
1760681493.7415264,-20.915144273875313,-0.264290614331484,0.878592624894208,-0.2701497518332539,12.397945502885507,0.8110576730037307,50.60083651824129
1760681493.7515364,-20.357649931214866,-0.24438366498337094,0.8833824186568668,-0.2560466574447384,12.2781326671873,-0.8655429488526235,50.585010039895494
1760681493.7614138,-19.79335076618725,-0.2254968771170282,0.892653936470925,-0.2446108661220254,12.104786623889618,-1.8628001018504234,50.00687703142013
1760681493.7714515,-19.22683401705211,-0.20866497397986952,0.9048031119042518,-0.23656559655262335,11.86595774524792,-2.197294751405349,48.985206493416264
1760681493.781753,-18.662211482919183,-0.19454260295173523,0.9179951874795712,-0.2321390076175812,11.536346856926343,-1.9502738388099807,47.66372614425365
1760681493.7916293,-18.102790343123647,-0.18331380026879832,0.9304151596358885,-0.231144741240997,11.084843022024785,-1.2550327350295116,46.19030606214751
1760681493.8013184,-17.55086611755578,-0.17470844460063242,0.9405090735078753,-0.2330761774882167,10.483760060392056,-0.2773494265827473,44.69812881995373
1760681493.8113852,-17.00766501231007,-0.168106331172329,0.9471701226120902,-0.23720144031453988,9.717389365856404,0.8079643345854615,43.291443008118385
1760681493.8215108,-16.47343822519757,-0.16269610128148837,0.9498437801118655,-0.2426548251165939,8.787844809089762,1.8406418958078283,42.03745803042731
1760681493.8316522,-15.947685448184872,-0.15765105586442235,0.9485473814643328,-0.24852579465842747,7.716984532153646,2.6950077440062654,40.96473172550916
1760681493.8415568,-15.429465254284638,-0.1522862809993627,0.943814956679148,-0.25394704196929757,6.5441878359209,3.2936453225893714,40.06726404057766
1760681493.8512983,-14.917740724296099,-0.1461706698771961,0.9365853834571634,-0.2581788486846102,5.3206624009939025,3.613140131783774,39.3126678504036
1760681493.8612788,-14.41170995406733,-0.13918013211946775,0.9280530618193161,-0.26068136409816617,4.101569095860569,3.681810504149261,38.65238535424594
1760681493.8713524,-13.911079868337444,-0.13149051554551086,0.9194992303975897,-0.26116339756218737,2.937530762782652,3.5706589075257535,38.03197742488574
1760681493.881442,-13.416254326719638,-0.12351880297770162,0.9121216693467983,-0.2595979664951106,1.867086788486312,3.3797314628632247,37.399940446185234
1760681493.8915176,-12.928422163386463,-0.11582971280396527,0.9068810858109175,-0.25620102548779944,0.9114265124997899,3.2225295821566005,36.71412602643089
1760681493.9014456,-12.449547269471656,-0.10903196818529913,0.9043822476094722,-0.2513785312802581,0.07230653931316712,3.2110358183120074,35.94547084962602
1760681493.9112844,-11.982278644284523,-0.10369102239011788,0.9048053163010717,-0.2456548367386307,-0.6665474781806081,3.44334845494673,35.07927183350007
1760681493.9212472,-11.529807447100232,-0.1002786527045375,0.9078972248584267,-0.2395988192288183,-1.3349483661545951,3.995033071899644,34.11462405616939
1760681493.931539,-11.095695031001949,-0.0991646095649691,0.9130244998580607,-0.2337616898610301,-1.9696772843974684,4.9143687965942275,33.06284714470347
1760681493.9415455,-10.68368185795559,-0.10063809697214413,0.9192789427263109,-0.22863377541191493,-2.6072209209938144,6.220968741589949,31.945714175224534
1760681493.9512389,-10.297470932925416,-0.1049363967103298,0.9256188122463797,-0.22462034377492382,-3.2772397719575075,7.906925744018687,30.79404602719639
1760681493.961472,-9.940472362900906,-0.1122592055488253,0.9310232626229396,-0.22203194243932797,-3.9979292236065116,9.93963250431497,29.64680073132021
1760681493.9713314,-9.615504194103153,-0.12275739556263153,0.934637482376591,-0.22108353021763077,-4.773981254324473,12.265604763151515,28.55030362675434
1760681493.9813957,-9.324465808136903,-0.13649666483134457,0.9358893711389746,-0.22189732807870977,-5.597327764329063,14.81485506928413,27.55689509280407
1760681493.9915555,-9.068023832819039,-0.15340435238099343,0.9345649245752579,-0.2245049945850564,-6.450338351552673,17.505537927880454,26.722158026738644
1760681494.0013435,-8.8453660506061,-0.17321051866322026,0.9308381418172642,-0.2288453322617837,-7.310722561040481,20.248692514721004,26.100086567708427
1760681494.0115123,-8.654079920420884,-0.19539405287385805,0.9252603577709472,-0.23475519240702958,-8.157106294963835,22.952965529666905,25.736030278718506
1760681494.0213134,-8.490198899259086,-0.21914331400064485,0.9187203268635334,-0.24195365849199202,-8.974158288564313,25.52922580985219,25.657877665886264
1760681494.0313168,-8.34843632319034,-0.24334003353203512,0.9123875424640202,-0.2500219690035139,-9.756252373917107,27.89498161116283,25.866575741114875
1760681494.041415,-8.222599091787549,-0.26657454398413066,0.9076466899293476,-0.25838329436128804,-10.508953675152608,29.978467965238604,26.327560835040593
1760681494.0513077,-8.106146153809508,-0.2871981778174933,0.906023024528902,-0.26628767536812653,-11.248071568342985,31.722189879407768,26.96487803000207
1760681494.0616908,-7.992832770960481,-0.3034140820770195,0.9090911341703265,-0.27280895592431237,-11.996544045394884,33.08562035789616,27.65964310694161
1760681494.0714958,-7.877364036862581,-0.3134019815244062,0.9183572218043111,-0.27686294821311175,-12.779882936086933,34.04672220383647,28.254076051523253
1760681494.081429,-7.755973728304143,-0.3154675795842966,0.9351094617072342,-0.27725850550771586,-13.621197784498921,34.60205421325918,28.56167316816127
1760681494.0916462,-7.6268492261462555,-0.3082041520402789,0.9602409016764477,-0.27279294632290707,-14.536853598015487,34.76544750512792,28.383263205419457
1760681494.1013317,-7.49033950504688,-0.2906523102295744,0.9940618490530639,-0.26239763619149076,-15.533589352215648,34.565535962306235,27.52779738197475
1760681494.1115994,-7.348909561893877,-0.2624440193847462,1.036130014870115,-0.24532800794528173,-16.607484400665943,34.042699474966824,25.83585039807806
1760681494.1213312,-7.206839749388857,-0.2239190621175441,1.0851330187200061,-0.22137653074634056,-17.744637160355243,33.24612909903684,23.2030732289332
1760681494.1313286,-7.0697096150312,-0.1762052903902948,1.138856350605014,-0.19106967894491855,-18.922982614056256,32.231663462773064,19.600371735444423
1760681494.1415288,-6.943746709742642,-0.1212559362279241,1.1942600746239571,-0.15579513651609941,-20.114459488062373,31.060738716530743,15.087512492995199
1760681494.151555,-6.835151838924458,-0.061836313139953664,1.2476716088367572,-0.11780095513956787,-21.28679953152111,29.800283300007244,9.81725412787234
1760681494.161302,-6.749523650836845,-0.0014487434369460138,1.2950840310265306,-0.08002291945189977,-22.404514433561342,28.52279769131637,4.027994652975573
1760681494.171251,-6.691490756282896,0.055819601993599935,1.3325335960295681,-0.04573332150936902,-23.429090346711515,27.30536561448149,-1.9756971582103728
1760681494.181241,-6.664617861411416,0.10554262083894507,1.3565173171693714,-0.01805593980323622,-24.318820102977565,26.226143055708107,-7.853522597252746
1760681494.1914217,-6.671589727550951,0.1433052694225715,1.3643996773054112,0.0005598532961079788,-25.028976252452228,25.357144421203305,-13.267765507130552
1760681494.2015047,-6.714605491065215,0.16514993092410254,1.3547473832661645,0.008788279833159123,-25.51306043650645,24.75300089062804,-17.924577776058303
1760681494.2115195,-6.795852384407291,0.1680828762042461,1.3275293243069228,0.006691875626593055,-25.725616997311054,24.43674938640109,-21.612118431771854
1760681494.221499,-6.9178900086778174,0.15057295704942505,1.284135438628861,-0.004265250775068605,-25.626613169742036,24.385290434746043,-24.229207202920264
1760681494.231343,-7.083780194961692,0.11295078826299194,1.227206377402791,-0.02146505454588908,-25.18680095898021,24.518322330037098,-25.79921801251982
1760681494.241525,-7.296853135936695,0.05760948537892554,1.1603136326024253,-0.041595592667473466,-24.39297878826906,24.694693047947364,-26.46624113971709
1760681494.2512567,-7.560104471822783,-0.011076451102306926,1.0875641694565206,-0.061229537561772455,-23.251838611257345,24.71897045755656,-26.473615871907327
1760681494.261471,-7.87534615794765,-0.08715651035088455,1.0132078801486546,-0.07740211210077566,-21.791220758558108,24.3589190448039,-26.128042347005962
1760681494.2715383,-8.242342033131598,-0.16381293383474016,0.9413021702282824,-0.08806873964747851,-20.058121314749897,23.37210679670122,-25.754957814574745
1760681494.2813525,-8.658198989891277,-0.23427727464898498,0.8754528537235129,-0.09234943593135433,-18.11360811675874,21.537676537427163,-25.652313821857817
1760681494.2913506,-9.117229540703809,-0.2927913747493081,0.8186243539494552,-0.09051998578970369,-16.025656276056313,18.6879085065018,-26.050109081793902
1760681494.3013346,-9.611363800992805,-0.33541457068765734,0.773005156236707,-0.08377657845608966,-13.86147650963696,14.733922285117844,-27.081927247113395
1760681494.311505,-10.131020324432868,-0.36050129936321923,0.7399218516557465,-0.0738571153608045,-11.680934363240226,9.680842810222627,-28.772472024380278
1760681494.3216631,-10.666214501120404,-0.368753391017676,0.7198051873710163,-0.06262770191470571,-9.532157964967906,3.6298511530786692,-31.042198911909775
1760681494.3314157,-11.207639156719914,-0.36285798842939504,0.7122166652180294,-0.05173160271843509,-7.449680119364385,-3.232687129326364,-33.727250423740145
1760681494.3416836,-11.747497826808065,-0.34681396955575405,0.7159426978548191,-0.04236112409313222,-5.454827461312496,-10.656148475341558,-36.61050934402808
1760681494.3514988,-12.27997038457451,-0.32510295003447004,0.7291548523515305,-0.0351681861629655,-3.557789061625057,-18.35203285598377,-39.458008388204625
1760681494.3613691,-12.80129629199003,-0.3018740276421241,0.7496207300100449,-0.030292773948821825,-1.760823018897639,-26.020827019635302,-42.054377805953
1760681494.3715882,-13.309541587284517,-0.28029357007208316,0.7749370842786035,-0.02746973478983867,-0.06213918429482313,-33.37517551557604,-44.231591387519785
1760681494.3815646,-13.804162322256012,-0.2621704134289706,0.8027525961846824,-0.026173260087802405,1.5400753290221214,-40.15669982079847,-45.88693338061314
1760681494.3915973,-14.285492233148062,-0.24790728330327913,0.8309531059533027,-0.025766146568364373,3.04419769265286,-46.145616968269536,-46.98850337518455
1760681494.4015937,-14.754271608103759,-0.2367584705680782,0.8577913273686418,-0.025629456436523614,4.443036578913387,-51.1640571027674,-47.569088447780146
1760681494.4114828,-15.211303903589394,-0.2273073348623085,0.8819519584588139,-0.0252560360723365,5.72353970365745,-55.075303402358585,-47.71124058908708
1760681494.421473,-15.657284601155798,-0.21803398471484997,0.9025522330215733,-0.024300447378446458,6.868381919820685,-57.78175145909397,-47.52752409775866
1760681494.4313645,-16.092802400692033,-0.20783495930313195,0.9190885997032542,-0.02258821365471508,7.858983811692937,-59.22403922876435,-47.14006516981003
1760681494.4415374,-16.518475002014373,-0.1963816710322605,0.9313505922730804,-0.020096015414083426,8.679194242767046,-59.38265058598007,-46.662898687139
1760681494.4516065,-16.935157223338773,-0.1842527495886206,0.939328969781119,-0.016918244047002696,9.318797164947862,-58.281765648309914,-46.189452148505644
1760681494.461446,-17.344151778045823,-0.17283395041241364,0.9431434662906328,-0.01323306517016796,9.776137791064711,-55.993783863075265,-45.78615176983622
1760681494.4714537,-17.74736225798011,-0.16403273362313642,0.9430056690673212,-0.009274837696452176,10.059414967239315,-52.64223723463491,-45.491849734394854
1760681494.4812686,-18.147348623346016,-0.159888925407778,0.9392179848949831,-0.00531299955991333,10.186462945504429,-48.40090558254688,-45.32174772585724
1760681494.4915953,-18.547270104558645,-0.16217273210018512,0.9321961459713939,-0.0016338063652936504,10.183102711191019,-43.48770865503365,-45.27386691307688
1760681494.5015395,-18.950722617663782,-0.17205163392806455,0.9224953638831408,0.0014781366162802236,10.080379220057052,-38.15308051031607,-45.33597863215736
1760681494.5116353,-19.361494652609807,-0.18988515429729078,0.9108204658809119,0.003759078713950952,9.911200170109389,-32.66372182644835,-45.49126589112286
1760681494.5212364,-19.783276138994268,-0.21517508552962217,0.8980062374358339,0.004985805767218045,9.70699967405282,-27.2836312389748,-45.721696480344356
1760681494.531639,-20.219358012432032,-0.24666316905178418,0.8849632731354324,0.00499717970337747,9.495016467282515,-22.254939642274444,-46.00890750283487
1760681494.5415483,-20.672355247073927,-0.2825368183396054,0.8725946976719837,0.0037197854272268,9.296602586060295,-17.78117712213331,-46.33309263858132
1760681494.5516434,-21.143974303238444,-0.3206849672397575,0.8616975052083355,0.0011969127645216876,9.126717891120963,-14.015176991879482,-46.670817528107534
1760681494.561262,-21.63483169282456,-0.3589450474981039,0.8528666996294925,-0.0023860780779361907,8.994493985661386,-11.052954521914316,-46.99283794342812
1760681494.5715945,-22.14431964643411,-0.39529715729890014,0.8464203972764467,-0.006692030389133066,8.904539466490162,-8.933738864825703,-47.26288448999478
1760681494.5816414,-22.67051232670679,-0.4279865422638969,0.8423602091702279,-0.01124971440214869,8.858553102375783,-7.645128317466304,-47.438055338409875
1760681494.5914075,-23.2101125287012,-0.45558118101458545,0.8403739671309378,-0.015504232133513306,8.856816911550125,-7.1314149155306685,-47.47099522300796
1760681494.6013002,-23.758450405352807,-0.47698799803931835,0.839878241353127,-0.018894497966906176,8.899229320309953,-7.302779338595368,-47.31352957521875
1760681494.6114745,-24.30955554080376,-0.4914545363655708,0.8400894120543314,-0.020941094817491745,8.985681661800282,-8.043407545479626,-46.92099249614526
1760681494.6212668,-24.856325695026907,-0.49857558046588,0.8401083784988977,-0.02132107752275902,9.115761756041925,-9.217514379656734,-46.25627438313541
1760681494.6313756,-25.390807603584413,-0.49831221542662013,0.839006663843797,-0.019907521862853494,9.287953649973822,-10.67346643937754,-45.29270446242369
1760681494.6416335,-25.904589013050465,-0.49101880368357703,0.8359085194771422,-0.01676161083896526,9.498633631319452,-12.247258930151165,-44.01524428147174
1760681494.6513846,-26.38928066302964,-0.47746423889035566,0.8300709965295738,-0.012080845425200964,9.741189188407992,-13.767133781489578,-42.41996490178363
1760681494.6616457,-26.83704743379645,-0.45882990504540394,0.8209683303949734,-0.006122334296856837,10.005512969214191,-15.060921491176302,-40.5122427474821
1760681494.6715405,-27.241134912626638,-0.436669433404225,0.8083858447850357,0.0008715924542465939,10.278005111517569,-15.966792243854313,-38.30439823857793
1760681494.6816065,-27.59633477764547,-0.4128233803909318,0.7925215451421644,0.008720247764275973,10.542117962226211,-16.346789155432038,-35.81355424797327
1760681494.6915991,-27.899338840418544,-0.38929112192768733,0.7740829623222418,0.01730952802297511,10.779416662811249,-16.10121850979219,-33.060327290671744
1760681494.7015228,-28.148942580820705,-0.36806836569973095,0.7543566937714455,0.026555293426073916,10.971079912094721,-15.18115322489688,-30.06864439237971
1760681494.7114778,-28.34606958221594,-0.35096112481007236,0.7352226229189264,0.03633879508697932,11.099698590194606,-13.59627709859971,-26.866572659076358
1760681494.7214694,-28.49359705061875,-0.339388700640082,0.7190866649433841,0.046435146226065385,11.151157076990065,-11.416049841338879,-23.48765106562434
1760681494.7315292,-28.595972888610824,-0.3341925218016995,0.7087153374987969,0.056455682924882,11.116347334473875,-8.763402931308981,-19.971945250247824
1760681494.7414818,-28.658632564296678,-0.33547559582791414,0.7069706003046744,0.06581869830335906,10.992503752679298,-5.801479644935867,-16.365995114292136
1760681494.7514915,-28.68725364384083,-0.34250621073545756,0.7164615100702466,0.07375377275891426,10.78404799128858,-2.714990942882177,-12.721006478428952
1760681494.7615077,-28.686925570377955,-0.3537233299367754,0.7391477054039022,0.07933695878378168,10.502945671422983,0.3115579555034866,-9.089021698379778
1760681494.771535,-28.661352163261444,-0.3668736371362841,0.7759464788090668,0.08155110684807826,10.168639256145177,3.1161498953939413,-5.517346914873804
1760681494.7818437,-28.612228977496233,-0.37928957804130464,0.8264082178231675,0.07936792033290153,9.807600309613255,5.579263807373304,-2.0421285443703066
1760681494.791521,-28.538933014326112,-0.38828771446861315,0.8885307949714855,0.07185112336145419,9.452449769157361,7.6388418944610645,1.3174975263226056
1760681494.8013935,-28.438622354884714,-0.39163359493804595,0.9587763796924131,0.05827699036741921,9.14047352045207,9.297732604071943,4.563005287663016
1760681494.8117566,-28.30677177234749,-0.3879896184235615,1.0323293987248274,0.03825799920058597,8.911281478285876,10.621798493538831,7.716351644523877
1760681494.8215344,-28.138078476569024,-0.3772439094659903,1.1035922000921337,0.011844617338692647,8.80339237321122,11.728012519093882,10.815418255733126
1760681494.8313158,-27.92757972090327,-0.3606231368765742,1.1668609420121387,-0.02042025834863448,8.849707983963755,12.763409247228838,13.905547583638723
1760681494.8415263,-27.671759629867253,-0.3405318525439577,1.2170690009484126,-0.057507540627228265,9.072135622914708,13.877518356198093,17.02898383205149
1760681494.851335,-27.369412038395094,-0.3201307620754319,1.2504480877567594,-0.0979679434864317,9.475955670358857,15.192598859718407,20.214783787428562
1760681494.8614995,-27.022076513972518,-0.30273947475752017,1.2649641245111913,-0.14005077396272678,10.044889765784143,16.777199503016003,23.471558990996318
1760681494.8716033,-26.63396208654735,-0.2911947811794189,1.2604476596824326,-0.18186572028831116,10.73821208604247,18.628709222739687,26.784332508576593
1760681494.881532,-26.21139149978494,-0.28730205406439324,1.2384328007407237,-0.2215672069751782,11.491497504781398,20.669107620664636,30.115440226198142
1760681494.8916643,-25.761906624197284,-0.29149260775165725,1.201794756804605,-0.25752728397799896,12.222308674758366,22.755152249916133,33.40845927206676
1760681494.9013002,-25.293241511819463,-0.3027533417301893,1.1543003652949846,-0.28846251456978633,12.841000625665284,24.700703630333606,36.593890390348704
1760681494.9116092,-24.81237463206899,-0.3188343293523091,1.1001640458609627,-0.3134965066931343,13.265140596382814,26.306145304046918,39.59556386088837
1760681494.9215512,-24.324822824201686,-0.336679369493139,1.0436614709726977,-0.33216018692568133,13.43454289519271,27.38877244403108,42.33710599146131
1760681494.9314268,-23.83426370853296,-0.3529819618481476,0.988817231452228,-0.3443458310527207,13.323273035307627,27.808580165983624,44.74806417264744
1760681494.9415662,-23.342498321905996,-0.3647534642152065,0.9391597256394673,-0.3502376222665388,12.945431508250168,27.48551634568354,46.76943718141985
1760681494.9514937,-22.849705757636688,-0.36979774594512393,0.8975285296978683,-0.35024331299160344,12.352943403602731,26.406376940063243,48.35847242661607
1760681494.9613922,-22.354899945787622,-0.3670107272852112,0.865925421318456,-0.34494684899509515,11.625545739068771,24.621671844138326,49.492673215896744
1760681494.9714763,-21.85647650101989,-0.35646048436581057,0.8454138216923855,-0.3350889088472436,10.855103570086282,22.234602976335232,50.172924070927884
1760681494.981616,-21.3527373023965,-0.3392513045957822,0.8360828755026107,-0.3215657316888892,10.127734974756939,19.385432953289108,50.42545278032314
1760681494.991545,-20.842303352261833,-0.31722404456734793,0.8370936860966823,-0.3054254595569051,9.507639128191862,16.23477141574817,50.30209411413579
1760681495.0014641,-20.32436734138259,-0.29257896772874187,0.8468143839519884,-0.28784140248527545,9.02595767370759,12.948681184719982,49.87817883147099
1760681495.0113873,-19.798783744566588,-0.2675121947012023,0.8630323089733903,-0.2700514195428603,8.676676075861748,9.6872663757877,49.24750522072939
1760681495.0217311,-19.26603175947981,-0.24393334831053856,0.8832140952339175,-0.2532657605656304,8.419891195057913,6.596991583374201,48.5143148847147
1760681495.0315273,-18.727105174038286,-0.22329386873930482,0.9047755474641811,-0.23855700943147617,8.191202703734557,3.805867262820493,47.78289977306452
1760681495.041478,-18.183381155493105,-0.20652005706996254,0.9253256282092597,-0.2267527350118402,7.914907900936077,1.4201348740862063,47.14620054792423
1760681495.0514698,-17.636502689490502,-0.19402413093019594,0.9428598579423194,-0.21835303107527831,7.51826925705706,-0.4787474493382688,46.67524807309015
1760681495.061508,-17.088288276802377,-0.18576376874268374,0.9558925060488487,-0.2134911633245334,6.944339764778346,-1.8373555656713425,46.411330085131866
1760681495.0715184,-16.540668586303774,-0.18133028760672204,0.963528822813117,-0.211947009457096,6.161466175675523,-2.6334820132917383,46.362275323487474
1760681495.0814855,-15.995647003451106,-0.18005685756997153,0.9654845764577538,-0.21321161276273695,5.168378211613859,-2.878283465571893,46.50337950294195
1760681495.0913649,-15.455284414391665,-0.18114167673503276,0.9620594499755619,-0.21658945798545148,3.9945092473950727,-2.6162077655735,46.78253168864236
1760681495.1013837,-14.92170927895003,-0.18377500761208518,0.954066237392515,-0.22131634437764253,2.695804553870889,-1.9217963889013223,47.12834121268898
1760681495.111338,-14.397146830447538,-0.18724973453243385,0.9427150181345553,-0.22666806237578882,1.3467742965877447,-0.8930750852019422,47.45972658499157
1760681495.121602,-13.883948764800989,-0.19103236815646016,0.9294557029902858,-0.23203969312284203,0.02996981796768058,0.3580561200335201,47.69553588152395
1760681495.1317103,-13.384595674592129,-0.1947808864748688,0.9157931246458983,-0.23698573273392692,-1.175606183581761,1.7174506952223838,47.76315706221643
1760681495.1414783,-12.901646533423984,-0.19831422905697962,0.9030995968338654,-0.24122354389430314,-2.2054571825833285,3.08102688223515,47.60550394544121
1760681495.151502,-12.43762377909637,-0.20155574280062827,0.8924539771502417,-0.24461229700730838,-3.018260099457503,4.366282505289359,47.18607057901159
1760681495.1615062,-11.994842897081222,-0.20447983067715528,0.8845327925734805,-0.2471234444777136,-3.6009238890482935,5.521541181002594,46.491919856594166
1760681495.171512,-11.57521324085774,-0.20708420619491114,0.8795706401945969,-0.24881629640890188,-3.9693478642662225,6.5316054930612575,45.534569526675014
1760681495.1815,-11.180046329452995,-0.20939436499178735,0.877395494684135,-0.2498251324512689,-4.164967522991828,7.41881041798226,44.34879847889575
1760681495.191432,-10.809907896033423,-0.21149112719297974,0.877530574222202,-0.2503557005015327,-4.247903147383718,8.238975624282793,42.98942901019679
1760681495.2015321,-10.464541798021447,-0.2135422349078406,0.8793410347128375,-0.25068267973110364,-4.2880346575784145,9.072405510158443,41.526176604187405
1760681495.211466,-10.14287917233713,-0.2158156436497959,0.8821956984156106,-0.25113829508478885,-4.355542263283378,10.0107861223526,40.03675644319337
1760681495.221545,-9.843128173266015,-0.21865522485141148,0.8856141193901613,-0.2520852612163082,-4.512382360685801,11.141481404047468,38.59863276616375
1760681495.2312586,-9.562924095544334,-0.22240997730148448,0.8893761973051794,-0.25387157596447046,-4.805860409738297,12.531265821611207,37.28006420035261
1760681495.2414947,-9.29951226278673,-0.22732364158545357,0.8935812716692433,-0.2567683755794058,-5.264990189659851,14.21187098205776,36.13135020371224
1760681495.2512894,-9.049938567020893,-0.23340709919293162,0.8986529150457216,-0.26089609490137416,-5.899787520748715,16.16976171674499,35.177326935420176
1760681495.2615945,-8.811232234901345,-0.2403253313608718,0.9052932390509445,-0.26614954586918355,-6.703152261553767,18.34218245141103,34.41213904737966
1760681495.271293,-8.580576542928927,-0.24733117576621638,0.9143957791475243,-0.27213704469057626,-7.654658856241567,20.62069241527669,33.79712378668791
1760681495.2815096,-8.355470123300396,-0.2532701027422459,0.9269283722029453,-0.27814906815923784,-8.725464245830944,22.862233954095007,33.26231401739282
1760681495.2914958,-8.133881795353693,-0.25666658797922276,0.9437976667908784,-0.28316797123686926,-9.883621453106208,24.906477760052184,32.71163707725489
1760681495.3017328,-7.914397161158556,-0.25588686773526975,0.9657071045938285,-0.2859251456901983,-11.099253292311726,26.597054223405017,32.03140987828284
1760681495.3114822,-7.6963488381999055,-0.24935748126432092,0.9930217268757902,-0.28500780763645417,-12.34917811165882,27.803553798989526,31.10127778648414
1760681495.3213727,-7.479916768430472,-0.23580604907220867,1.0256553900546963,-0.2790130907239724,-13.62061146770641,28.4409648059779,29.806393813680177
1760681495.3313768,-7.2661823632697216,-0.21448309900537643,1.062997159820416,-0.2667397404584513,-14.913482120117235,28.4835006903861,28.049451399777812
1760681495.3414912,-7.057122265060488,-0.18532491102736898,1.1038918354640213,-0.24739731802610296,-16.240771337243064,27.970499060707876,25.761198238190726
1760681495.3515255,-6.855535774181022,-0.14902884298236652,1.1466829217213073,-0.22080266719778913,-17.626263849362058,27.003188047322382,22.908256520019734
1760681495.3613143,-6.664913828889024,-0.1070318993184467,1.189314724419455,-0.18752793046153346,-19.099338886607836,25.732499448883768,19.497422318552545
1760681495.3714592,-6.489273003368578,-0.061404599574560494,1.2294778153437234,-0.14896629954520996,-20.686961773897668,24.339554678717423,15.576074044810799
1760681495.3819878,-6.332989873554749,-0.014689055902711683,1.2647766137486312,-0.10729046661054242,-22.403726928926673,23.011651761266137,11.228816654469146
1760681495.3916337,-6.200674746675479,0.03028286328720037,1.2929029259213367,-0.06529227211904226,-24.241434964886423,21.917240567086065,6.570911501300574
1760681495.40151,-6.0971162606020535,0.07056158240779653,1.3118085932625594,-0.026108865144785214,-26.160083031613464,21.183365259563853,1.7392815856635666
1760681495.4114835,-6.027308643990445,0.10322981950391637,1.31987304984325,0.007140235985462505,-28.082234323521476,20.87847867833432,-3.118116065918294
1760681495.421512,-5.99654432252808,0.12553874535567724,1.3160541477602343,0.03176183965125636,-29.89251102494177,21.002602779279478,-7.853957186241378
1760681495.4315472,-6.010524129876329,0.13505220117054487,1.3000009218771074,0.04588506727746013,-31.44343219685157,21.485704163615726,-12.333899057017927
1760681495.4414754,-6.075415606608674,0.12982257822159085,1.2721057762324732,0.04877863314671117,-32.56798128082821,22.193994792753724,-16.449290430142174
1760681495.4514449,-6.197783603755395,0.10861161963634508,1.2334841593303822,0.04102639832490095,-33.098156718337286,22.942782369511896,-20.129590256042675
1760681495.461352,-6.384328908659476,0.07114916802468323,1.185886222555715,0.024513115116159282,-32.88746400867441,23.513691053162695,-23.35317609418781
1760681495.4715998,-6.641399256604419,0.018396436268201578,1.131558344040503,0.002199118593849882,-31.834110759682194,23.67379991987337,-26.154461436216653
1760681495.4831119,-6.974281179956887,-0.04724611530081464,1.0730773215500269,-0.022299502544956547,-29.900909792057213,23.194634418029185,-28.62476107882005
1760681495.491347,-7.3863385718777055,-0.12186500774666964,1.0131766539138312,-0.04526394676059206,-27.127902419599497,21.869871245437857,-30.90456201726202
1760681495.5013223,-7.878129308479287,-0.2001751639439304,0.9545770415945952,-0.06345761711105458,-23.634654863962375,19.531684881853845,-33.166064805422195
1760681495.5113637,-8.446687973112775,-0.27593266818030365,0.8998272693556736,-0.07462420801156265,-19.61094790522006,16.066315684605915,-35.58698366464604
1760681495.5216777,-9.085178255156613,-0.34261503886158867,0.8511599172501799,-0.07779684786746269,-15.296778849909053,11.42920039779272,-38.31907392879995
1760681495.531745,-9.783062055776593,-0.39428073604845437,0.8103687219390784,-0.07336155581363268,-10.95467598961493,5.658825514786764,-41.456823499745376
1760681495.5413768,-10.526806664229154,-0.4264456905682847,0.7787176191382054,-0.06287583748975245,-6.8387683379850905,-1.113116185901453,-45.0124539903762
1760681495.5516496,-11.301005717208705,-0.4367901808966957,0.7568903538320232,-0.04869553639420035,-3.16552914146501,-8.65877013626306,-48.902611877233134
1760681495.5613172,-12.089690793111881,-0.4255466944092124,0.7449820767762709,-0.033496658427248326,-0.09059096187450032,-16.661718885247048,-52.95024594773051
1760681495.5714142,-12.877597764676002,-0.39549653994874534,0.7425257548237679,-0.01978778998023221,2.305229644412439,-24.736937873473394,-56.90272392448432
1760681495.5814362,-13.651215616269148,-0.3515845017924586,0.748543983457017,-0.009496621942527074,4.019169269196665,-32.46245348707957,-60.46461905627801
1760681495.5917737,-14.399540129822071,-0.30022212409583143,0.7616219636787347,-0.0036898771841713837,5.1191202637579005,-39.41954251780186,-63.34098764341813
1760681495.6016235,-15.114532571960037,-0.24838603621975108,0.7800037077938187,-0.0024576999105729055,5.727189476234873,-45.23646577515198,-65.28464050109527
1760681495.611504,-15.79132015065746,-0.20263654749163165,0.8017146480586427,-0.0049674578528318926,5.997078195114094,-49.62974990812546,-66.13940080258345
1760681495.6216197,-16.428175929425795,-0.16819390139770835,0.8247090371221247,-0.009670822251601964,6.089092398526217,-52.43678564252322,-65.87121384917619
1760681495.6315484,-17.02630233471641,-0.14821570480466037,0.8470331446983552,-0.014629325981578633,6.146961858973606,-53.63402193271158,-64.58056906556897
1760681495.6416838,-17.58943390358665,-0.14340706190532765,0.8669881026501602,-0.017904141846562947,6.280197714994012,-53.336622401377056,-62.49289300894577
1760681495.6514573,-18.123280048442904,-0.1520506026593212,0.8832709428287122,-0.017939534986431846,6.554442219922175,-51.77826683522277,-59.92775053468602
1760681495.6615632,-18.63484539075152,-0.17046615787806407,0.8950715277874259,-0.01386557181886406,6.9904881867330975,-49.27342753898878,-57.251902741819386
1760681495.6719134,-19.131685917496792,-0.19381704773983427,0.9021095827608349,-0.005659845704217155,7.57088687027268,-46.16808575191088,-54.82454795843005
1760681495.6815178,-19.62117459674459,-0.21709923049890748,0.9046088749290206,0.005861813788880018,8.251770987797476,-42.787509250430716,-52.9446419214372
1760681495.6914082,-20.109853059893272,-0.236107143852642,0.9032186416591774,0.019217396506781777,8.976900426396634,-39.39059848019781,-51.80963999577794
1760681495.7016242,-20.60293501139298,-0.24818179679194802,0.8988993305238978,0.03254988895431219,9.690967783569342,-36.13909106433314,-51.492468935517415
1760681495.7116785,-21.10400588800887,-0.25260743564954063,0.892789736934659,0.04397144281111499,10.349756608834701,-33.08683667547236,-51.93972902080824
1760681495.7214804,-21.614936813317595,-0.2506077092013457,0.886069805852484,0.05188981193581172,10.92568146119761,-30.19015813825708,-52.99001625384652
1760681495.7315211,-22.136002652878524,-0.24497356082899507,0.8798307997944977,0.055258199590004345,11.408363597588314,-27.3360462283321,-54.40769966207431
1760681495.7418525,-22.666166923417716,-0.23941791798976866,0.8749616124502297,0.05371169494870888,11.800975410341358,-24.381617767723192,-55.925099983436844
1760681495.751554,-23.203473661878057,-0.237791271506941,0.872056445420531,0.04757839441428024,12.113915806443915,-21.196544188318207,-57.28512628299452
1760681495.7618654,-23.745472102234192,-0.24330679003477254,0.871347743782729,0.03777637793055099,12.357822658226766,-17.70019077335332,-58.277068112866075
1760681495.7713904,-24.289598638677717,-0.25791568309879365,0.8726711135059904,0.025626377288976498,12.537914901455062,-13.886811820509031,-58.76017038228061
1760681495.7815673,-24.833454451051193,-0.2819446009392021,0.8754726120896544,0.012621269315097636,12.651187232410217,-9.83490940097399,-58.672387357069624
1760681495.7915924,-25.374943165546263,-0.3140570468377821,0.878867637939636,0.0001949471895516584,12.687156207255406,-5.700157649798415,-58.02471391974292
1760681495.8015385,-25.912262523146552,-0.3515340171936708,0.8817522827128751,-0.010474046176532496,12.631871736229753,-1.6943924258283318,-56.88406761490329
1760681495.8116198,-26.443768247221694,-0.39079884995462655,0.8829549679066923,-0.018599493275004778,12.474013230879354,1.9445583933847101,-55.34933299750167
1760681495.8215098,-26.96774274399771,-0.4280584242594437,0.8814038884764523,-0.0238503155834335,12.211339813246234,4.986353485225755,-53.52567547575883
1760681495.8317194,-27.48210720462101,-0.45991565230689607,0.876280064857985,-0.026332903462224187,11.855722258397535,7.239255973244752,-51.5017105398114
1760681495.8415709,-27.984117544700393,-0.48383234916403406,0.8671300228433085,-0.026496322303417006,11.43542470043227,8.574391893481792,-49.332926637893905
1760681495.8517332,-28.47008646819086,-0.49837670265539513,0.8539248229638532,-0.02497673402718201,10.994019228806453,8.940380048488263,-47.03329034406785
1760681495.8614895,-28.93517661935628,-0.5032531948685836,0.8370674496917527,-0.022411891083824183,10.586049058440604,8.367454628636729,-44.5754780455852
1760681495.8713646,-29.37331049712227,-0.49916150005598997,0.817361655896087,-0.01926697577354573,10.270141577119121,6.961931144740051,-41.89883418710047
1760681495.881484,-29.777237474082288,-0.48755322050385647,0.7959590837546866,-0.015713506334409846,10.100677201181487,4.893163279975697,-38.923082696841256
1760681495.8917234,-30.138784502405795,-0.47035512202223567,0.7742993455552616,-0.01159174166631604,10.119363383125114,2.3758334844157445,-35.56514296097671
1760681495.9016223,-30.449295612740656,-0.449714434870405,0.7540520231500993,-0.006467044872829864,10.348127984133667,-0.34951789813954814,-31.75619854674814
1760681495.9115095,-30.700239297585238,-0.42780170335791184,0.737060497451952,0.00023227262049544154,10.78457175364444,-3.0353134471283805,-27.45643107317647
1760681495.9215581,-30.8839358861482,-0.4066816204235333,0.7252760162046894,0.009027444356333063,11.400777367593792,-5.443576552886517,-22.6654879623055
1760681495.9314673,-30.994331168638297,-0.388236044230378,0.7206612065732766,0.0201941241231672,12.145638155320569,-7.359856957288192,-17.427642723882563
1760681495.9416533,-31.027719100459084,-0.3741039934643633,0.7250420639133415,0.03360095165218233,12.95021774594805,-8.604736505867573,-11.831496967154443
1760681495.951622,-30.983299756094315,-0.3655995450486916,0.7398993975209226,0.04861386392360064,13.735179256287248,-9.043589135402947,-6.004748613229421
1760681495.9618282,-30.8634595736036,-0.36358422285548464,0.7661114283409526,0.06408468502353186,14.41916009614018,-8.595100786260728,-0.10491965543382693
1760681495.9714878,-30.673691868245694,-0.36830158547112657,0.8036817592908652,0.07842793287943514,14.927119790949215,-7.2384363802621765,5.692943640208839
1760681495.9818153,-30.422138115466357,-0.3792159820435695,0.8515054586518953,0.08977584543563946,15.198020022967745,-5.018153346563561,11.2105781658688
1760681495.9914768,-30.118807831859534,-0.3949194465947308,0.9072372440991412,0.09618998176237814,15.191501999666269,-2.045359323249306,16.28177264244201
1760681496.001546,-29.7746002468696,-0.4131697655810457,0.9673265765029159,0.09590012576014056,14.893342417569277,1.5065194708495835,20.767428760883277
1760681496.0113592,-29.400283473913913,-0.431097926530953,1.0272700671702693,0.087537977373506,14.319357544684774,5.412546988225814,24.569047741309454
1760681496.0218406,-29.005581591967992,-0.4455833008746493,1.082097358458126,0.07033328525618056,13.51716650112946,9.413905911725221,27.639121568704955
1760681496.031449,-28.598486528411303,-0.45375221397924737,1.1270510078391922,0.04424393093247587,12.564958067251757,13.24132994975223,29.9869396536347
1760681496.0416086,-28.184864059561246,-0.45351678989474914,1.158349869939752,0.010001009492998801,11.566283849710215,16.641990055575302,31.678622173437063
1760681496.0515578,-27.76837159236072,-0.44403935253865806,1.1738610574683357,-0.03093549324234491,10.64010459033973,19.40636308725571,32.830785617298304
1760681496.061627,-27.350655609700535,-0.4259949211441265,1.1734862436972753,-0.0765011014224013,9.906055352181411,21.391018637648923,33.598102209672085
1760681496.0713737,-26.931755441321545,-0.4015318252347801,1.1591253407584805,-0.1242150090360329,9.466265809485543,22.533449149984797,34.15601046181308
1760681496.0814223,-26.51061557655721,-0.37390718485597935,1.1342064630471045,-0.1714150079890792,9.386775525425165,22.85610199645305,34.68073876609944
1760681496.0913951,-26.08560646300012,-0.34687420891321913,1.102913383311826,-0.21552165849519528,9.682843761590677,22.458490970468716,35.329347980392676
1760681496.1014075,-25.654971721847787,-0.32397311654200805,1.069336353466799,-0.25430776708991776,10.312427483020926,21.498368584352573,36.22252293991871
1760681496.1114416,-25.21714938952425,-0.3078935322240878,1.0367810921256329,-0.2861374611193062,11.180496867368642,20.16502534013529,37.43238865231553
1760681496.1215591,-24.770946851311045,-0.3000373635708913,1.0073963764907716,-0.310130738787091,12.154139948750242,18.64934866499896,38.97685636930792
1760681496.131485,-24.315577763765745,-0.30034601990116516,0.9821588991003615,-0.32621468503019807,13.085503272363786,17.11588234616451,40.8210564386267
1760681496.1417294,-23.850591088980952,-0.3073924302699825,0.9611364106426301,-0.33504453031139086,13.837489717006989,15.681615121825756,42.88538361847952
1760681496.1514106,-23.37573509176982,-0.3186907565193137,0.9438807389551095,-0.3378098877446397,14.306477538918474,14.404762526337482,45.058703371372275
1760681496.1615314,-22.890802588897895,-0.33114750778283425,0.9297988352321201,-0.335972108185278,14.437308585325804,13.284776796609595,47.214545248029154
1760681496.1713808,-22.395499444666136,-0.3415659921050515,0.9184004591704212,-0.33099606248511737,14.227987575798181,12.272703714366493,49.227808934481544
1760681496.1816585,-21.889367756874318,-0.3471201816654644,0.909393763876394,-0.32413698748028813,13.724127034835057,11.289248985606022,50.98967073277959
1760681496.1913118,-21.371779882677604,-0.3457304729243212,0.9026600993812494,-0.31632163106240774,13.005378198550332,10.246819521664275,52.41891485152199
1760681496.2014132,-20.8420024090799,-0.3362971373999698,0.8981660776418281,-0.30813169720875005,12.167423078066307,9.071471026887163,53.468654540924526
1760681496.2113428,-20.299314727741823,-0.31877293450669364,0.8958657891100217,-0.2998684968957057,11.30343595418386,7.721064097627052,54.12816254838375
1760681496.2216136,-19.74315893800994,-0.2940816988510022,0.8956250650551961,-0.29166015579862614,10.488409141905521,6.1968459740823025,54.42016000754328
1760681496.2314508,-19.173297988007725,-0.2639129899450433,0.8971789605306555,-0.2835703721412033,9.768692099641964,4.546926034142233,54.39436799550816
1760681496.2416928,-18.58996537737095,-0.23044122297832445,0.9001215395135138,-0.2756784355858677,9.157838429896504,2.8614882349599466,54.11841964159159
1760681496.2515492,-17.993997164109647,-0.19602582600551471,0.9039241311216616,-0.2681176307817193,8.638637667886792,1.2608866882036158,53.667395596962606
1760681496.2614758,-17.386939569546378,-0.16294232961636967,0.9079798580703424,-0.2610754367272572,8.170196269958696,-0.12118002129840941,53.11331440626899
1760681496.2714977,-16.771120920320577,-0.13317472854232426,0.9116723687036504,-0.2547685407541126,7.698243914755161,-1.1565657100397986,52.5158965003564
1760681496.281519,-16.14966896348029,-0.10827654777999617,0.9144620974203844,-0.2494074725261806,7.16655071385372,-1.7405918658878088,51.91580110390999
1760681496.291557,-15.526451974135153,-0.08929314359028295,0.9159755955208154,-0.2451621015500388,6.527455798203103,-1.806159826164796,51.33125510937663
1760681496.3016837,-14.905931215318617,-0.0767357460648437,0.9160773906434159,-0.24213418754968852,5.749951632792073,-1.3318720293231776,50.75851839902196
1760681496.3115664,-14.292932588706355,-0.07060377268791804,0.9149039796670373,-0.24033979690979215,4.824392401293219,-0.3429810670719668,50.17599708082495
1760681496.3213384,-13.692368049618832,-0.07045603003386725,0.9128469754905439,-0.23970349834135393,3.763529375217333,1.0947243455499427,49.55114569342001
1760681496.3316023,-13.108951389071624,-0.07552690057689425,0.9104843637015927,-0.24006590469322242,2.6000998814663774,2.8866368168504115,48.84877154935954
1760681496.3414538,-12.546952106835894,-0.08487186098781173,0.9084709554561679,-0.24120405052236432,1.3815723122379462,4.924127967887298,48.03913591325304
1760681496.35142,-12.010016844328959,-0.09751483085760232,0.907408050217684,-0.24286072561016722,0.16290843112619038,7.0994534079783564,47.10440380101533
1760681496.361675,-11.501066936326852,-0.11256556880296976,0.9077166098924897,-0.24477693243274426,-1.0016042728470775,9.318077341597863,46.042454950593736
1760681496.3713477,-11.022261420024012,-0.129282779630837,0.9095378094941965,-0.24672251083311458,-2.06625809088192,11.506601862507626,44.86766847073056
1760681496.3815384,-10.575003952502467,-0.14707568798155088,0.9126802169893414,-0.24852233808717367,-3.0003380169466674,13.615625783282416,43.608864428029506
1760681496.3916266,-10.159971125831072,-0.16545556009834037,0.9166252984656835,-0.2500773794335813,-3.7919637054060997,15.617927405883442,42.305023144446
1760681496.4013507,-9.777145262914674,-0.183961109169988,0.9205941966138499,-0.2513804543458767,-4.448680174484335,17.503131253429867,40.99968079791887
1760681496.4116266,-9.425843011972134,-0.2020860463845738,0.923670183014163,-0.25252614115425565,-4.994715246005237,19.27040252791888,39.73502794855167
1760681496.4213095,-9.104739951110234,-0.2192349710798885,0.9249631692501643,-0.25371326330406896,-5.465478304742798,20.92076705159459,38.54670752551476
1760681496.4317772,-8.811898843946208,-0.23472532876780047,0.9237949095574206,-0.25523719910322945,-5.900420484023247,22.450475272789973,37.46009472074681
1760681496.4415634,-8.5448124434422,-0.2478387551966024,0.9198766865120884,-0.2574680646473332,-6.335678737828814,23.846486070522875,36.48845691256276
1760681496.4514995,-8.300470412517036,-0.2579092738695525,0.9134476069382772,-0.2608103601183243,-6.797919605523882,25.084687861253645,35.63291834386903
1760681496.4617078,-8.075456034413842,-0.264423505072249,0.9053435548124823,-0.2656411769853014,-7.300488456608946,26.130966853094588,34.88370653031669
1760681496.4716372,-7.866073874234853,-0.2671021554230281,0.8969752049698114,-0.272228298798763,-7.842429057691206,26.94475781596241,34.22184735149072
1760681496.4818504,-7.668506377092373,-0.26593609911989236,0.8902075273522647,-0.2806358828640504,-8.41029498545304,27.484344628810735,33.620398829083136
1760681496.4917252,-7.478998084585407,-0.2611660913828307,0.8871506040380059,-0.29063189038058024,-8.982095298608579,27.71296307528168,33.044523800428195
1760681496.5014677,-7.2940707699097755,-0.2532159203508235,0.8898883518731526,-0.30161546503206027,-9.532370244507348,27.604705218276848,32.45017804186126
1760681496.511417,-7.110775676013774,-0.2426023423891409,0.9001836559874068,-0.31258239246272523,-10.037377728300445,27.149305615028133,31.781829484073295
1760681496.5214164,-6.926981648078514,-0.2298449292981945,0.9192030825474655,-0.32214312094009206,-10.47964185575604,26.35507398711948,30.970258551312696
1760681496.5316353,-6.741677086420413,-0.21538954789803894,0.9473016711917344,-0.3286026349765669,-10.851485781536201,25.249522931982312,29.931913523196577
1760681496.5416102,-6.555236713760672,-0.19955022240961875,0.9838998374065147,-0.33010606690515143,-11.157433614217672,23.877624800601513,28.57131910828551
1760681496.5517051,-6.36958509639151,-0.18247111229917495,1.027472234131086,-0.324847449990735,-11.415420887558588,22.29806620828849,26.78757397157768
1760681496.5617206,-6.1881893355926465,-0.16411203483923795,1.0756540291479917,-0.3113293960639036,-11.656654721995277,20.57822555494074,24.485086532562313
1760681496.5715873,-6.0158373206171305,-0.1442636527003354,1.1254545739720359,-0.2886478301396222,-11.92386233850488,18.788751059358134,21.587582807475183
1760681496.58155,-5.858200892619184,-0.1225997221764133,1.1735539567231752,-0.25676019745917134,-12.267698622304183,16.998526629527294,18.053356467239787
1760681496.591429,-5.721233847928933,-0.09877230333377086,1.2166469793176253,-0.21668263467584106,-12.741302932376891,15.270541688574411,13.8890141044805
1760681496.6015518,-5.610498513029996,-0.07254978731005873,1.2517923336697976,-0.17055810192568385,-13.393359254799888,13.65883300283765,9.158797064390342
1760681496.6116405,-5.530538918848499,-0.04398498087430998,1.276721115782553,-0.12154950726902768,-14.260413232707371,12.206346886861883,3.9869733002720986
1760681496.621604,-5.484416028508861,-0.013582531320983063,1.2900593280126103,-0.07354110148700205,-15.359499929047011,10.943369434270611,-1.4482903579236739
1760681496.631433,-5.473491631171652,0.017579978041826087,1.291428165710857,-0.030672036427682493,-16.68223325455584,9.886144394080508,-6.929877532212473
1760681496.6415858,-5.497500962734544,0.047823533680553254,1.2814064054789507,0.003233654539162981,-18.19138867641205,9.03543620268929,-12.224329694959456
1760681496.6515596,-5.554901888022641,0.07496108044458732,1.2613668314239275,0.025247646212494416,-19.820747212352266,8.375033706647752,-17.109538721601236
1760681496.661603,-5.643440502215271,0.09651563524233074,1.2332243829034815,0.03382488332623647,-21.478631961020675,7.870432450720697,-21.403820464759836
1760681496.6715996,-5.760835905635136,0.11003996770820283,1.1991497997785319,0.029103542574314682,-23.055167498574527,7.468100269616686,-24.992036444048594
1760681496.6818426,-5.905466223259412,0.11349248084290316,1.1613047833497543,0.012949428830118492,-24.43280498918831,7.095803814402384,-27.844523660723052
1760681496.6914322,-6.076938201683468,0.10560579148521206,1.1216427367785744,-0.01128275752027572,-25.499090201922954,6.664490154629697,-30.025477563361914
1760681496.7013865,-6.2764444979153815,0.08617471532891272,1.0817973330307764,-0.039248781132378285,-26.16008137162739,6.072201875382611,-31.688930535484
1760681496.7114842,-6.506851233794252,0.056196163036786706,1.0430575523094874,-0.06629853096791591,-26.35239807283532,5.210417477591536,-33.06224039571163
1760681496.721574,-6.772505312999256,0.01781767849922684,1.0064100354198882,-0.08822112401816679,-26.05179858210612,3.972986361316983,-34.41872131618272
1760681496.7315142,-7.078797504001082,-0.02591143815978237,0.9726202257984828,-0.1019050317651657,-25.276597914364856,2.2674378570247367,-36.0425059164488
1760681496.7414627,-7.431554380448203,-0.07145190800570782,0.9423201231158796,-0.10577923200388907,-24.08515318020758,0.027889248882153612,-38.18985603881442
1760681496.7513058,-7.836351076547136,-0.1152787789278173,0.9160699805630766,-0.09995087539694629,-22.56784438401116,-2.771915238582358,-41.05190810659624
1760681496.7615263,-8.297832764848405,-0.15438367124987573,0.8943667696565661,-0.08602708028908376,-20.8350925441745,-6.107614131100314,-44.72409921897423
1760681496.7719705,-8.819110828223318,-0.18667641307135413,0.8775887379056503,-0.06668025158601851,-19.003619523129466,-9.897919944459865,-49.187031873915664
1760681496.7815382,-9.40127436087683,-0.2112095156269962,0.8658911484267476,-0.04506762568951293,-17.183210713668224,-14.005483638331995,-54.30218504568658
1760681496.7913523,-10.043043446830024,-0.22819165241120767,0.8590921993762839,-0.024235691595252597,-15.465801258455313,-18.246493422910497,-59.82384236220349
1760681496.8013864,-10.740591035588757,-0.23880476483969829,0.8565979657349219,-0.006628018373588098,-13.91801225123597,-22.40892134889762,-65.42625979640127
1760681496.8114314,-11.487565212569384,-0.24487838700464942,0.8574069010203715,0.00622168087835211,-12.577536138660202,-26.277320639453723,-70.74280029136924
1760681496.8215945,-12.275338897551862,-0.2484952918250424,0.8602121110975915,0.013779595910232081,-11.453154871210206,-29.660279464876716,-75.41180301052212
1760681496.8314219,-13.093491839091802,-0.251602703866426,0.8635901380778968,0.016405521366287926,-10.527756102833706,-32.41566084018704,-79.12262248117241
1760681496.8415732,-13.93049313882137,-0.25568762971401415,0.8662361397656195,0.015112469820484867,-9.763518658695299,-34.46893086393295,-81.65488760202619
1760681496.8513973,-14.774511865544037,-0.2615528935386343,0.8671868397615417,0.011273330805265722,-9.108419421402626,-35.82107190985824,-82.9048100950062
1760681496.8616521,-15.61425188879805,-0.26921228613185877,0.8659730145024096,0.006346738466734154,-8.503272024177228,-36.54439375916079,-82.89433728434028
1760681496.871713,-16.43969682765171,-0.2779131710015441,0.8626636249401877,0.0016655125007646572,-7.888573991707387,-36.76661481788039,-81.7618771265283
1760681496.8815908,-17.242667967294675,-0.2862888683073047,0.8577957530163419,-0.0017012194432649227,-7.210519457078061,-36.64559567302694,-79.73669172859884
1760681496.891512,-18.017138528791914,-0.2926324082513041,0.8522157045531809,-0.0030232534240460353,-6.425669367133844,-36.33878166482717,-77.10205362192568
1760681496.9017825,-18.75929911277687,-0.2952622807523482,0.846876419341639,-0.0019400577325304983,-5.503968084925312,-35.97247752204112,-74.15410098289637
1760681496.911637,-19.467415145643052,-0.29292319160182007,0.8426399145481653,0.0015405018481688452,-4.430027680891261,-35.616367824018425,-71.16358553379868
1760681496.9215703,-20.14154482264277,-0.28514207895439536,0.8401232750997414,0.007074424822674517,-3.2028355606187087,-35.26816757701724,-68.34642680264055
1760681496.9316456,-20.783190501535895,-0.27245462675181004,0.8396099462360922,0.014050560155276726,-1.8342356227636076,-34.85193161331944,-65.84660155403502
1760681496.9414606,-21.394941352057213,-0.25643765287873627,0.8410313377436058,0.021696399557631352,-0.34664036030072104,-34.23136715590991,-63.73207455448009
1760681496.9516542,-21.980139416856055,-0.239525272747784,0.844010023412267,0.029205202117501907,1.2295684119138803,-33.23663855324847,-62.00193237923527
1760681496.9615188,-22.54257529349899,-0.22463830591207676,0.847946450224724,0.03585567312927682,2.8585851726621985,-31.700161201880466,-60.60116472985267
1760681496.9714143,-23.086201047948595,-0.21469966913594174,0.852127138029943,0.04109553584398333,4.501478075163161,-29.494603457787438,-59.43888394340678
1760681496.9816606,-23.614840506528726,-0.21213176665636932,0.8558337733253679,0.04457441757143387,6.118267941068369,-26.565508598829577,-58.40611253239637
1760681496.9914227,-24.131881452623315,-0.2184332848621536,0.8584376881912799,0.04613067040789321,7.670017424937943,-22.951886153746898,-57.39033782554857
1760681497.0013795,-24.639949052501198,-0.23391619985504145,0.8594700248742497,0.04575111778123128,9.121209454395233,-18.790542127672737,-56.28549404948698
1760681497.0116746,-25.14058101949032,-0.2576522501049228,0.858661400912262,0.043527483699730245,10.442525899379925,-14.30321288756336,-54.99752057800888
1760681497.0214205,-25.633944986204483,-0.28763369530758665,0.8559459285512795,0.0396292564047523,11.61381122338363,-9.768966752828153,-53.4467789903457
1760681497.0314996,-26.118648032890533,-0.3211042598552087,0.8514270376058353,0.03430331230279407,12.626687605005982,-5.487089205624211,-51.56908417916058
1760681497.0417595,-26.591681681622454,-0.35497979355959147,0.8453108796293418,0.02789890640380275,13.486135971404755,-1.7372328143519151,-49.31685510133607
1760681497.0514567,-27.048524682102993,-0.3862690636966166,0.8378257574671328,0.020905213014415065,14.210429297823637,1.256253057767346,-46.66115128426272
1760681497.0613647,-27.483398615440546,-0.4124236249523896,0.8291558101990398,0.013980350035570655,14.829055072906439,3.350148193209039,-43.59449137547471
1760681497.0713856,-27.889647218025598,-0.4315793773118553,0.8194166677309945,0.007948371827893952,15.378607566338527,4.4949771612712075,-40.133636133711285
1760681497.0814896,-28.260194984286493,-0.4426850452621181,0.8086880814177921,0.0037452326480055405,15.897008490062293,4.7338422191526455,-36.32110819154851
1760681497.091522,-28.588034207208374,-0.4455328739787045,0.7970987023708389,0.0023063203088638786,16.416801592737336,4.189563254816884,-32.224176889795835
1760681497.101644,-28.86669094838555,-0.44071318685729455,0.7849400410665214,0.00440645317639896,16.958609576822052,3.0441475001082745,-27.93039415714881
1760681497.1115546,-29.090630534554723,-0.4295143000551184,0.7727772527404415,0.010484936038197827,17.526020733326114,1.5153542869203938,-23.539515476959295
1760681497.1213918,-29.255582038412417,-0.41378786321309924,0.7615252089452749,0.020504331035779404,18.103061860825942,-0.16546483453821548,-19.15264289543518
1760681497.1315248,-29.358781971691133,-0.39579477357732534,0.7524660029926815,0.03389051266278995,18.654980296011036,-1.7716743217153175,-14.860400215422079
1760681497.1416688,-29.399148336190702,-0.3780355952857321,0.7471940627426178,0.049579309700099466,19.132396179972638,-3.0951986312105872,-10.732552816234653
1760681497.1516514,-29.377390949024875,-0.3630568420489624,0.7474844056771078,0.0661610219032853,19.47818015171309,-3.9568665010429256,-6.811459228274048
1760681497.1616662,-29.296048577088335,-0.3532210293183681,0.7550881381764161,0.08208443629280664,19.63586520615032,-4.214869755286114,-3.111005808567104
1760681497.171639,-29.159430039718586,-0.35043997524623705,0.7714698195543521,0.09586748570842292,19.55816347777952,-3.772542419795675,0.37863331925990446
1760681497.1813474,-28.973432492514327,-0.35589305231702784,0.7975160460451749,0.10626434616378555,19.214270539360157,-2.5855160709275915,3.6815936954243025
1760681497.191355,-28.745216584168933,-0.3697747886606462,0.8332605641028439,0.11235566610511055,18.595035190234746,-0.6670239802193603,6.824742748345027
1760681497.2014496,-28.482735000760673,-0.39113057706880955,0.8776809686429584,0.11355453964409382,17.71561162308468,1.9106727915368495,9.827068143485267
1760681497.2116678,-28.19413768846893,-0.4178400281955271,0.9286204278983479,0.10954815415024112,16.615713860355545,5.020700613638571,12.693034879594864
1760681497.2213683,-27.887109268177145,-0.44679246676044465,0.9828755617356403,0.10021463567231008,15.35788916608643,8.492818211930357,15.411937166648972
1760681497.231659,-27.56822257542823,-0.4742681694672539,1.0364710460193005,0.08555842335883633,14.024227650357533,12.130854336593647,17.96364542590183
1760681497.2417715,-27.24240533457086,-0.49649236563809024,1.085111945438677,0.0656932284272336,12.711671302352585,15.733937155133784,20.32930232466746
1760681497.2515504,-26.91260442407405,-0.510270984204456,1.124764177442588,0.04087697554781233,11.52574566933236,19.117831776742467,22.504014599101936
1760681497.2615926,-26.579693034076787,-0.5135681611438252,1.1522664661000679,0.011581654714124433,10.572341708567365,22.13238888265153,24.507885667927848
1760681497.2717404,-26.242615240850228,-0.5058793859148702,1.165839270152113,-0.02143002614591152,9.947317056684215,24.671923510278454,26.392018459406906
1760681497.2813969,-25.898722737596895,-0.4883055497666198,1.165350543695038,-0.05705396783827791,9.724248003525362,26.67707773670803,28.237236897525676
1760681497.2916288,-25.544242142664626,-0.4633166153716292,1.1522448727088566,-0.09385481584613617,9.941597838246079,28.128864296758547,30.14486576722482
1760681497.3015869,-25.17481428962984,-0.43426919626167315,1.129140529338486,-0.13016349366857952,10.59164830486302,29.03746202223307,32.220612582464234
1760681497.3113577,-24.786056902434165,-0.40478989178129254,1.0992121510877195,-0.16426195981766556,11.614293798550259,29.429304177852924,34.554158808270586
1760681497.3213527,-24.374109055564602,-0.37815413052878394,1.0655488279861658,-0.19461895990449427,12.898628468566688,29.335803122859677,37.198254940591134
1760681497.331363,-23.936117013041102,-0.35677966063961963,1.0306724948782917,-0.22011619858701573,14.29387172081262,28.786005356843276,40.15162284186912
1760681497.3416505,-23.470620369077213,-0.3419185814596505,0.9963280599447266,-0.24020361230903473,15.628912513066094,27.80419851478923,43.349545542105204
1760681497.3516335,-22.977800614875044,-0.3335830987636458,0.9635532451418761,-0.2549425178844668,16.7374003260797,26.412385741502725,46.66465884769705
1760681497.3616347,-22.459564206752365,-0.3306919832396878,0.9329444221011843,-0.26492773366707806,17.483641289489235,24.636579016301322,49.91844612389127
1760681497.3717682,-21.919448709398786,-0.3313873848331725,0.9049843593814624,-0.27111433093595494,17.784019691683543,22.51495316329341,52.901781616224596
1760681497.3817062,-21.362361612235226,-0.33344963965949675,0.8803001617420887,-0.2746000973571156,17.61938888883307,20.105227359052968,55.40111608110351
1760681497.3914971,-20.794182564205993,-0.33472932873226086,0.859765727814673,-0.27642196210290587,17.035727174588402,17.48857288703335,57.22596097997261
1760681497.4014702,-20.221274656111454,-0.3335164747982874,0.8444288342053005,-0.2774120818156066,16.13291370666455,14.768126299560349,58.233348147189815
1760681497.4115498,-19.64995483859808,-0.3287769464366823,0.835302779909447,-0.27813441680308626,15.044100800336691,12.06170499666,58.34579496741905
1760681497.4214358,-19.08597005020018,-0.3202135363994067,0.833099622694501,-0.27889690207642015,13.91016331028864,9.490109777950675,57.56066655610391
1760681497.4316423,-18.534021744174247,-0.30815582406896846,0.8379907584253855,-0.27981611056836075,12.854589104648717,7.163807476330947,55.950284965452276
1760681497.4415507,-17.997383022365057,-0.29333414252978735,0.8494640956117064,-0.28090304634173896,11.963755845165233,5.171284411995341,53.65337111878637
1760681497.451629,-17.477657886440817,-0.2766249800022609,0.8663146614179509,-0.2821397615764747,11.276018350526586,3.571789149666974,50.859317974667036
1760681497.4615893,-16.974733191426473,-0.2588528508358751,0.8867689437104967,-0.28352561778552676,10.780890414096994,2.3937850352205876,47.78743673856145
1760681497.4716856,-16.486961903477585,-0.24070020023057712,0.9087125058989807,-0.28508616587592833,10.427411811240729,1.638707769876256,44.66374443979038
1760681497.4817784,-16.01158595513926,-0.22272851544058134,0.9299711353061713,-0.2868512880993855,10.139036675090026,1.2881503875931466,41.698061192855256
1760681497.491901,-15.545358886346255,-0.20546914644636538,0.9485900026541108,-0.28881729072796536,9.831394484580763,1.3118552369003305,39.06411092243751
1760681497.5018184,-15.085272165536665,-0.18951724283898472,0.9630619891475622,-0.2909087810253857,9.429180748727855,1.6740712170302396,36.88492213779935
1760681497.5115619,-14.62924414179554,-0.17556662366785272,0.9724720252874586,-0.2929530225090308,8.87913203024544,2.3367727221692727,35.22509816392488
1760681497.521372,-14.176617777320727,-0.1643540470254173,0.9765440721735739,-0.29467514358860364,8.157261556027784,3.2595326555512476,34.090537490336594
1760681497.531629,-13.72834223748061,-0.15652125676765902,0.9755959165584395,-0.2957178991910792,7.269930499876517,4.3970495835784735,33.43509076708553
1760681497.5414305,-13.286779511473965,-0.1524352450890373,0.9704204217850385,-0.29568424393321174,6.249570747382222,5.6961087318287325,33.17265090366284
1760681497.551439,-12.855166817704886,-0.15202463090807564,0.9621197613240561,-0.29419571887452856,5.1467180856506936,7.093938123312428,33.192469690127105
1760681497.5614355,-12.436857509612034,-0.15469154521128006,0.9519228088616586,-0.2909565166641635,4.020367800639273,8.519506212226014,33.37518575467384
1760681497.5715978,-12.034529909781742,-0.15934210241187483,0.9410156215953089,-0.28581250097396516,2.9285631821373315,9.898433972340747,33.60717891891467
1760681497.5817013,-11.649570795162013,-0.16454666902458745,0.9304100939587229,-0.2787953011598163,1.9206835060184286,11.161092339664732,33.791415799819056
1760681497.591838,-11.281800368221525,-0.1688035070682654,0.9208663539961359,-0.2701434226816726,1.03226814323856,12.252414681815264,33.853808659249864
1760681497.6016383,-10.929619340495313,-0.1708477527284101,0.9128717448563958,-0.26029559208084013,0.2825670123070729,13.141278372047438,33.745080809816415
1760681497.6116424,-10.590549045156324,-0.1699305884310279,0.9066659759833089,-0.24985601287419676,-0.3255154728156619,13.827214213600852,33.43899687139687
1760681497.6215012,-10.262031507129896,-0.16599653031658082,0.9022921349210069,-0.23953569137880082,-0.8037286122659798,14.342698163764624,32.928374958362525
1760681497.6315467,-9.94228854881242,-0.159712016146763,0.8996507629594683,-0.2300779858916815,-1.1757551210388386,14.750178655667675,32.22042320441311
1760681497.641708,-9.631028234933613,-0.15233954746503103,0.8985406124303165,-0.22218006864805648,-1.474052731663225,15.134027617085586,31.332643186037878
1760681497.6516616,-9.329833373102531,-0.14549297362484961,0.8986820145823314,-0.2164241533561676,-1.7366135656717796,15.588533740016398,30.289972075362808
1760681497.6614144,-9.042149360445466,-0.14083506695665532,0.8997309212110816,-0.21323131522786126,-2.003774933855646,16.20371582011153,29.123217999206133
1760681497.6716561,-8.77287820285486,-0.13978214986876492,0.90129809338017,-0.2128455307287065,-2.3150871898846015,17.051049455770336,27.86836886540233
1760681497.6816561,-8.527659666621858,-0.14326741492396028,0.9029861855611016,-0.2153474906499986,-2.7062259946721037,18.17118629309659,26.566116593048285
1760681497.6913612,-8.311969391522709,-0.15159454815193155,0.9044489692217994,-0.22068989863604835,-3.2059946289699557,19.565456101751753,25.26093525747343
1760681497.7013984,-8.130186326133943,-0.16439386953299767,0.9054659053027965,-0.22874089613540952,-3.833553238260997,21.19242675473064,23.99923340759576
1760681497.7114246,-7.984780139112148,-0.18067749087555746,0.9060167347345037,-0.2393204880166146,-4.596104364137941,22.970098392367987,22.82640289450824
1760681497.7216597,-7.875746007586744,-0.19897785582796537,0.9063379920108451,-0.2522161304062227,-5.487336258255518,24.783507142872036,21.78292847930059
1760681497.7316585,-7.800372865401446,-0.2175445511922282,0.9069464301785727,-0.2671682229377445,-6.486956374341426,26.496754391759882,20.90000820489454
1760681497.7416174,-7.7533775751201395,-0.23456761058242911,0.9086206009980515,-0.2838240445753432,-7.5616143843234305,27.967913609530772,20.19528559116375
1760681497.7516804,-7.727380965631603,-0.248393364746086,0.9123381107263618,-0.3016680399065495,-8.667405858554268,29.06498260148214,19.66929066942484
1760681497.761648,-7.713653649656554,-0.25770276338551407,0.9191712419060882,-0.3199445086323569,-9.753982662465331,29.68103998258648,19.303065300417632
1760681497.7716317,-7.703028388411824,-0.26163117307855543,0.9301488109500358,-0.33759369800021055,-10.770110603853434,29.746968990872606,19.057269518897765
1760681497.7816546,-7.686863607727268,-0.2598201695091419,0.946098330417696,-0.3532240970338126,-11.670325578169846,29.240443262933898,18.872882733170815
1760681497.7916582,-7.657946966659799,-0.25240317572290416,0.9674888779518542,-0.3651429547775828,-12.422133436832928,28.190251833745542,18.673462032190997
1760681497.8015656,-7.611244142418654,-0.2399359648332932,0.9942996324047426,-0.3714624779508657,-13.012967391178373,26.67543909570209,18.368821625479498
1760681497.811658,-7.544420760564209,-0.22328834725675395,1.025940075419736,-0.37028842234140874,-13.455888750331678,24.819152849271,17.859964388831987
1760681497.8216527,-7.4580903624979875,-0.20351474855228555,1.0612432983290139,-0.3599804547165924,-13.792864840658224,22.777550750912365,17.045118179936633
1760681497.8316898,-7.35576816220759,-0.1817214496633513,1.0985420174102294,-0.3394530556244436,-14.09448418450615,20.724629011282858,15.826758608052229
1760681497.841701,-7.243541159258236,-0.1589495233901457,1.1358197716407517,-0.308467669696748,-14.455268382273617,18.83438174448084,14.119467049932414
1760681497.8516445,-7.1294987526797335,-0.13609359839123802,1.1709136382787282,-0.267856922951196,-14.98434225529782,17.262178588526627,11.858330584133235
1760681497.8616598,-7.02299786069648,-0.11387318567774657,1.2017354208301012,-0.2196236163767821,-15.792046910753706,16.12752075877866,9.007340312030346
1760681497.8716805,-6.933855017686221,-0.0928626907208804,1.2264765496786965,-0.1668719669894722,-16.97394406770543,15.500283233152436,5.566928576404911
1760681497.881639,-6.871560691769727,-0.07356982726146591,1.2437655412133732,-0.11355469254599938,-18.594352220753386,15.392139069843719,1.5794886196512732
1760681497.891706,-6.844598643622287,-0.05653549640107909,1.2527545493912282,-0.06405270648986192,-20.67190165457615,15.754158212925782,-2.868428638056919
1760681497.901664,-6.859930309867326,-0.04241891661027493,1.2531240877045393,-0.02263788820300748,-23.16950279163397,16.480712758616967,-7.648428966351662
1760681497.911562,-6.922677551182971,-0.03203397583273077,1.2450123484293905,0.007103534216017355,-25.99060007824354,17.41895814303464,-12.597862807283706
1760681497.9213972,-7.036011248774321,-0.026313912023346816,1.2288943846900053,0.02279512470845122,-28.982736068517756,18.38243979548476,-17.532734303228622
1760681497.9316902,-7.201229285481324,-0.02619714328742557,1.2054502385947634,0.023651905238464273,-31.94843946859298,19.166918266794923,-22.265032233262804
1760681497.9416282,-7.417985328020422,-0.03244549142990977,1.1754630746580528,0.010647445525486793,-34.662448347338774,19.566408886031656,-26.62254947453831
1760681497.951797,-7.684611376954091,-0.04542591960237694,1.1397761823264418,-0.013574525294221434,-36.8934244482508,19.387766218923673,-30.468405373888405
1760681497.9614031,-7.998466924081255,-0.06490469222887105,1.0993158444793343,-0.04504407037135996,-38.42768535219988,18.46289926588538,-33.717119453089964
1760681497.971697,-8.356250521023217,-0.08991199430833127,1.0551638354325035,-0.07901943264696235,-39.092121650572125,16.658680828253146,-36.3443740421129
1760681497.981512,-8.754226629257213,-0.1187284540482495,1.0086461548756713,-0.11066523433154607,-38.773446162578004,13.885413517641798,-38.388508486695
1760681497.9916935,-9.188348461860244,-0.1490218257661369,0.9613977928053402,-0.13573972569049947,-37.431318850520725,10.10493074084295,-39.9431213150434
1760681498.0017064,-9.654291130134375,-0.17813097095159056,0.9153673858555024,-0.15116946859175448,-35.10368177391833,5.3388902774976605,-41.14167108736826
1760681498.0122035,-10.147443231013495,-0.20346567922804285,0.8727379929393613,-0.1554081939565632,-31.903678127029647,-0.32327031540853135,-42.13641594411844
1760681498.0216696,-10.662930056288507,-0.22296595800515315,0.8357576014756687,-0.1485188606158343,-28.008650924345154,-6.7185293518675,-43.075184523459406
1760681498.0316653,-11.195743172590964,-0.23553700914300918,0.8064933768167839,-0.1319769430792721,-23.642784704278405,-13.609459246791685,-44.08005813056964
1760681498.0416496,-11.741016202301411,-0.2413496498995592,0.7865453116052844,-0.10825509055165809,-19.05581845782502,-20.691527794491968,-45.23178422658013
1760681498.0518339,-12.294419644428684,-0.24189306714591027,0.7767735078445487,-0.08029625493917433,-14.500721643994698,-27.610975270591982,-46.56253903358283
1760681498.0615165,-12.852577118048336,-0.23971218301941744,0.7771020141629563,-0.050998115285296484,-10.213084908035347,-33.99400663528309,-48.05777920996958
1760681498.0716045,-13.413370150024324,-0.23785484326513848,0.7864557388362192,-0.022811649895438962,-6.394181595042964,-39.48546470443639,-49.66592460211184
1760681498.0813808,-13.97602171241945,-0.23916008223235746,0.8028645286964813,0.0024886624812576487,-3.1985071262058966,-43.79208249445892,-51.313090651098506
1760681498.0917733,-14.540920175437515,-0.24558565393218568,0.823732317470544,0.02385722536995723,-0.7257059323006407,-46.722629892701,-52.91941880669292
1760681498.1016662,-15.109227332670136,-0.2577620138464992,0.8462263222945511,0.04088668299192083,0.9833967992204171,-48.21598320510504,-54.41371816651426
1760681498.1113882,-15.682367514888085,-0.2748749850073968,0.8677054619763018,0.05362922172888788,1.9465693107493356,-48.34948530964923,-55.74378394882299
1760681498.121399,-16.26150440660217,-0.2948678021409792,0.8860927490541274,0.06238909289478875,2.2353553539955113,-47.324164109466054,-56.88060739051839
1760681498.1314003,-16.84709034087766,-0.3148722326012809,0.9001093401234287,0.06754002314549455,1.9655616748308509,-45.429222256794176,-57.8157931590337
1760681498.141749,-17.438543682596734,-0.3317559678482908,0.9093250400602144,0.06940709775029537,1.2838467251927,-42.99338452729538,-58.5530392960787
1760681498.151586,-18.034090431427163,-0.342693638455744,0.9140308610019607,0.06823128098157005,0.35221254292777693,-40.333173208274204,-59.09635097362273
1760681498.1618035,-18.630796540167246,-0.34569204989949887,0.9149870695921017,0.06421275438627085,-0.6672702694279253,-37.707609051951096,-59.43907910555416
1760681498.1716952,-19.22480524910077,-0.34000214274443696,0.9131281370617048,0.05761238860781994,-1.6254375616981092,-35.28641504661711,-59.55805662010353
1760681498.1814644,-19.811767868986063,-0.3263418106035081,0.90930583755693,0.04887664440667403,-2.395589282292864,-33.13597429190488,-59.41565246974309
1760681498.1914852,-20.387418304092634,-0.30686407849449965,0.9041272195902094,0.038737947968513375,-2.8796734297867252,-31.22460584982568,-58.96991120661073
1760681498.2019002,-20.948204485779726,-0.28484965417855396,0.8979075615750995,0.02823809654190591,-3.011907134699942,-29.445888856468212,-58.1901604996948
1760681498.2116783,-21.491868686473744,-0.26416969828572,0.8907237231373861,0.0186383137923785,-2.760664653782081,-27.655555370077984,-57.07359895446498
1760681498.2213807,-22.017870282624894,-0.24862520530672183,0.8825306704749194,0.01121741540696886,-2.1288796850967056,-25.71439762923302,-55.65790227013077
1760681498.2317183,-22.527566481831855,-0.2412990655283066,0.8732968318500642,0.007005191708977022,-1.1525390359094092,-23.52782622498033,-54.025695231804235
1760681498.2415745,-23.024102509778878,-0.24404901255757466,0.8631194152470241,0.006530420650579776,0.1034345411820844,-21.073185885933974,-52.29848867281581
1760681498.2515192,-23.512008065257337,-0.2572338406392747,0.8522929870396823,0.009666097835226943,1.5523378912112693,-18.408888496738864,-50.620049965927706
1760681498.2615716,-23.996548867120513,-0.2797164201091009,0.8413184557015065,0.015626639587785957,3.0956163950379016,-15.664060719980007,-49.13178741937395
1760681498.2718236,-24.482935171940436,-0.30913599625362354,0.8308525843045994,0.023124623219657504,4.634476070173128,-13.012258682131792,-47.9450194889989
1760681498.2816005,-24.975528837215368,-0.34239327872128666,0.8216095895769537,0.030645904870377175,6.081449537196938,-10.63637853457957,-47.11627471253556
1760681498.2914388,-25.47719646280975,-0.3762478847880072,0.8142359897054763,0.03676831971587722,7.369979779165087,-8.693298951646153,-46.631496515860356
1760681498.301804,-25.98891625715373,-0.40789807686380475,0.8091864075740601,0.04044134906297289,8.460391501086693,-7.286000148823301,-46.403177347461444
1760681498.3117332,-26.509670643663465,-0.43541176709797985,0.8066296116055822,0.04116316346493963,9.34135221702009,-6.448492438347866,-46.28155931530133
1760681498.321596,-27.036575703715986,-0.4579133314143924,0.8064093284354852,0.039027214520964776,10.026885149097865,-6.14561920413814,-46.07795306786491
1760681498.3317127,-27.5651458466596,-0.4754956888517398,0.8080726008058428,0.034647294433155826,10.549912780565231,-6.286405781257393,-45.59571844838403
1760681498.3416097,-28.089586036260002,-0.488901850220499,0.810960430966732,0.02899602633405355,10.953921706275516,-6.746767584749871,-44.663020521520444
1760681498.3517435,-28.60304132183827,-0.49908155201376164,0.814335877358162,0.023203648166696303,11.28451700499124,-7.3956201053202735,-43.161317449944036
1760681498.3614063,-29.097795650464,-0.506758064138997,0.8175119209137686,0.018362839625382283,11.582412281461481,-8.11812017180435,-41.0445893982631
1760681498.3717072,-29.565475167957374,-0.5121301988056993,0.8199418690061123,0.015373513540157598,11.878892250260343,-8.83098842870065,-38.34629951103695
1760681498.3814235,-29.997352658764104,-0.5147900364322946,0.8212493625614157,0.01484347176461819,12.194113028131184,-9.487292168607594,-35.17351786485821
1760681498.391397,-30.38484997115867,-0.5138713171771566,0.8211975589544012,0.017043955017281735,12.537915165134365,-10.071014049647196,-31.689963127013073
1760681498.4016042,-30.72028334015901,-0.5083741684853675,0.8196187857423116,0.021909841425463893,12.91227528112131,-10.584353699001355,-28.091422233403556
1760681498.4115264,-30.997799829219264,-0.49755882500205206,0.8163388722572952,0.02907357999310524,13.314242377729935,-11.032277812293097,-24.57782316237554
1760681498.4215827,-31.21434264139625,-0.4812825256730785,0.8111309106596916,0.03792552597464727,13.73825410995823,-11.40894749044364,-21.32614822578756
1760681498.4316216,-31.370404774504962,-0.46017764399496675,0.803722687313712,0.04769590533695499,14.177086988588346,-11.689378583452068,-18.467590082796296
1760681498.441453,-31.47032470498571,-0.4356270438894407,0.793864827180005,0.057552908657016455,14.621264303897838,-11.827588003553087,-16.071243987278162
1760681498.4517193,-31.521958223084038,-0.40956206884324137,0.7814480778055779,0.06670855333735932,15.057368294056038,-11.76036699128275,-14.135607638820828
1760681498.4615073,-31.535705505518667,-0.384161368364845,0.7666426729084825,0.0745214610899229,15.466200334407317,-11.414417294219634,-12.588437366205639
1760681498.471384,-31.523034330906746,-0.36154590365750855,0.7500239197870083,0.08058502953289387,15.821940174164805,-10.714243643420756,-11.29499478060773
1760681498.4816618,-31.494768165334477,-0.3435478457786727,0.7326489872545965,0.0847898954827701,16.093254613049737,-9.588866763948928,-10.074179244756124
1760681498.4917219,-31.45946815665234,-0.3315949166949968,0.7160610496394835,0.08734915186779878,16.246695280995436,-7.976715968709422,-8.721346210688303
1760681498.5020976,-31.422221542449478,-0.32671312008709485,0.7022140275453288,0.08877302690397702,16.251890354142418,-5.829379280873683,-7.035789280808136
1760681498.5119023,-31.38406589399989,-0.3296166737357872,0.6933254344884592,0.08977989170569892,16.08731245217973,-3.115660224608596,-4.8500257230640695
1760681498.5214267,-31.342151257731558,-0.34082686258076805,0.6916698976972804,0.09113823169413376,15.745107216614318,0.172672446550258,-2.0573200201421993
1760681498.5315642,-31.290598160780615,-0.3607476259524632,0.6993238235803024,0.09345252213162826,15.233712513164306,4.012864613134126,1.3665051419174348
1760681498.5414894,-31.221875789386214,-0.3896330966739529,0.7178712736803319,0.09693020403532703,14.577674857887496,8.341515785723988,5.35080284531128
1760681498.5515106,-31.12842524994325,-0.42741383943039957,0.7480900982498405,0.10118632557334782,13.814918098910846,13.045097600422825,9.730473225939326
1760681498.5614939,-31.00420767146867,-0.47339919312419315,0.7896565972874698,0.105146385026532,12.992449531321594,17.953315542328976,14.260669954742179
1760681498.57153,-30.84587786621333,-0.5259311700264714,0.8409307874241589,0.10709269023176576,12.161872574734742,22.83827116011351,18.645549760701385
1760681498.581571,-30.65336701282325,-0.5821129663485762,0.8989021245892529,0.10486926708768408,11.375999139862992,27.42201650644033,22.578369807532273
1760681498.5917861,-30.42978169324107,-0.6377519949036119,0.9593726636476899,0.09622254854824511,10.687335664282461,31.394033726112557,25.78775921466297
1760681498.6016946,-30.180664147452156,-0.6876273792484039,1.017418114942625,0.07921709355773299,10.148385032890205,34.438519266561414,28.08294128526065
1760681498.6115038,-29.91278275788387,-0.7261106886324201,1.0680957392165573,0.05263751549543181,9.812774720989882,36.26939216598077,29.38970733675637
