timestamp,angle,linear_acceleration_x,linear_acceleration_y,linear_acceleration_z,angular_velocity_x,angular_velocity_y,angular_velocity_z
1760597013.83276,8.731785650253878,0.5735931079615197,1.1640009952158108,0.07896059028139855,39.4529513084726,-20.9175638118345,-38.55957904161483
1760597013.8427777,8.449657156715258,0.5563737008957751,1.1472555227870378,0.08505400266978967,39.41516197893699,-6.933280744077171,-36.88085658225963
1760597013.8527975,8.171416478313823,0.5113882919596399,1.1215381603037915,0.09404462986502767,38.35348765118716,8.622903386892942,-35.09459283049088
1760597013.8627656,7.889412316633575,0.4399597872728912,1.0881603508099384,0.10432249205894374,36.36767029062893,24.87549265469475,-33.327095390256716
1760597013.8727655,7.59584552053771,0.34632296710464683,1.0490078516229775,0.11398207050869792,33.656286322014566,40.86278167994589,-31.713604856611894
1760597013.8828046,7.28352542331658,0.2371667978301686,1.0064616558031203,0.12086730110949626,30.494727005199213,55.624291764825394,-30.385843737402563
1760597013.892772,6.946502513806283,0.1207528797463783,0.9632433061690564,0.1226850221056234,27.20529310501885,68.28842872129924,-29.46140261888926
1760597013.9028893,6.58045432427765,0.0057562272142064495,0.9222023873641744,0.11723100405334677,24.12366426284053,78.15026856152893,-29.036903100696943
1760597013.9127767,6.1827600851090665,-0.09994647156513425,0.8860759048032716,0.1027260040128354,21.565547916444,84.73156898339089,-29.184989055986247
1760597013.922777,5.752289947928375,-0.19029241664098098,0.8572471123246863,0.07820074674593866,19.796435827940837,87.81743498415977,-29.953424873900662
1760597013.9327424,5.2890242865970984,-0.2616524054883377,0.8375254705938543,0.0438306822514158,19.006589967599325,87.46618176602529,-31.36375640831375
1760597013.942769,4.7936719298747414,-0.3129597336703849,0.8279682569926755,0.0011191419370249795,19.292846929843506,83.9911358828484,-33.40746688416009
1760597013.952817,4.267451634055341,-0.3453738621163462,0.8287677591362481,-0.04714320899594455,20.648496645553816,77.91586582978883,-36.039086708330494
1760597013.9628468,3.7121408816511003,-0.36160298634123367,0.8392290386387863,-0.09716555076240653,22.962160534620548,69.90773985171775,-39.167627380957946
1760597013.972781,3.1304022398603295,-0.36506572153688127,0.8578551517012992,-0.14465676437864144,26.02609265058044,60.698315491446785,-42.649259541502445
1760597013.9827878,2.52629961061161,-0.35908220788487255,0.8825381852491136,-0.1854528384785366,29.553599049115,51.001968771402275,-46.28480999131684
1760597013.9927778,1.9058408994182716,-0.3462558843415139,0.9108298609438229,-0.21615409114383383,33.2044216680206,41.44522001087755,-49.82522531745862
1760597014.0027704,1.2773477036005962,-0.3281505585031687,0.9402421496150201,-0.2346475428732818,36.61614323847652,32.517466311962956,-52.986769979560684
1760597014.0127778,0.6514647197920492,-0.30529738433321535,0.9685155387510324,-0.24040911124232098,39.439021894860765,24.54925963949761,-55.47572645386758
1760597014.0227673,0.04067996373014039,-0.27749911305052294,0.9937999133328193,-0.2345241897787139,41.371110024659664,17.718048985829114,-57.02017842328491
1760597014.0327873,-0.5416788951422344,-0.24434793302136754,1.0147238976538528,-0.21942852776254163,42.19003402609832,12.075294645908176,-57.404554613982555
1760597014.0427787,-1.0828928959988884,-0.20583949681870647,1.0303713493043611,-0.19843753190732302,41.777583465211976,7.584752838749931,-56.50143490581199
1760597014.0527678,-1.5725505932967239,-0.16293764205836586,1.0402139311838505,-0.17517570559147227,40.13359564935037,4.160508111365955,-54.29500269752007
1760597014.062787,-2.004207143930547,-0.1179189250569248,1.0440483395074112,-0.15302404355415614,37.37671743258593,1.695216480249742,-50.891549558531466
1760597014.07277,-2.3766613767886287,-0.07433490164523163,1.0419620581600422,-0.1346790953644188,33.73133066507754,0.07351764688405443,-46.5143767852531
1760597014.0827692,-2.69452799161136,-0.036521670978910785,1.034324547606109,-0.12188090066656125,29.501861633082825,-0.8286126813281364,-41.482933882945105
1760597014.0927548,-2.967891237920356,-0.008756041763519695,1.0217863148916115,-0.11533018246638528,25.03753098917104,-1.1526804227789231,-36.17873493015183
1760597014.1027756,-3.2110153482019945,0.005686945846738121,1.0052667739262626,-0.11478181921486762,20.692113508540896,-1.0663377581819053,-31.003018680227154
1760597014.1128066,-3.440311068452951,0.005282257102268468,0.9859190557716689,-0.11927294155484738,16.784211055769852,-0.7646704256188026,-26.33261590722885
1760597014.1228004,-3.6719487214587745,-0.009392987391201457,0.9650710517405915,-0.12742299580316424,13.563644205231531,-0.4607122031721953,-22.480620742468783
1760597014.1327977,-3.9195964135636614,-0.03575529831995575,0.9441496246564156,-0.13773492124730127,11.188716691277687,-0.36644799684013185,-19.667289789157994
1760597014.1428359,-4.192709025570214,-0.06967730124977112,0.9245950432023445,-0.14883567528878403,9.717326725323748,-0.6690865063388729,-18.004486034524433
1760597014.1527674,-4.495623777700158,-0.10616129747010469,0.9077691273175278,-0.15961963512472768,9.112409074408504,-1.5086565598320982,-17.494440846125993
1760597014.1627984,-4.827508384477096,-0.14005999498441832,0.8948592465714699,-0.1692909596784242,9.259532237327443,-2.9621029001434156,-18.041228476452833
1760597014.1727605,-5.18303670212575,-0.16671910401229378,0.8867826667965302,-0.17732837258638276,9.992397648930808,-5.0368954406707545,-19.47166868359328
1760597014.1827965,-5.553572555938096,-0.1824719613286569,0.8840995979149094,-0.1834093865455504,11.121064289437268,-7.6746644881141775,-21.561614065558427
1760597014.1927795,-5.928620652480392,-0.18496490267768134,0.8869461061167448,-0.18732966225111508,12.4580553779773,-10.76321603057226,-24.063631841354944
1760597014.2028277,-6.297327899536707,-0.17332261311596028,0.8949983964876939,-0.18894257365563394,13.838769184313405,-14.153876823529515,-26.73269654892357
1760597014.21276,-6.649862159215142,-0.14817521576576825,0.9074777435991298,-0.1881318768100185,15.13430185200003,-17.680635574358995,-29.34741366296846
1760597014.2227728,-6.978542222754328,-0.1115701240817756,0.92320139725503,-0.18482089471105795,16.256431063159507,-21.177906417652522,-31.725294826402944
1760597014.2327619,-7.2786369397265664,-0.06678875356944623,0.9406800613303055,-0.17901389475958573,17.155808147065912,-24.49467151108855,-33.73155739744849
1760597014.2427607,-7.548791917525725,-0.01808468284169734,0.9582574697833877,-0.17085697258106985,17.815245035091806,-27.503939331033813,-35.281727721268716
1760597014.2527676,-7.79107851405689,0.02964325784314463,0.9742824598251594,-0.16069760160812863,18.24035943181206,-30.10762834931443,-36.33893585526218
1760597014.2627532,-8.010690789910516,0.07123171950884394,0.9872995047663541,-0.1491193522695364,18.449775970471972,-32.23792654178356,-36.90716557549956
1760597014.272773,-8.215339696522609,0.10167644775587169,0.9962406153289642,-0.13693705069018935,18.466585145492484,-33.85665439188973,-37.021847974868706
1760597014.2829213,-8.414408430322496,0.1165845757625623,1.0005995690963105,-0.12515668037697922,18.311947632421468,-34.954055091221655,-36.73908522585137
1760597014.2927525,-8.617939604813587,0.1126326845995382,1.00056756711005,-0.11492111325230729,18.000898723748676,-35.547864533203,-36.12455009148657
1760597014.3027906,-8.835528466442243,0.08799240905282611,0.9971066335655747,-0.107460764971413,17.539880919400066,-35.682738008800285,-35.24284674098254
1760597014.3128068,-9.075202865914969,0.04266545015274213,0.9919329907676958,-0.10404285915692602,16.92538469567786,-35.42937302636237,-34.14793520870381
1760597014.3228097,-9.342382802709372,-0.021346169566069682,0.9873806304648446,-0.10588185895756634,16.14314647454942,-34.88218188302845,-32.87514382119776
1760597014.3327606,-9.639026591304201,-0.10010615612289772,0.9861252574803804,-0.11396822712325852,15.167541976776041,-34.1543740398027,-31.435283916356905
1760597014.3428197,-9.963077329998766,-0.18808507427890217,0.9907790848081592,-0.12880909844186242,13.9611699946907,-33.369914833043886,-29.81136123640829
1760597014.352776,-10.308309225959132,-0.2787575363419052,1.003410271344535,-0.15013118687337115,12.475100323799905,-32.652792328434494,-27.958267553268637
1760597014.3628483,-10.664629354649499,-0.36537530354363074,1.025075672631791,-0.1766341107736035,10.650617941517861,-32.114889841178474,-25.805612345641997
1760597014.3728044,-11.018820857307018,-0.4417931843912659,1.0554652540463487,-0.20588434218843576,8.423280850300696,-31.84421189468052,-23.263572927876762
1760597014.3829412,-11.35563727023089,-0.503209182502822,1.0927406755763387,-0.23441464310212598,5.7296534354466555,-31.8952202793681,-20.231365107757714
1760597014.3928165,-11.659097375617572,-0.5466935188244436,1.133619829337087,-0.2580505228877987,2.516341478566241,-32.28275790659314,-16.60768390806012
1760597014.4027832,-11.913799760760764,-0.5714201712177209,1.173722861969875,-0.2724304910732128,-1.2497618278061398,-32.98065068424378,-12.302245522283844
1760597014.4127877,-12.106079792289274,-0.5785706328436503,1.2081542301471733,-0.2736349133196574,-5.571552772591545,-33.92566372646026,-7.24741435888617
1760597014.422769,-12.224867123124762,-0.5709392904650906,1.2322466559000498,-0.2588059533951533,-10.413748934748003,-35.026976844475584,-1.408846108393644
1760597014.4327643,-12.262161871401467,-0.5523219296694712,1.2423425606277956,-0.22663678531433032,-15.698336715950552,-36.18059765492829,5.205915555366574
1760597014.4428086,-12.213117575434511,-0.5268060663751877,1.2364565775702798,-0.17763246290067,-21.304550860394937,-37.28711056346944,12.541916777009769
1760597014.4527833,-12.075782205379182,-0.49809706357776184,1.2146716616535251,-0.11409388029297036,-27.07405062493308,-38.270040298096745,20.49524543164339
1760597014.4630544,-11.85059387995403,-0.46900128441539013,1.1791778440521103,-0.03983884224467045,-32.82145907467461,-39.09128830765814,28.916012411082512
1760597014.472819,-11.539751991562223,-0.4411476674753381,1.1339474255080788,0.04027060664098888,-38.34991263414714,-39.760067828757954,37.61581891342023
1760597014.4827886,-11.146588461946987,-0.4149722932894355,1.0841184314907046,0.12089827017238916,-43.47064431678691,-40.332801487673954,46.378919838259385
1760597014.4927707,-10.675050778521644,-0.3899324451328304,1.0352044353040952,0.1968105477183562,-48.02474506168179,-40.90338303430184,54.97562541790995
1760597014.5027843,-10.129380599043312,-0.36487274199814834,0.9922633724135344,0.2633933081476195,-51.90410611232499,-41.58545258324731,63.17617194621679
1760597014.5127678,-9.51402988699442,-0.33844667881263296,0.9591558385903332,0.31706637697791495,-55.0674990151874,-42.4901529784006,70.76352780336944
1760597014.5227962,-8.833802111923061,-0.3095042502205575,0.9380137345711258,0.3555685990668016,-57.547504975847005,-43.70363874305957,77.5443017217695
1760597014.5327814,-8.094146463277596,-0.2773821152367996,0.9290139253254468,0.37809532894053666,-59.4452098725279,-45.268224290124294,83.35770262876044
1760597014.542795,-7.3014862300433325,-0.2420634969867623,0.9304914803005219,0.38527730293363377,-60.912195270689296,-47.169866090944254,88.08293853255053
1760597014.5527816,-6.46344968933315,-0.20420001972513754,0.939341100147236,0.3790027198530061,-62.12244987916948,-49.33339943820785,91.64537400220306
1760597014.5627909,-5.588899752587434,-0.16500396336446552,0.9515918618176178,0.3621088494172234,-63.23926550706215,-51.62605891835946,94.0213191937604
1760597014.5727694,-4.687712754653543,-0.12603161956858133,0.9630393646597124,0.3379950341766075,-64.3834273879585,-53.86915662303852,95.24075611512538
1760597014.582827,-3.7703158802381593,-0.08889332230577687,0.9698574501805693,0.3102143761632289,-65.60898745194626,-55.85698351165979,95.38689998988337
1760597014.5927992,-2.847044210184636,-0.05494349929002317,0.9691314882608761,0.2820857698754919,-66.89150286032023,-57.38091929057851,94.59147754353943
1760597014.60291,-1.9274177168938968,-0.025016899501552302,0.9592408857874525,0.25635571857705197,-68.1308677043125,-58.255611770582554,93.02508392775424
1760597014.612955,-1.0194611300445153,0.0007247124962553498,0.9400106822249001,0.2349451357690967,-69.16746933324293,-58.34329851521467,90.88288363956895
1760597014.6227958,-0.12918838215560718,0.02279402485563357,0.9125903451515299,0.2188239011553265,-69.80758029572296,-57.57221732861379,88.36701460259893
1760597014.6327758,0.7396558356948724,0.04222754989220072,0.8790931651865482,0.2080420721650404,-69.85260394180368,-55.94570113827987,85.66801697200441
1760597014.6427865,1.5855569971309142,0.060326156557881074,0.8420994487896374,0.20191062948636396,-69.12711320911528,-53.53990782280769,82.94812044044919
1760597014.6527774,2.4089144932352227,0.0783571699389722,0.8041563228050008,0.19928578608134337,-67.50189932358788,-50.490049603934686,80.32905801806626
1760597014.6627867,3.2115209433499916,0.09729150686213135,0.7673890155205321,0.1988881159576108,-64.9097012958153,-46.96716095041195,77.88620874125763
1760597014.6728075,3.9959413171199385,0.11763254210613927,0.7332886067047727,0.19958846804122388,-61.352508085669015,-43.14933952986319,75.64955630811642
1760597014.6828005,4.764902139744895,0.1393655044727199,0.7026843992769753,0.20061243163462064,-56.90029840920547,-39.19243883682283,73.61059055883777
1760597014.692788,5.520783925012465,0.16202578028785558,0.6758650866330895,0.20164199437201055,-51.681937484937265,-35.205136997229246,71.73322539169475
1760597014.7028086,6.265276736525098,0.18485891432380264,0.6527897614561476,0.2028156801289417,-45.86973714502795,-31.232349237846005,69.96625580826691
1760597014.7128022,6.99921903905265,0.20702993610543843,0.6333257696777762,0.20464275711811697,-39.659841021873646,-27.249488293590975,68.2548904359624
1760597014.7228503,7.722603666486218,0.22783664077385743,0.617458646019832,0.20785471147534573,-33.2510167398217,-23.168400153787623,66.54943149455724
1760597014.7327986,8.434708684426806,0.24688634930439687,0.6054326180426868,0.21322092159544193,-26.824532115684026,-18.85406067159306,64.81007303158597
1760597014.7428107,9.134297036744028,0.26420228689657904,0.5977946351287223,0.22135751742452642,-20.527516830047837,-14.1495044946489,63.00778360560148
1760597014.7528105,9.819825752904988,0.28023414537362346,0.5953308839843631,0.23255993718216858,-14.461615782241509,-8.905287681145195,61.12204250910791
1760597014.7628195,10.48961158642701,0.2957630642034932,0.5989032417291262,0.24668981057621042,-8.677962744080206,-3.009313219322261,59.13662175523319
1760597014.7728512,11.141914118890591,0.31171451642598225,0.6092116315957928,0.26314250258547306,-3.178698328180361,3.5869279946048436,57.0346417204873
1760597014.7827868,11.774917788355067,0.32891519352890053,0.6265220311428176,0.28091063797982535,2.07542988053383,10.848920194880835,54.79393642842684
1760597014.7927792,12.386618007065717,0.3478431222287392,0.6504074759977607,0.29874236910613855,7.152311811353,18.648651624541984,52.38356400962361
1760597014.8028092,12.974639749850489,0.3684213643744709,0.6795533693085343,0.315373769329603,12.1317679637286,26.76399185166608,49.76221161292064
1760597014.8129377,13.536035971454613,0.38989791205791446,0.7116792904244775,0.32979316660718244,17.086381001711224,34.8874598002647,46.87921044890114
1760597014.8228014,14.067124964891278,0.4108427786892456,0.7436233107641501,0.3414734543329595,22.061842436202024,42.64280008264093,43.67870804573424
1760597014.8330579,14.563427905041166,0.4292804581792077,0.7716171690551703,0.3504972841508881,27.05945248190834,49.60717269562657,40.10707543089665
1760597014.8428326,15.019758028786242,0.44295977913611273,0.7917495886031778,0.3575165624857979,32.023975971751284,55.3368326897663,36.12284323443272
1760597014.8527925,15.430490052736863,0.4497398854476531,0.8005726081749344,0.36353850900480716,36.84011024778716,59.394866648733654,31.70756260632714
1760597014.8628016,15.790004495159327,0.44804212583939024,0.7957632441737673,0.36959651948439987,41.3399350704671,61.38050009216057,26.875321565599737
1760597014.8728023,16.09326184096054,0.4372919708924855,0.7767288028186592,0.37640699594597626,45.321760730436175,60.96013309809579,21.678503299108353
1760597014.882792,16.3364234695888,0.41826249208788757,0.7450480397974157,0.38410885263109096,48.57827821952334,57.90013046417736,16.207821205888198
1760597014.8928027,16.517408760743084,0.3932354996028027,0.7046617866954813,0.3921436763678065,50.92979157032289,52.100430697119066,10.585605591287933
1760597014.902849,16.6362691718454,0.36591718796313555,0.6617508374179352,0.39929195375058735,52.257262918264594,43.62667364479321,4.952587621334117
1760597014.9131927,16.69527550489202,0.341079632285818,0.6242646562823958,0.40384836550708025,52.52994534211834,32.73736899545287,-0.550193589859844
1760597014.9227996,16.698654120772783,0.3239440943479281,0.6011002587269713,0.40389486525094453,51.823114326464875,19.901966618487275,-5.801555634023635
1760597014.9328327,16.651965965311856,0.3193703009848375,0.6009804354373365,0.39761561198320466,50.322469660918124,5.805555923233945,-10.718928578720543
1760597014.9427938,16.56118818773889,0.33095772036366866,0.6311390160789921,0.38359807516195493,48.3130620785723,-8.663767214423114,-15.272198194471729
1760597014.9528203,16.431618105820387,0.36018996090552247,0.6959762031536901,0.3610767856703113,46.15220463115234,-22.448142183349347,-19.489757295477634
1760597014.9627972,16.266760394118958,0.405756894962603,0.7958859736026963,0.33008994265608427,44.227886425894766,-34.376076512128584,-23.455095121148926
1760597014.9727774,16.067372486521524,0.46317579472636156,0.9264716259023429,0.2915291684269715,42.906696852304584,-43.24240872853164,-27.293919950221458
1760597014.982779,15.830829532211032,0.5248125380177253,1.07835155057569,0.24707372367584832,42.47789522457572,-47.91109432239234,-31.15362511670351
1760597014.992793,15.550934830418807,0.5803792612512636,1.2377120149676937,0.19901637781951512,43.102425337931976,-47.43681903331934,-35.17837325899935
1760597015.0028067,15.218253028383165,0.617945169172408,1.3876809440070883,0.15000365493429765,44.77662593060178,-41.19696643921953,-39.48369143862197
1760597015.01283,14.820988707438286,0.6254306326204597,1.5104701481367226,0.10272223039016637,47.31948293350896,-29.01959556397315,-44.13405912352972
1760597015.022857,14.346376532585472,0.5924610078739473,1.5900632208461247,0.059567357751410914,50.389202657959174,-11.287129981734857,-49.12586071884669
1760597015.0328374,13.782490554218855,0.5123465614474683,1.6150305962265488,0.022331026367144787,53.529845314497415,11.008137355074766,-54.3769850934703
1760597015.0428135,13.120315071195861,0.38384873022321425,1.5808870314728376,-0.008053294273014763,56.242500429197726,36.27938021465265,-59.723932878215564
1760597015.0528095,12.355845644946374,0.21232707378928092,1.4913632906858079,-0.03167041400622869,58.069319033269046,62.446614338087244,-64.92760200221363
1760597015.0628088,11.491915984266805,0.009884984530103683,1.3581297191646455,-0.04963624618796104,58.674387427337926,87.12584223582445,-69.68936300032053
1760597015.0727935,10.53940059690966,-0.20571633714300758,1.1988899290981774,-0.06390585655228596,57.90465731866254,107.8901597586321,-73.6787234354884
1760597015.0828116,9.517463051344977,-0.41333103943549016,1.0342383790383782,-0.07685757322085979,55.81773632650901,122.56911863426467,-76.57211435061728
1760597015.0927835,8.452638662290417,-0.5915131223719855,0.8840466691546179,-0.09072447749401016,52.67049672293079,129.53937851660052,-78.09903417666642
1760597015.1027815,7.376755035750435,-0.7217747934530129,0.7642498458550329,-0.10703091638071391,48.871105084539316,127.95578409866819,-78.08792977502982
1760597015.1128063,6.323945964321894,-0.7913177643271607,0.6847210801524509,-0.1262087531084485,44.904828034420504,117.87983333113581,-76.50172949523049
1760597015.122813,5.327214696368712,-0.7947127278221425,0.6485545329592451,-0.147507907308152,41.248979865511394,100.28083998841224,-73.45372353673397
1760597015.1328406,4.415084289827216,-0.7343248661122765,0.6526761832753994,-0.16922023716523787,38.29376456154591,76.90934435240897,-69.19880741501731
1760597015.1428568,3.60882428640611,-0.6195884619204356,0.6894011714395359,-0.18914597437811953,36.28357442251698,50.06605769251752,-64.10127633678526
1760597015.1527758,2.920602699177754,-0.4654089827724998,0.7484228219621927,-0.20516660768244335,35.28819351427237,22.307073641935897,-58.58585749091606
1760597015.1628036,2.3527359564967116,-0.290017986731543,0.8187539229341132,-0.21575956688194559,35.206500531287595,-3.8659727222662243,-53.08173553491646
1760597015.1727793,1.8980385034923373,-0.11259917796542901,0.8902912491035672,-0.22031358106201637,35.798467616198195,-26.284355487750187,-47.96965750157967
1760597015.1827805,1.5411270480186146,0.04900137876783159,0.9548596030860463,-0.21917970343870927,36.736412716739295,-43.323934599753684,-43.540502793621144
1760597015.1927836,1.260423010182564,0.18018405113029495,1.0067418867804983,-0.2134887191435202,37.66455967435863,-54.030897701033446,-39.97083983107209
1760597015.2027895,1.030537200034887,0.27089572936682366,1.0427846052226248,-0.2048317130264857,38.25656864546439,-58.158632501014225,-37.31754289643215
1760597015.2128098,0.8247266630316362,0.316219601090578,1.0621910683257751,-0.19491269697110505,38.262679903710044,-56.124914423676,-35.530011794805105
1760597015.2229047,0.6171776358875665,0.31629234033348697,1.0661050110659687,-0.18525573931894007,37.54064632635024,-48.90540776018147,-34.475621993233524
1760597015.232788,0.3849598948728556,0.2756880177602672,1.0570718464238082,-0.17701238238861663,36.067492796580034,-37.88219447898412,-33.97238292170877
1760597015.242821,0.10957826358343412,0.20244594757547463,1.0384562113815685,-0.17088219886078793,33.93222884832292,-24.666563632946378,-33.82258888319207
1760597015.2527752,-0.2219089663640179,0.10690183565629222,1.013890117125841,-0.16713170397162253,31.312565237199074,-10.914929016590962,-33.84225005769149
1760597015.2629383,-0.6162283027025861,0.000442188349489094,0.9868153754540363,-0.16567756768395075,28.440909910203796,1.8441249369835326,-33.88282525210081
1760597015.272799,-1.0737180111832234,-0.10572293386235648,0.9601612168388218,-0.16619421435331683,25.56607082577259,12.355317621503968,-33.843713242400824
1760597015.2827795,-1.5886704554106024,-0.20167302425185968,0.936167866141975,-0.1682132887927211,22.917049339921128,19.74125416588413,-33.67561301804874
1760597015.2928212,-2.1501831569444874,-0.27967162008821256,0.9163397458930954,-0.17119719226400754,20.674174423992238,23.55722928531589,-33.375987454955755
1760597015.3029094,-2.743457503205986,-0.3347464761721777,0.9014956368266813,-0.17458394199449004,18.95095225860279,23.793214647714844,-32.97852534755831
1760597015.3127947,-3.3514247610363213,-0.36489699802557285,0.8918787215047993,-0.17781102358589682,17.78788331860853,20.826341527441322,-32.53890451397774
1760597015.322837,-3.9565270146770186,-0.3709269014431547,0.887293347496836,-0.1803297923052478,17.157557883086838,15.333045545813075,-32.11941946602776
1760597015.3329246,-4.5424451951389,-0.35595621268351907,0.8872426527377559,-0.18162023652989442,16.97881362535325,8.174531214337861,-31.775057806478475
1760597015.3429127,-5.095560786265979,-0.3247080632320378,0.8910486140395099,-0.1812110086724727,17.136707318180335,0.2717535690250396,-31.543224128706726
1760597015.3528888,-5.605974116372174,-0.28268798380935073,0.8979430016265725,-0.17870442529120487,17.504554618118487,-7.513540366123047,-31.43847912522446
1760597015.3631172,-6.067978405822373,-0.2353777313581653,0.9071247902984624,-0.17380296377318474,17.96436559958209,-14.476973451891547,-31.452550285930617
1760597015.3728347,-6.479985618064322,-0.18755381951112401,0.9177867836762248,-0.1663336445106217,18.42263584000471,-20.13784907923051,-31.558764986226294
1760597015.3829432,-6.843990906903262,-0.14281514705582943,0.929120628694806,-0.15626921603049676,18.819521379441348,-24.267574657375786,-31.719236164640993
1760597015.392826,-7.164725836751174,-0.10336839980825917,0.9403139318343188,-0.14374842677816196,19.130729567226545,-26.879780389751748,-31.892786727029034
1760597015.4028687,-7.448677566689728,-0.07007939711667645,0.9505549401740054,-0.1290986569004995,19.362776624733925,-28.187157846887974,-32.04178368708572
1760597015.4128678,-7.703143704240785,-0.042758168669572445,0.9590586353212935,-0.11286073817208575,19.543369071678217,-28.534548458812882,-32.13665603450542
1760597015.4227977,-7.935457813510884,-0.02060944523917128,0.9651230736000838,-0.09580987443698297,19.70934927956625,-28.320694872327756,-32.15766156892153
1760597015.4328175,-8.152467126923975,-0.0027528949883495915,0.9682169971648955,-0.07896250784001504,19.894801128459303,-27.921896721844316,-32.09419529692432
1760597015.4428344,-8.360280904288633,0.011296006024312653,0.968090289151071,-0.0635594394516126,20.1215850223169,-27.62953289203565,-31.94240781365637
1760597015.4528217,-8.564245617313524,0.021288674063254773,0.9648894797655807,-0.051019909469660084,20.39388131651534,-27.6103126998945,-31.702053633483636
1760597015.4628088,-8.769054035169308,0.026128602278995213,0.9592534239611488,-0.04286654627657982,20.697379606350978,-27.893755069125525,-31.373364614834944
1760597015.4728367,-8.978871358074567,0.024013907930398815,0.9523614892679831,-0.04062418581103794,21.002667232418872,-28.386515091992706,-30.954460940550288
1760597015.4828274,-9.197369813014857,0.012815735630053447,0.9459090036989926,-0.045696453803879905,21.271302818179805,-28.908595418578575,-30.439489787461717
1760597015.4928203,-9.427601715383357,-0.009386537231604599,0.9419918096911796,-0.05922412376897298,21.462268326885553,-29.242968582067054,-29.817405944513506
1760597015.5028045,-9.671699531899964,-0.043736713379338495,0.9428931316530645,-0.0819294005828958,21.536295003605556,-29.1883515982434,-29.071141175250375
1760597015.5128841,-9.930454777027363,-0.09013977232211677,0.9507826410583609,-0.113952274754398,21.456146515088953,-28.605182111556918,-28.17688947527742
1760597015.5228176,-10.2028786362527,-0.1470249969332109,0.9673597776218014,-0.15469240555586278,21.1822145254336,-27.44709191601069,-27.103362984386262
1760597015.5328138,-10.485869551049912,-0.21139562944604218,0.9934960552413126,-0.20268261153694608,20.664388611493337,-25.773671372804746,-25.811101372946503
1760597015.5428638,-10.774096752578734,-0.27915286312929144,1.0289442942473168,-0.25553165932117894,19.83264853751584,-23.744114368592967,-24.25216621679352
1760597015.5528247,-11.060158354524757,-0.3456190127898547,1.0721779249683225,-0.3099772985377186,18.589723087226364,-21.594549883621205,-22.370718601161993
1760597015.5628872,-11.335007080153545,-0.4061498912015382,1.1204007104796698,-0.3620818428217868,16.809123936303262,-19.60397649704537,-20.104956670513335
1760597015.5728657,-11.588579286326073,-0.45672189198937274,1.1697368593257078,-0.4075804891400549,14.34085967750338,-18.054660318128953,-17.390628119792737
1760597015.5828211,-11.810528416249777,-0.4943990384099311,1.215587113597175,-0.4423568888963819,11.025452247976409,-17.192885773061082,-14.165895943079676
1760597015.5928047,-11.99095369294611,-0.5176197584453648,1.2531223682045276,-0.46297853440879794,6.714977828442508,-17.195349275047846,-10.376899729549987
1760597015.6028008,-12.121022689025711,-0.5262800004781145,1.277874457584214,-0.46719322201538743,1.298199498758334,-18.145450868506714,-5.983105586536949
1760597015.6128323,-12.193406976446042,-0.5216192322528178,1.2863650370846393,-0.4542830042874437,-5.274230780259976,-20.02238590411915,-0.9615566214918839
1760597015.6228387,-12.20248008952936,-0.5059382310787073,1.276690363517788,-0.4251961365507004,-12.968926507579381,-22.704343994844706,4.690615763234919
1760597015.6328135,-12.14426304318929,-0.48219527793737477,1.2489629542171594,-0.38242134414559487,-21.657408307520715,-25.985332583564844,10.955663527296688
1760597015.6428246,-12.016140451537003,-0.4535396006527356,1.2055111070090712,-0.3296207398029374,-31.115374595613535,-29.603206201568113,17.796460124315317
1760597015.6528165,-11.816405841670388,-0.42284608256151696,1.1507622382946776,-0.27108790122059323,-41.03512957816978,-33.27458133914342,25.158873672549877
1760597015.6628141,-11.543724470542047,-0.39231581380737846,1.0907880239399284,-0.2111362256917237,-51.050676431424584,-36.730920548887404,32.97439481600541
1760597015.6728237,-11.196622592468886,-0.3632042003569342,1.0325565646682031,-0.15353971226605534,-60.77283707942037,-39.74980541952871,41.16209841584541
1760597015.682831,-10.773120027851729,-0.3357260195207716,0.9829974899011422,-0.10113626804231912,-69.8297421781633,-42.17660509098168,49.629139686056085
1760597015.692819,-10.270612704245519,-0.3091581004101974,0.948024752293626,-0.05566209312660573,-77.90647952911885,-43.93406997355452,58.26927620534688
1760597015.702813,-9.68607724341104,-0.28211836276659674,0.9316760772983278,-0.017823043042338314,-84.77710085076228,-45.02003383388041,66.95947535559863
1760597015.7128263,-9.0166082051367,-0.2529594014312465,0.9355177877714065,0.01245890099886249,-90.32306982933075,-45.49550138173695,75.55551831301814
1760597015.7228334,-8.260219279864398,-0.2201925876062093,0.9584242060228835,0.03573453699866297,-94.53472498971747,-45.46640638748799,83.88838058042558
1760597015.7328343,-7.4167661924633395,-0.1828614660704842,0.9967680997973467,0.052766231074073335,-97.49584012971467,-45.06239993794335,91.7636379785055
1760597015.742874,-6.488809104713044,-0.14080199376470945,1.0449682638030884,0.06438734767771091,-99.35473275354968,-44.41574929696814,98.96593496907127
1760597015.7529023,-5.482238332546015,-0.09474787735915723,1.0962733484383433,0.0714904083407957,-100.28773447291418,-43.643071877376485,105.269669319332
1760597015.7628264,-4.406530149513216,-0.046260121670506076,1.1436485336219353,0.07510182926230426,-100.46211406903606,-42.831976195670066,110.45570630792892
1760597015.7728376,-3.2745625434698122,0.002510172534671319,1.1806559620299826,0.07647144370939284,-100.00575021361585,-42.03361849519619,114.33242537250523
1760597015.7828102,-2.1019919783655854,0.049177964377018366,1.20223670767799,0.07709802647018876,-98.9895697354418,-41.261020789826865,116.75806831246618
1760597015.7928307,-0.9062624641187004,0.09152050674775042,1.2052971945799622,0.07863720044450076,-97.42584226489117,-40.49209769805586,117.66055806896568
1760597015.802809,0.2946226948547659,0.12782635871570916,1.1890043336742548,0.08269017761576275,-95.28160713358933,-39.67586778316051,117.05093438422534
1760597015.8128052,1.4833978865287532,0.15712379340692775,1.154731272800151,0.09052344637299196,-92.50292589618488,-38.74038143208625,115.02735872146546
1760597015.8228192,2.6447214956536986,0.17924539111979354,1.1056682028684766,0.10279828858805777,-89.04309801031012,-37.60151972734031,111.76814357759767
1760597015.8328078,3.7660918981099987,0.19472857272142147,1.0461913381250743,0.11939124193901336,-84.88704695883663,-36.17269795765459,107.51420292356399
1760597015.8428166,4.838382601462843,0.20459779037097411,0.9811338534140308,0.13936691305570145,-80.06531559704213,-34.375925872952294,102.5433491838208
1760597015.8528955,5.8559560381379026,0.210104788308043,0.9151056466425305,0.16112892797350298,-74.65441560081045,-32.1540060534894,97.14053023133066
1760597015.8628607,6.816391843526325,0.2125067094438062,0.8519706528219652,0.18273068673433454,-68.76455438077723,-29.482018618369793,91.56897099906215
1760597015.872919,7.719931117213356,0.21293998762911753,0.7945374180642609,0.20228179277525943,-62.51943456133856,-26.37464301428804,86.04701899449152
1760597015.8828144,8.568778328377837,0.21241075507963575,0.7444738680954168,0.21834824290608212,-56.03470643130097,-22.88555220454113,80.73429105109072
1760597015.8928187,9.366407827056765,0.21188103968889013,0.7024235269682612,0.23023381282212652,-49.40137827572984,-19.09672520628653,75.72867753285158
1760597015.9028141,10.116991463874262,0.21239586649949355,0.6682703219135824,0.23806431634128059,-42.678387071229956,-15.098636549353456,71.07331640970857
1760597015.9129055,10.825006643291612,0.21518037971513823,0.6414746756150186,0.24266796724690876,-35.89536614929411,-10.965609303324312,66.77044931017451
1760597015.92282,11.495017526286787,0.22164463403010085,0.621396950041228,0.24531786070676137,-29.063404738656267,-6.732744777716572,62.79774268972648
1760597015.932825,12.131566395575833,0.2332644638731338,0.6075417346934963,0.2474378326553203,-22.189363990134183,-2.3809438245781585,59.12257273380172
1760597015.9428406,12.73908340655914,0.25134785518336455,0.5996898881914146,0.2503572917130464,-15.288906582888321,2.1653549247249284,55.71095066854185
1760597015.9528553,13.321726983636449,0.27673110086544334,0.5979180477574907,0.2551541605082585,-8.3947745110709,7.02624548433766,52.52984320975008
1760597015.9628634,13.883099693162132,0.3094671814927795,0.6025239365178621,0.2625826999687483,-1.5591050890824638,12.342088245724169,49.54393715043984
1760597015.9728475,14.42583544177562,0.3485716472246352,0.6138779694975397,0.27306461267331145,5.149354014960331,18.241247397242162,46.70965660056794
1760597015.9828227,14.951110858093967,0.39188581887261575,0.6322171505309109,0.2867221064088367,11.651024665299781,24.80524218060746,43.96997617867069
1760597015.9928346,15.458182126037864,0.4361051901484396,0.6573999206966484,0.30343481321782734,17.86197277741033,32.036463606177215,41.25316400487288
1760597016.0028236,15.94407295551488,0.4769988727165543,0.6886564143287967,0.32290045598378453,23.6995296983665,39.83262908211309,38.47720286288632
1760597016.0128279,16.403529769102008,0.509814682340573,0.7243902955507157,0.3446770818887152,29.08670366577138,47.97110859781668,35.55971212125253
1760597016.0229154,16.829318370360255,0.5298326854822683,0.7621013991908532,0.36819168624424975,33.95587210591096,56.105485071141146,32.43139134814107
1760597016.0330634,17.212875256863043,0.5330056846068778,0.798490466682995,0.39271547022695086,38.25220143957226,63.776128158010984,29.04993273419571
1760597016.0428967,17.545262540782062,0.5166092784511565,0.8297756671951431,0.4173194151937997,41.936506241335145,70.4357681606517,25.4112108916288
1760597016.0528955,17.818320214187747,0.47981392806888246,0.8522032385557435,0.44082839751336717,44.986686143757936,75.48962504549036,21.55516303502182
1760597016.0628295,18.025869589673363,0.42408646974734326,0.8626836553750682,0.46179277577313105,47.3971841278578,78.34757567935726,17.564786864642674
1760597016.0728247,18.16480015632815,0.3533343898522183,0.8594431184819699,0.4785012383576678,49.17700701865462,78.48371482139291,13.557825194814638
1760597016.082832,18.23587039641061,0.2737307509444634,0.8425622914221814,0.4890601507541742,50.34795031023878,75.49724560842829,9.671794801383669
1760597016.0928218,18.244072095596085,0.19320201511715038,0.8142885354341927,0.49154581540816167,50.94494690463315,69.16832278855162,6.04397376346489
1760597016.1028528,18.19844770303195,0.12061591504842525,0.7790472465264562,0.4842029782685416,51.01963939969595,59.50316517785794,2.7887655573040617
1760597016.1128073,18.111310899357164,0.0647579777735489,0.7431253926511087,0.4656461870765386,50.64670655116711,46.764121243578785,-0.024520699079659054
1760597016.122908,17.996899400272326,0.033223183398417254,0.7140427128660648,0.4350347277471518,49.93078042034066,31.482061292969707,-2.3900672845025945
1760597016.1328368,17.869580556374103,0.0313700338000013,0.6996591326681121,0.39221590498540637,49.01059892626619,14.45002655698542,-4.3767265382676115
1760597016.1428454,17.741821811427737,0.06148416609263429,0.7070955901448959,0.33783829178311275,48.056860420738815,-3.302074848259174,-6.129140397949597
1760597016.1529336,17.622206389249584,0.1222703781662671,0.7415774847522723,0.2734247605144637,47.26128695056885,-20.55207302651212,-7.857195726459041
1760597016.1628206,17.513794070931002,0.20873900047180555,0.8053441048335445,0.20138338918574242,46.81641674994981,-35.9505160607011,-9.814085070529476
1760597016.172818,17.413087553630046,0.3124961748842709,0.8967918827952183,0.12493400434937375,46.888084521915644,-48.10731967642352,-12.26538819924369
1760597016.1828485,17.30977843126366,0.42240472567086257,1.0100251764478143,0.04793292361372986,47.58487508879593,-55.70000440097703,-15.453420200021204
1760597016.1928098,17.187334665978643,0.5255511355661348,1.134973398995391,-0.02541675696723581,48.930681614790906,-57.60012320732875,-19.562174353731212
1760597016.2028124,17.024374259557963,0.6084330526123356,1.2581917521335115,-0.09096769738171538,50.847453720786795,-53.00972901088864,-24.688381121529936
1760597016.2128193,16.79666769190984,0.6582769852256897,1.3643818280172917,-0.14511007308629728,53.15463498698253,-41.594422296219584,-30.823407643697973
1760597016.2228222,16.479541929768104,0.6644013406342264,1.4385389012944554,-0.18526002063727526,55.58911654770173,-23.594669145846595,-37.84882119668126
1760597016.2329085,16.050430287267577,0.6195351838422046,1.4684607172355364,-0.21025699039464263,57.84494983204183,0.10610725998860063,-45.54568498477264
1760597016.242951,15.49132190028837,0.5209744704190638,1.4471712500702434,-0.2205749501793328,59.62659950381639,27.978232167949262,-53.61485660995555
1760597016.2528584,14.790896588074272,0.3714098076535386,1.3746932358511328,-0.21828523232785285,60.70470013635971,57.92425594678482,-61.70372946409709
1760597016.262828,13.946163770963118,0.17921822612937338,1.2586353795324143,-0.206759757221819,60.96082248797244,87.44575891444073,-69.43468444255052
1760597016.2727969,12.963444500293416,-0.04197843646866006,1.1132944390181723,-0.19015298381479925,60.40919989000643,113.88908259860513,-76.43203862967445
1760597016.2828138,11.858552613104534,-0.2745791427800706,0.9573624276725152,-0.1727419388591216,59.18912362153587,134.7420206984385,-82.34668328612946
1760597016.2928073,10.656074369872886,-0.49897898990981343,0.8107331267524129,-0.15824173058641125,57.53010005786824,147.93798146243267,-86.87940395346888
1760597016.3028245,9.387741247246993,-0.6959119751640183,0.6911534839824661,-0.1492403936299421,55.69951234385165,152.1176647841784,-89.80375771776481
1760597016.3128374,8.090028875451967,-0.8486965321879208,0.6114681883321392,-0.14688292376711215,53.94639547423485,146.8038864759229,-90.98738426869777
1760597016.3229442,6.801250305223733,-0.9449893957679638,0.5779848353778646,-0.15086737322101176,52.454113394046814,132.4613432476467,-90.40833088334445
1760597016.332815,5.55849132533643,-0.9778695240788574,0.590155268747012,-0.15972492328006543,51.31060712621671,110.43487681552033,-88.16217304631661
1760597016.342814,4.394734522907624,-0.9462868999725438,0.6414480180379076,-0.17128671423535347,50.49978737930462,82.78091161661096,-84.45694211832145
1760597016.3528085,3.3364512440790404,-0.8550016928038207,0.7210602592472299,-0.18321401258454056,49.9132781946234,52.02215335674701,-79.59533364794734
1760597016.362836,2.4018454503927282,-0.7141022450951325,0.8160210190164298,-0.19347502657800741,49.378537698861116,20.863167511350074,-73.94622105122754
1760597016.372828,1.5998471824792657,-0.5381052139108973,0.9132612577047117,-0.20067656426803757,48.69713671375112,-8.095381285163116,-67.90934657166322
1760597016.382832,0.9298901842634281,-0.34459898361498137,1.001330462270618,-0.20419893178174361,47.68557886997601,-32.61128240734839,-61.877883053789304
1760597016.39285,0.382459516507789,-0.15244806645165443,1.0715776735274807,-0.2041371490798329,46.210815931117494,-50.99972113048838,-56.20345543621659
1760597016.4028604,-0.05965687548428472,0.020275153749582858,1.1187498084682044,-0.2011065406006014,44.21390215487859,-62.26113071620506,-51.167551549454075
1760597016.4128218,-0.4195407437197415,0.15831146000377133,1.141059523502377,-0.1960009137685693,41.71802599848358,-66.13112917422875,-46.962348534292964
1760597016.4228113,-0.7239264646874837,0.250828783914119,1.1398228117869493,-0.18978161793010967,38.82085676155989,-63.05376972971602,-43.682830687749956
1760597016.4328263,-1.000811673799766,0.29237908033026233,1.1187805063553549,-0.18333658414542323,35.674628432458746,-54.08644781456823,-41.33055279741613
1760597016.4428353,-1.277109649253392,0.2831246496885304,1.0832297328758351,-0.17740732555129937,32.45955205906357,-40.75062589535407,-39.82768971631899
1760597016.4528317,-1.5765324685572593,0.22840031472016678,1.039107097637304,-0.172558892802407,29.35657315870701,-24.84688150500587,-39.03858598407464
1760597016.4628341,-1.9178626723723384,0.13774889788779446,0.9921633338056774,-0.16916500632435177,26.52447895032739,-8.255405910556927,-38.795215129565534
1760597016.4728334,-2.313737677326404,0.02359388065637622,0.9473350556932962,-0.16738995609437465,24.084493367605262,7.256421404345712,-38.92278279371167
1760597016.4828365,-2.7700309386517827,-0.10027834658981707,0.9083637260237385,-0.16716247786042354,22.113326489541766,20.199633925494126,-39.26204102786121
1760597016.492908,-3.285863284579771,-0.22025376043752376,0.8776561881914429,-0.16814947461369778,20.643696412106767,29.486786911782406,-39.685622316318174
1760597016.502904,-3.8542200388909222,-0.3242799095652094,0.8563408724136518,-0.16974546043980016,19.670084256247495,34.5025814716777,-40.10674609229853
1760597016.5128405,-4.463093033251239,-0.4029695742627867,0.844454829300111,-0.17109514505844226,19.157141463951692,35.118469796219465,-40.47988196198766
1760597016.52288,-5.097019076902524,-0.45032016427565263,0.8411967839659149,-0.1711623532942933,19.048612969139583,31.654197882062995,-40.79424850048428
1760597016.532954,-5.738850577281057,-0.46400367164846706,0.8451935904936154,-0.16885040886470226,19.275482655249387,24.795077287467375,-41.0622061304904
1760597016.5428627,-6.371570258403293,-0.4452395383885855,0.8547443279668356,-0.1631683833499912,19.76285267087657,15.47825960462866,-41.305417619351886
1760597016.5528424,-6.9799544955549475,-0.39831333023288895,0.8680228698086246,-0.15342481682404685,20.435539159735622,4.763868435028266,-41.541862977135935
1760597016.5628169,-7.551907547403888,-0.3298395301499538,0.8832341171866939,-0.13941769111628946,21.222449888126555,-6.292681917962998,-41.77631950356854
1760597016.5728562,-8.079338007286477,-0.2478845431175536,0.8987300383093715,-0.1215805005036686,22.059675965987392,-16.752375465895504,-41.99588284167288
1760597016.582919,-8.55852245046183,-0.16106636587439502,0.9130976552739156,-0.10104348241571036,22.8921411780809,-25.87671897300302,-42.170803012220006
1760597016.5928028,-8.989979118201362,-0.07773112271121078,0.9252316319059629,-0.07957982055568709,23.67378271091081,-33.1772646354938,-42.25967849913752
1760597016.6028447,-9.377933941453282,-0.005276740282518064,0.934400206645907,-0.0594293945664082,24.366568621229924,-38.42874739040054,-42.217173496826454
1760597016.6128244,-9.729490759666392,0.05034264619700278,0.9403062827300016,-0.04302174199105574,24.93899215655638,-41.649199926053036,-42.00205816258302
1760597016.6228368,-10.053620387035467,0.08493114793952343,0.9431373015466422,-0.03264466920711799,25.36475062699071,-43.05450976911635,-41.583540745790174
1760597016.6328933,-10.36007106871624,0.09620403307300732,0.9435915143978134,-0.03011689552357546,25.621947204844847,-42.99722093935703,-40.94446389342381
1760597016.6428723,-10.658287975056773,0.08380201884656165,0.9428671712693365,-0.036520247519577734,25.692452958751456,-41.89975562559387,-40.08077588408066
1760597016.6528308,-10.956418635299023,0.04918171737852718,0.9426025876421806,-0.05203172134138097,25.560428704537237,-40.19101421847838,-38.99752151750276
1760597016.6629465,-11.26047535655668,-0.004612407735626736,0.9447549158411445,-0.07587337557484192,25.20887752142774,-38.25323322254874,-37.70225119890374
1760597016.6728382,-11.573720510543584,-0.07328998574888275,0.9514066509526096,-0.1063771515771973,24.613669507413725,-36.3837117686721,-36.19716371681306
1760597016.6828635,-11.896328284156473,-0.15175223171682303,0.9644992935455726,-0.14115156591288042,23.735583869120536,-34.77386685895653,-34.47148763180876
1760597016.6928284,-12.225349488284039,-0.2345819719509291,0.9855140436116376,-0.17733776462911355,22.512138908403774,-33.50600994485341,-32.49556409649061
1760597016.702839,-12.554964986057891,-0.3165239641234353,1.015140972602732,-0.21193890924099126,20.851847539923863,-32.56613097946316,-30.217801460987793
1760597016.7128506,-12.87697135030793,-0.39289724594389436,1.052990963245211,-0.24218507777026596,18.63367904296712,-31.86889603310492,-27.56515293860439
1760597016.7228448,-13.181416185513077,-0.4599081827393545,1.0974054322347218,-0.26586694517298776,15.713831571673337,-31.289403877879433,-24.44711557481787
1760597016.732818,-13.45729595039175,-0.514861095190602,1.1454111079588263,-0.2815685077110117,11.940591230713972,-30.69559051394677,-20.762603451401603
1760597016.7428339,-13.693237974078082,-0.5562705497352018,1.1928568425474395,-0.28876712334729304,7.176349022611642,-29.975887640097483,-16.408583149163512
1760597016.7528346,-13.878100088318885,-0.5838666921961284,1.2347569005880217,-0.28781836209816936,1.3240672807632916,-29.058636568741285,-11.289246221110572
1760597016.7628522,-14.001433909924097,-0.5984745999688629,1.2658423976739803,-0.27986139825878914,-5.64602389857043,-27.92212202623454,-5.324802000892158
1760597016.7728252,-14.053776540086332,-0.6017580362132697,1.281281692916387,-0.2666649720843964,-13.6745812424085,-26.5960916492424,1.540443877450358
1760597016.7828248,-14.026764007580354,-0.5958457167386305,1.2774750755081383,-0.2504144224543791,-22.601114451352256,-25.15673764376975,9.330549428090956
1760597016.7928798,-13.913095444660845,-0.5828923488559018,1.2527774589999618,-0.23343568295253334,-32.1654823052959,-23.717270668665503,18.030633262869912
1760597016.8028376,-13.706411833755867,-0.5646548898644038,1.2079821175744654,-0.21786140565533904,-42.02445319636677,-22.415700948343062,27.579824217143834
1760597016.8130472,-13.40117742221609,-0.542175931350061,1.1464288457697702,-0.20526664156669558,-51.78220741607051,-21.400697902627513,37.865062082773726
1760597016.8228493,-12.992657177516222,-0.5156532601413523,1.073677306609449,-0.19633549620258242,-61.03105325007927,-20.8158571888728,48.71694110161804
1760597016.832859,-12.477065512867648,-0.4845364805029198,0.9967826739345443,-0.19065073184335712,-69.39645598837704,-20.7826739543916,59.909165266094604
1760597016.8428578,-11.851920602882922,-0.44783641392289786,0.923294077348104,-0.1866986586125843,-76.57906149146875,-21.383107769818007,71.16321583417603
1760597016.8528152,-11.116581051683056,-0.40457657391903584,0.8601496418613224,-0.18213203405727119,-82.38619818653655,-22.64363533520229,82.1594783263476
1760597016.8628216,-10.272879850813526,-0.3542754729382192,0.8126616746731302,-0.1742447853471835,-86.74688684670835,-24.52359509837624,92.55530250795516
1760597016.872883,-9.325721920185938,-0.29733681091666914,0.7837708414717999,-0.1605336127216824,-89.70777055953982,-26.910811608261653,102.0092565664538
1760597016.8828583,-8.283492295209944,-0.23524600557766556,0.7736983429608246,-0.13920313069673027,-91.41169273152727,-29.626727153034466,110.2093491304113
1760597016.8928454,-7.158139945627219,-0.17052023532524382,0.7800481525204288,-0.10950975473629321,-92.06424424721722,-32.44187427715571,116.90163176833559
1760597016.9028454,-5.964855034412839,-0.10642210775100483,0.7983260981917598,-0.07189273468369008,-91.8953535047235,-35.10082189329384,121.91481376432716
1760597016.9128456,-4.7213345542548995,-0.04650519966264853,0.8227678959365183,-0.027889266143370898,-91.12300234116272,-37.35379285758755,125.17661059608936
1760597016.9228363,-3.4467139143332375,0.005907043115536148,0.8473142124702531,0.02012192034660319,-89.92489471123264,-38.990245122102245,126.71861369972325
1760597016.9328728,-2.160307151153977,0.04820633425110388,0.866543539889241,0.06927150549748338,-88.42157660015896,-39.868504517843085,126.66844027482603
1760597016.942863,-0.8803292251504437,0.07886659636930196,0.8763850559232007,0.11656866716771964,-86.67155412111383,-39.93563102392566,125.23041304888976
1760597016.9528027,0.377232759900334,0.09764048980551372,0.8744947395609377,0.15923576614639348,-84.67645333042067,-39.233206723912545,122.65831379277459
1760597016.9628272,1.5994685052073392,0.10556453491813214,0.8602754760020856,0.19497904265162078,-82.3931600742719,-37.887350059822644,119.22511173083649
1760597016.9728262,2.7770356884386524,0.1047842378748799,0.8346141445232425,0.22217811848692998,-79.75012240622114,-36.08438963015703,115.19463558144992
1760597016.9828358,3.9042732574310883,0.09823974170288399,0.7994580744661076,0.23998456619119993,-76.66568202948247,-34.03647177320272,110.79912082692137
1760597016.9928257,4.978968582356149,0.08927137796231349,0.7573539449200571,0.24832931647447273,-73.06660591163477,-31.943218592371664,106.22492644502701
1760597017.0028937,6.0018479148670005,0.08120908167451937,0.7110422930686321,0.2478513688569479,-68.90481727539535,-29.95609266637448,101.60695152067413
1760597017.0128443,6.975879581094433,0.07700247336394535,0.6631604490664089,0.23977267706321587,-64.17008310518257,-28.15146426865521,97.03070236164345
1760597017.0228653,7.905482467757549,0.07893431023684384,0.6160689313974407,0.22575154601957345,-58.89651508074393,-26.516765729949082,92.53979504022604
1760597017.0328257,8.795723019558006,0.08844331283957046,0.5717883294193583,0.20774563979966612,-53.161402857129325,-24.951782667454264,88.14611974946385
1760597017.0428574,9.651568559883302,0.10606684998680617,0.5320188046948032,0.1879039463728676,-47.07616379304569,-23.284373201047135,83.84004645631114
1760597017.0528667,10.47724844170651,0.1314993154920836,0.49821150845863704,0.1684869397295092,-40.770849140484636,-21.297268520003055,79.59885467187772
1760597017.0628402,11.275758358327383,0.16374428863188023,0.4716638196932013,0.1517939830611257,-34.375154737287254,-18.760827592767217,75.3927129257963
1760597017.072827,12.048526386586149,0.20131962319580887,0.45360898830333485,0.14006862322832828,-27.999630803069458,-15.466261779502668,71.18852231256093
1760597017.0828233,12.795244303724282,0.24246535229105362,0.44526267636282213,0.1353625012558973,-21.720550866841503,-11.254887597356305,66.95241283606421
1760597017.0928273,13.513858394197541,0.28531244374895437,0.44778404228193075,0.1393608538683698,-15.571001162911307,-6.0407426557361665,62.651657046546056
1760597017.1028917,14.200710547587699,0.3279915804582931,0.4621217339479631,0.15319227331578517,-9.539679189620605,0.17443594900243697,58.25650564781806
1760597017.1128445,14.850818876700036,0.36868518614585705,0.48874896799793033,0.17725351385751564,-3.577874040464377,7.293802697147287,53.74218542082589
1760597017.1228788,15.458283218185754,0.4056447809637671,0.527335807351281,0.21107977055559088,2.385923399549309,15.125015537766728,49.091134537712044
1760597017.1328468,16.01679343266647,0.43720406070334944,0.5764425958381905,0.253288889194261,8.42541179904994,23.386210500123205,44.295501232805655
1760597017.1431012,16.52020945589907,0.46181492339836927,0.6333300639977902,0.30162558740298673,14.592481922220594,31.717788068973675,39.35993849896669
1760597017.1528618,16.963175253573638,0.4781241629741209,0.6939646562565789,0.3531244847222694,20.89315219009885,39.6996665300893,34.30467119725596
1760597017.1629303,17.341725659616152,0.48509829588520276,0.7532628972149695,0.40439261987251074,27.267273596368266,46.87372803440038,29.1685976475029
1760597017.1729012,17.65384273518579,0.4821925609944769,0.8055795204854149,0.4519800637247771,33.57630575669343,52.77086485426461,24.011807952912548
1760597017.18288,17.899912908842353,0.4695441085400005,0.8454039490772272,0.49276964071205576,39.60362101194612,56.941379539936726,18.91645750374528
1760597017.1928294,18.08302779213995,0.4481504299215044,0.8681870444678798,0.5242972524798265,45.070816471687635,58.98693458484552,13.984641853988302
1760597017.2028537,18.20906542201917,0.41998079286623513,0.8711809648102781,0.5449310758647254,49.67075054567235,58.59217076477459,9.332035885803876
1760597017.2128322,18.286492156522964,0.38797018568534736,0.8541526007343547,0.5538797738595691,53.113945741731726,55.55443053872734,5.076713030405486
1760597017.2228758,18.325843926419626,0.35586383099406493,0.8198341681036965,0.5510423105637025,55.18112698799879,49.810347001815984,1.3236269360892297
1760597017.2328491,18.338879663284036,0.32790694717507785,0.7740012043835514,0.5367509997925515,55.772404612778296,41.45819902053779,-1.8535691765830566
1760597017.2429483,18.337445443411287,0.30839785586384333,0.7251115137252813,0.5114990855603718,54.94345701233538,30.7749411707885,-4.430655239804488
1760597017.2528548,18.332138647600257,0.3011408410687248,0.6834950726849465,0.4757611558914653,52.920769714751295,18.22665220217147,-6.4475828743763515
1760597017.2628696,18.330909904059776,0.3088539848156799,0.6601508790538155,0.4299786872840968,50.09102456749273,4.470638859333696,-8.016446206143003
1760597017.272898,18.337777800299737,0.3326053313917402,0.6652707941939684,0.3747067600660513,46.963580320752484,-9.653415866389446,-9.319987165265603
1760597017.2828596,18.351844916549336,0.3713565592653116,0.7066606611240023,0.31084903747713116,44.109250041193455,-23.146771149243218,-10.59924645461844
1760597017.2928557,18.36678080706483,0.42168071835541554,0.788262509848387,0.23987867751711162,42.082899115282494,-34.893453753624485,-12.130752757749637
1760597017.3030837,18.37087456828578,0.47770088363558016,0.9089985243286807,0.16395373605783872,41.341103376962515,-43.72433575114923,-14.195660697753967
1760597017.3128548,18.347670647466664,0.5312874525917627,1.0621524793365533,0.08587411727344177,42.16824508846854,-48.50559111772009,-17.04509374998094
1760597017.3228424,18.277115681312992,0.5725576557469526,1.2354708114849353,0.008878676390897107,44.624176890523835,-48.25026687311718,-20.867030945754617
1760597017.3328397,18.13709089251037,0.5907255760793112,1.4121011448541219,-0.0636703063383534,48.52376569575835,-42.24646007032823,-25.759849600267952
1760597017.3428335,17.905195382079356,0.5753247113919633,1.5723919120579009,-0.12863938843814093,53.45369996261627,-30.189105097878496,-31.71598368889331
1760597017.352876,17.560666119694513,0.5177452386658502,1.6964479660878884,-0.18344046607922657,58.825798994894015,-12.296038130992255,-38.61668180586351
1760597017.3628428,17.086341290525176,0.4129062261856029,1.767162823048186,-0.2262707494356002,63.959827160250335,10.615239509997933,-46.23669758997467
1760597017.3728154,16.470571469045254,0.260765935983413,1.7732411461413056,-0.25627315717054705,68.18357673724951,37.11386934795092,-54.25686378149988
1760597017.3828413,15.708952281595144,0.06731206465276987,1.711558638500767,-0.27363015235428295,70.93448407177168,65.22352460353666,-62.28294850554625
1760597017.3928275,14.805703189154338,-0.15530099974034073,1.5881979223126859,-0.2795855541387093,71.8457368841907,92.57918198440741,-69.87028210472492
1760597017.4028385,13.77447040328177,-0.38967727556230036,1.4177336364877418,-0.2763534186542447,70.80132087785027,116.6638223985494,-76.55459169023605
1760597017.412831,12.638316630967013,-0.6151587770669819,1.2207955895120255,-0.2668628938385556,67.9493937943201,135.09785257373852,-81.88966065253894
1760597017.4230545,11.428709274409965,-0.8105770921524114,1.0204591605763411,-0.2543300205029625,63.67135400299045,145.93873792416784,-85.49121019233115
1760597017.4328334,10.183451035188355,-0.9572496171293987,0.8383659984941861,-0.2417222169441345,58.51291484525852,147.94095965619033,-87.0834603465179
1760597017.4428523,8.943692937668304,-1.041597349192216,0.691501004600801,-0.2312436492497529,53.090833351444054,140.73004191221156,-86.54107634877971
1760597017.4528692,7.750368505728405,-1.0568809375282762,0.590258035589194,-0.2239871696899943,47.99309655227204,124.85915837463683,-83.91688936998565
1760597017.4629157,6.64051936426588,-1.0038235030310356,0.5379784136410211,-0.2198612361304252,43.69087237913445,101.73916406296846,-79.44690862405761
1760597017.4729385,5.644008023927295,-0.8901622682049767,0.5317341058461723,-0.21781904300907345,40.477423077890364,73.45639941937968,-73.52875904039256
1760597017.4829395,4.781039296416477,-0.7293373375118792,0.5638881496513537,-0.2163190718266417,38.44295683495584,42.51117307263594,-66.675888688696
1760597017.4928405,4.060773907230219,-0.538584080452877,0.6239425228025621,-0.21386551398399226,37.48637040125768,11.520275974298025,-59.45528091394595
1760597017.5028746,3.4811539693917566,-0.3367112675777842,0.7003137872542784,-0.20944937710128927,37.35709429780762,-17.071336758493537,-52.41940841887728
1760597017.5128393,3.0298908725596494,-0.14187051456504987,0.7818369053825238,-0.20275959446775638,37.71497683471365,-41.23084584051966,-46.043546422109316
1760597017.5228755,2.6864051251161354,0.030361553634379902,0.8589078322802246,-0.194138812872993,38.194640017671496,-59.503751642501946,-40.67792806538548
1760597017.5328424,2.4243806792102514,0.16831536552465767,0.9242355834293733,-0.1843602959734163,38.462767856056786,-71.09578867719804,-36.521194385459765
1760597017.5428522,2.2145401319449327,0.2648407335977804,0.9732103684019656,-0.17434755870929575,38.26084350636579,-75.87516520260057,-33.617592441107384
1760597017.5528626,2.0272833845736287,0.3172517162674443,1.0039176776756604,-0.16493988808249466,37.43022902919224,-74.30974881359603,-31.876029345513782
1760597017.5628798,1.8349446252071562,0.32680380175813784,1.0168474604508402,-0.15675390838865916,35.920048537557534,-67.35802608195775,-31.1053278514936
1760597017.573037,1.6135614118408175,0.29794652213758144,1.0143731067846309,-0.15013930817250273,33.78060309293657,-56.33223415219554,-31.057749160093124
1760597017.5828667,1.3441600264869802,0.23753430854358398,1.0001028350133185,-0.14519863730771695,31.14602501433013,-42.7492291061645,-31.47251590028996
1760597017.5928457,1.01361134844471,0.15407463884035807,0.9782180596598726,-0.14183898395533343,28.209971103173668,-28.181489323928435,-32.11252177337706
1760597017.6028466,0.615103527420528,0.05701340664962256,0.9528970926835637,-0.13983278966481452,25.197874224482526,-14.118325583700122,-32.78996545849101
1760597017.6128507,0.14823901860079813,-0.04396676483515905,0.9278835513210831,-0.1388721178539305,22.338927064221554,-1.8460416324425335,-33.379423229178364
1760597017.6228383,-0.38127010148554036,-0.13963994071648164,0.9062141406521398,-0.13860442208427715,19.84059260574021,7.645101375677524,-33.81917834059122
1760597017.632837,-0.9623347794388956,-0.22189169853588953,0.8900864349255441,-0.13864356393054936,17.867937004209917,13.720604384730642,-34.1031052968529
1760597017.6429718,-1.5796349363909092,-0.2842795104135484,0.8808313785089038,-0.1385587036277642,16.52940386172135,16.124128347448305,-34.266074948465786
1760597017.652927,-2.2150988176627453,-0.32243987308626915,0.8789548677664784,-0.13785329147131373,15.869819875623673,14.962262353574648,-34.365965749496866
1760597017.662859,-2.849574807721958,-0.3343026918428014,0.8842201747921411,-0.13595387501225925,15.870545775829438,10.655546935657242,-34.46522910630511
1760597017.6728787,-3.464520559686191,-0.32010427882877285,0.8957517747183715,-0.13222987588211718,16.45590738331936,3.8634021058670656,-34.61467726492555
1760597017.68297,-4.043535169291474,-0.28221892518597097,0.9121494669357152,-0.12605750162202786,17.504481904092028,-4.606764855191991,-34.84167248994292
1760597017.6929092,-4.5735928046990715,-0.22484633807030996,0.9316098190072253,-0.11692554810292835,18.86352715687502,-13.894876104837971,-35.14411548951206
1760597017.7028763,-5.0458907514132845,-0.15359731687743203,0.9520588523121609,-0.1045650932499803,20.36481493411977,-23.176973523028707,-35.490616221231754
1760597017.712914,-5.456287077435627,-0.07501724102010755,0.9713031220957906,-0.08907502782783054,21.84032183264088,-31.73839141159307,-35.826176157000546
1760597017.7228498,-5.805356808198135,0.003919269619854398,0.9872044120497772,-0.07101271119733012,23.136557876216827,-39.02516560686747,-36.081837685414705
1760597017.7328749,-6.098127115455308,0.07631678380202202,0.9978767072626633,-0.05142338841159154,24.126630445317016,-44.67102987079986,-36.18621185230864
1760597017.7430515,-6.3435566026098575,0.1358523066387659,1.001894858238536,-0.03179292529525092,24.719312384240173,-48.50076659035301,-36.076642533006
1760597017.7528644,-6.553807292944377,0.17723815954563624,0.9984943433391753,-0.01392349931828989,24.86440233933846,-50.513490980479844,-35.70800286111264
1760597017.7628632,-6.743334508821768,0.19663304040042467,0.9877326769133848,0.00025440025472125885,24.553693659322985,-50.851334577226844,-35.057691245683685
1760597017.7729602,-6.92780540783523,0.19196565864022352,0.9705789805156712,0.008910861543476476,23.817127019546817,-49.759827449294214,-34.12618416480493
1760597017.7828498,-7.122862354730346,0.1631248109247768,0.9489040890913133,0.010553649120142911,22.714279736250184,-47.54612730807154,-32.93334939850662
1760597017.7930224,-7.342773582927222,0.11197616657939792,0.9253599796071091,0.004228498620785573,21.322084683042323,-44.54034150875797,-31.51145286787717
1760597017.8029144,-7.599052467881555,0.042190811547891185,0.9031567505029112,-0.01036345691485862,19.72028530233538,-41.063835668875846,-29.89627416781298
1760597017.8129566,-7.8991661137482385,-0.0410985337573193,0.8857587911186842,-0.03285181500700142,17.976432151957848,-37.406859311145205,-28.117935218081588
1760597017.8229098,-8.245483151473728,-0.1317745335969902,0.8765278034798745,-0.06226612437657741,16.132216077360603,-33.816160296269125,-26.192975520243326
1760597017.832852,-8.63462148000351,-0.22329615424040858,0.8783433762574707,-0.09713998026385356,14.19272662229062,-30.49159812305791,-24.118936977662855
1760597017.8429818,-9.057341994658273,-0.3092935439212865,0.8932341192995935,-0.13560203705608448,12.119933591092849,-27.589317889608772,-21.87229016535488
1760597017.8529413,-9.49908723278565,-0.38414893219039953,0.9220536770127803,-0.17542659534652272,9.83136997888731,-25.2281304281615,-19.409947286593912
1760597017.8629394,-9.941179972078292,-0.4435150939918209,0.9642382542304935,-0.2140467419089403,7.204638665125839,-23.495631405220212,-16.673900695984443
1760597017.87292,-10.362579551093916,-0.48472020107529756,1.0176886054435463,-0.24856798568308136,4.087936090433597,-22.451409274515726,-13.597863974247668
1760597017.882964,-10.741962086975468,-0.5070070996393062,1.0788249546829773,-0.2758488185705082,0.31623640310342965,-22.12633786434162,-10.114442830585062
1760597017.89299,-11.05978660196044,-0.5115618188783613,1.1428517071563729,-0.29271292311554853,-4.267947073709999,-22.518967354263587,-6.161508765560269
1760597017.9028559,-11.299984854168436,-0.5013050724521658,1.204227291953032,-0.29631066036634546,-9.791206047416487,-23.591642320424132,-1.687025541304407
1760597017.9129283,-11.450992935466717,-0.4804509922056376,1.25727524263027,-0.284575889912655,-16.32615155867685,-25.26947923696292,3.347688963378484
1760597017.922869,-11.505997850300169,-0.4538733659970488,1.2968282054934914,-0.25667221672337215,-23.87196351710446,-27.444535299561892,8.96571611663502
1760597017.932857,-11.462441607826712,-0.42635573381340486,1.318789902476393,-0.21331497818143183,-32.34176772239583,-29.985782545130064,15.17257259306294
1760597017.942987,-11.320960202072403,-0.4018336476911352,1.3205282235047282,-0.15688303547499077,-41.559169460316895,-32.75352729382025,21.95401727160162
1760597017.9528973,-11.084015699291196,-0.3827573614616453,1.301058312138954,-0.09127847540326185,-51.26495156678684,-35.615317736711965,29.273553787301125
1760597017.9628952,-10.754506835429108,-0.36970042964793315,1.2610218133080664,-0.02153975415263483,-61.13349153964884,-38.459641009629564,37.069942828220576
1760597017.972862,-10.334624799119949,-0.36130774964094836,1.2025069523339127,0.0467433269433302,-70.79712743639321,-41.204085336107546,45.25520195404618
1760597017.982875,-9.825164897939711,-0.35461635166477473,1.128777415344632,0.10813210642098368,-79.87561945773406,-43.796077432608804,53.71348288572008
1760597017.9928648,-9.22541913560112,-0.3457014318752,1.0439819997099316,0.1580589018589085,-88.00707343085779,-46.20637489080744,62.30103020009136
1760597018.0029109,-8.533667965632729,-0.33051730318437395,0.9528983072268802,0.19345605601483115,-94.87636930990838,-48.41749572339977,70.84740949944596
1760597018.0128512,-7.7481757820917405,-0.30574803628381053,0.8607225971225262,0.2131879035579968,-100.2375125305557,-50.41048578218662,79.15848510137165
1760597018.022881,-6.868494351528504,-0.26948216188391977,0.7728672705308935,0.2181952728568938,-103.92752977756092,-52.153474467729545,87.0220294860327
1760597018.0331037,-5.8968117221542675,-0.22158234818955302,0.6946954836501804,0.21130164535358895,-105.87129547082971,-53.594539265255385,94.21692874600706
1760597018.042862,-4.839064378168515,-0.16370760917323934,0.6311337783850895,0.1966969322558563,-106.07827085003441,-54.660117712445626,100.52639073954897
1760597018.0528848,-3.7055616189516356,-0.09902490925742438,0.5861555636504545,0.17919476877995666,-104.6328858249233,-55.25910690166427,105.75443765184944
1760597018.062925,-2.510951109938398,-0.031695545549284436,0.5621976304659345,0.16342231315201072,-101.68022670703115,-55.29193341512039,109.74370478318464
1760597018.072897,-1.2734765830930959,0.03376204727377994,0.5596437615060188,0.1531167782284691,-97.4085009391028,-54.66305478821418,112.39169352499621
1760597018.082869,-0.013625822783959697,0.09313450409510346,0.576565972756469,0.1506593471785845,-92.03001340846015,-53.29455634363388,113.66248155098769
1760597018.0928721,1.2475973271186396,0.14310942429742618,0.6088961822081594,0.15689691625599567,-85.76293811150799,-51.13804993465856,113.59151163997151
1760597018.1028483,2.4904673381077163,0.18171947992408743,0.651057639488907,0.17122453712857427,-78.81625862409442,-48.18236119038586,112.28224583629293
1760597018.1129587,3.6980982146399723,0.20856221766887983,0.6968828521385031,0.19185493754009683,-71.37941822370752,-44.45561100036631,109.89488578721631
1760597018.122869,4.857550301662,0.22475533226543604,0.7405379037046184,0.21619293607406018,-63.616903850659,-40.021837260851754,106.62872767392179
1760597018.1329024,5.960366683972049,0.23263826665255025,0.7772300843208275,0.2412483372840572,-55.6670921542181,-34.97354408057181,102.70076476375554
1760597018.1428711,7.002523979046487,0.235283523044611,0.8036148548593616,0.26403913732617906,-47.64454595528609,-29.42203433815825,98.32367975035578
1760597018.1528525,7.98386560659645,0.23591561540807235,0.8179276330728853,0.2819479175878512,-39.64503334013299,-23.4871855040753,93.68631305720476
1760597018.162914,8.907147447612465,0.2373465593650714,0.8199090856636442,0.2930019773788158,-31.752253213095177,-17.28794309270492,88.93909457422656
1760597018.1728463,9.776864758565422,0.24152976977555216,0.8105936417413864,0.29605495948193883,-24.04467343768974,-10.934549202778905,84.18594771610609
1760597018.1828756,10.598044063254177,0.2493118933639066,0.7920189051605668,0.2908553120847,-16.60055382543511,-4.523275401539664,79.48305470662704
1760597018.192868,11.375172660622528,0.26042193784884815,0.7669001228766023,0.2779990458921258,-9.49948805010608,1.8660771058145273,74.84381675221127
1760597018.2028794,12.11140107323044,0.27368261194052573,0.7383017309969121,0.2587820731333188,-2.8196562791310673,8.170336598985857,70.24849445708927
1760597018.2128806,12.808095488456068,0.2873756967190539,0.7093297849336972,0.23498405214784507,3.3687561154344814,14.341647909716457,65.65648454240569
1760597018.2229104,13.464750479122886,0.2996622380183643,0.6828638603891473,0.20862448084559526,9.012212814172626,20.34542867571218,61.01904882257168
1760597018.2328868,14.079213089438934,0.30896108746457496,0.6613402302673357,0.18173346995732034,14.081975145403712,26.157760072510808,56.29055780502858
1760597018.2429302,14.64812999584477,0.31421862890563884,0.6465892575540609,0.15617604024603637,18.579228163948063,31.761781970883845,51.436880204665464
1760597018.2528648,15.167513569328555,0.315039201708896,0.6397239863116686,0.13355722567960857,22.535524721472576,37.142430543643556,46.4403257873329
1760597018.262914,15.63332702570896,0.31167595937869924,0.6410771526148417,0.1152139018104613,26.008060497017745,42.279129750546204,41.30135363100752
1760597018.272849,16.04200754416678,0.30490340045713177,0.6501888946755718,0.1022728574085833,29.070306644057027,47.136722921591,36.03789212230172
1760597018.2829132,16.390873209702644,0.2958078849455912,0.6658536816679599,0.0957328301400675,31.799199525729385,51.65571630368546,30.68344443134993
1760597018.2928817,16.67838972822794,0.28554255464524797,0.6862368553570605,0.0965213419936032,34.260491582606896,55.743491327248755,25.285120083648234
1760597018.3028808,16.904301940608484,0.2750978862044771,0.7090637593305908,0.1054891289294318,36.494121978050636,59.26837506524199,19.902363679341146
1760597018.3129945,17.06965893861179,0.2651360867794065,0.7318704313649252,0.12332708122033899,38.50163867461632,62.058304932824626,14.60656843873668
1760597018.322875,17.176774620460687,0.2559229986559935,0.7522929707104974,0.1504114445152197,40.23788111378579,63.90523698539911,9.481144916796364
1760597018.3329139,17.229163180717922,0.2473646173773209,0.768365149011796,0.1866040790112822,41.609323331524934,64.57546727213287,4.621119749801443
1760597018.3428736,17.23147210092353,0.2391248601492494,0.778783767358276,0.23106026172202426,42.4813123820011,63.82497407870551,0.13110324059922562
1760597018.3529804,17.1894120686262,0.23078219744874032,0.7830887872007513,0.28211222299163574,42.69531517878813,61.41818472200774,-3.8793668370132726
1760597018.3629014,17.109665029773296,0.22198498575463066,0.7817077613242488,0.33727943931763255,42.0951511291645,57.14839913342472,-7.303478104689132
1760597018.3730998,16.99974439964551,0.21258222557167555,0.7758478628506211,0.39340842033606066,40.55885639462491,50.85828311591219,-10.047286442710677
1760597018.3828843,16.867784923476236,0.2027230497073654,0.7672709992844948,0.4468970167815615,38.03123536246013,42.459158390693425,-12.041059032895623
1760597018.392867,16.722251565564335,0.192927191023683,0.7580221937867849,0.493943867291164,34.55158736419825,31.948209735389483,-13.250112197852392
1760597018.4028919,16.571574936839983,0.18413110650037728,0.7501784702889892,0.5307875860864396,30.271345100361234,19.423167938867852,-13.683438408479816
1760597018.4128585,16.423740488001776,0.1777106885335396,0.7456577413429961,0.5539379382269668,25.457279969213225,5.094368624655977,-13.398729220431123
1760597018.4229023,16.285872826430023,0.17547140362999747,0.7460981162103014,0.5604227044503081,20.477595228218533,-10.70584196074946,-12.502912545455715
1760597018.4328728,16.163859066954906,0.1795853370591357,0.7527999436724302,0.5480688002119942,15.770719320234152,-27.516674415502315,-11.147971404710969
1760597018.4428954,16.06204424858382,0.1924495533797606,0.7667166616979868,0.5158121191977114,11.799693284552436,-44.74640827311212,-9.522510178710718
1760597018.4528599,15.983010956655104,0.2164452255618612,0.7884810777929138,0.46399864886228986,8.998057524335604,-61.6757743120806,-7.840080351868372
1760597018.4628754,15.927433245696037,0.25359267733741964,0.8184537140927576,0.3946104407610042,7.7152729380043965,-77.4701968645388,-6.325452504749955
1760597018.4728708,15.89398308844743,0.3051222328860862,0.8567736863761425,0.31133499578451057,8.170345955886871,-91.20454847367616,-5.199801519594894
1760597018.482876,15.879272441405583,0.37100783531347375,0.9033794869893118,0.21940186067157796,10.421132123752495,-101.90364795217465,-4.665387620744681
1760597018.492868,15.877832121270803,0.44953096505266715,0.9579551627505644,0.12513999310686374,14.353832011277385,-108.59993029734947,-4.890124386305207
1760597018.502878,15.882149149433129,0.5369538306725861,1.0197647284778777,0.03527244825089345,19.6932617072683,-110.40693023612323,-5.992705679448282
1760597018.512886,15.882795951928848,0.6273846930121947,1.0873779700691746,-0.04394444241496306,26.030967512215366,-106.60420144314143,-8.029702759349945
1760597018.52288,15.868681851462071,0.71291205240642,1.158353733727888,-0.10755602045408419,32.866245297618065,-96.72658837920639,-10.986857259417611
1760597018.5328555,15.827440884260461,0.7840626197952317,1.2290008920442448,-0.15253153981200004,39.654719775608854,-80.64859089046776,-14.77711595169653
1760597018.542871,15.745947479042762,0.8305982446081722,1.2943536388070587,-0.17805374791999548,45.85970581159002,-58.653117314450405,-19.24735862572764
1760597018.5528812,15.610932554925183,0.8426130497637265,1.3484658811609622,-0.18545154568794717,51.00235956755428,-31.473577200932937,-24.194245309201076
1760597018.5628684,15.409664128324936,0.8118326787464378,1.3850574692163065,-0.1778334652171724,54.707108255785634,-0.299308562964137,-29.387549089003556
1760597018.5729382,15.130659816585778,0.732964039762618,1.3984550880790887,-0.15952867360220807,56.73889438872727,33.26319222962075,-34.59733223435462
1760597018.5828695,14.764409011978808,0.6049051530719736,1.3846841551387399,-0.1354537940935711,57.02864863746372,67.27694141929231,-39.61994756947607
1760597018.5928652,14.304090904981333,0.4316022355588784,1.3424938036979812,-0.11050478994782706,55.683492954921185,99.6076356840209,-44.29762199749029
1760597018.6028962,13.746270066499756,0.22233542398949868,1.274049721268,-0.08904066775652604,52.97873605519618,128.09563340931587,-48.52761825611214
1760597018.6128657,13.091527024334296,-0.00875630668840249,1.1850491888127779,-0.07449546689581735,49.3300689448045,150.75198459538404,-52.259527003961566
1760597018.6228733,12.3449426907988,-0.24399989016798723,1.0841324364887344,-0.06913062752770127,45.24689831059166,165.9569532137428,-55.482416674715125
1760597018.6328926,11.51632390962366,-0.46426389779023114,0.9816599454448874,-0.0739203681877497,41.27132037360121,172.63491649610768,-58.206284515596266
1760597018.6429296,10.62005961589754,-0.6514592163837494,0.8881169597268217,-0.08855229074223714,37.910640454353604,170.37931423047138,-60.44344294877574
1760597018.6529434,9.67454517874806,-0.7909703648106725,0.8125118023958173,-0.11152956168658616,35.573062163830144,159.50662304606155,-62.19468443577374
1760597018.6629643,8.701192066378303,-0.8735043206138406,0.7611159949279948,-0.14037573700590758,34.515629557511225,141.0285427249073,-63.44281464102997
1760597018.672954,7.723120713338727,-0.8959975625740105,0.7367741381951731,-0.17195054532298995,34.81136853328298,116.54447694795178,-64.15358145855264
1760597018.6829455,6.763689868334817,-0.8614861116831695,0.7388507329879926,-0.20286711101720367,36.33989285496634,88.06912996941671,-64.28219864571516
1760597018.692927,5.845031795567992,-0.7781033765108333,0.7637358992369143,-0.22996420101969753,38.803065793934934,57.82006460302122,-63.783009771413894
1760597018.7028751,4.986737178112905,-0.6575302187874762,0.8057316131827841,-0.2507561882262042,41.7645236507658,27.995402147896183,-62.62016624085702
1760597018.7128787,4.204777051853273,-0.513255362364096,0.8580956604222624,-0.26377472629515974,44.7086775293859,0.5714173286819402,-60.77792071250927
1760597018.7229252,3.5106849659571195,-0.3589496303934227,0.9140341038392016,-0.2687295903168797,47.111399175608554,-22.85611097513353,-58.269675796316015
1760597018.7328901,2.9109764195880503,-0.20716629227878905,0.9674935413668796,-0.2664497375252561,48.51189259189687,-41.172656835019936,-55.145025812329614
1760597018.7429023,2.4067690555887187,-0.06848052454010681,1.0136850350547717,-0.2586170331641829,48.574476811501484,-53.78481322861092,-51.49386222870771
1760597018.752919,1.9935871789491997,0.04892299247428598,1.049340941028234,-0.24736073444714912,47.13079694140845,-60.60612248867331,-47.446538480373746
1760597018.76288,1.6613805773728758,0.13931044618801833,1.0727464575259422,-0.23481730898606798,44.19684131850061,-62.001926370458186,-43.169302271946556
1760597018.7729418,1.3948440107585531,0.19927765188386218,1.083604233167294,-0.22276029940252368,39.96373918281556,-58.7077316672972,-38.85466751307172
1760597018.7828736,1.1741602915483293,0.22761087776816025,1.0827945026966168,-0.21237100672692133,34.765409253683806,-51.733157810704355,-34.707076673836404
1760597018.7929137,0.9762729454933039,0.225198821075539,1.0720853469947234,-0.20417179807962238,29.02921583948621,-42.25967601778505,-30.9251463152428
1760597018.8029234,0.7767105237465313,0.19495279432839632,1.053827249370945,-0.1981010218180913,23.21780892898323,-31.537428876369297,-27.6828386798329
1760597018.8128674,0.551851524898355,0.14164352498976115,1.0306486104910348,-0.19368347911440012,17.771080501003723,-20.785339604922612,-25.112551398832057
1760597018.8229156,0.28137391295473235,0.07158678657533349,1.0051695550797715,-0.1902437807488631,13.056387622656533,-11.099047812814822,-23.29293927511224
1760597018.832979,-0.04947809831295456,-0.007838246612757394,0.979761874240824,-0.18711548415607904,9.333055362171207,-3.37206262227221,-22.243371010662127
1760597018.842874,-0.4482066368385564,-0.08880615060513769,0.9563834112201903,-0.18380926974720738,6.734344969579473,1.7639701473216032,-21.925677596667107
1760597018.8529246,-0.9142671512309843,-0.16372897015083912,0.9364998287264236,-0.1801141658759207,5.267214439528385,3.9745435691836395,-22.25255421936616
1760597018.863046,-1.4393123533197079,-0.22591801288094962,0.9210853730992113,-0.17611604069197664,4.827714273355684,3.2296340480770453,-23.10082721189517
1760597018.872878,-2.008414932659572,-0.27014042281571776,0.910678061633653,-0.1721296530371772,5.228009824233275,-0.2174942509750904,-24.32707164236218
1760597018.882871,-2.602042387736128,-0.293010494406903,0.905458640539741,-0.16855848352620362,6.229961798789156,-5.877404621522908,-25.78300673570296
1760597018.8928835,-3.198450104008879,-0.29318207035715377,0.9053266682166943,-0.1657187779093599,7.579945838004393,-13.091907116940511,-27.328656316368114
1760597018.902879,-3.776119532875973,-0.2713313217874359,0.9099576235123922,-0.16367971396229777,9.040086557990117,-21.11383857006082,-28.842109099133967
1760597018.9128847,-4.315899013249224,-0.2299425262483011,0.9188365609198096,-0.16216910513503685,10.412225003063428,-29.18992370361249,-30.225508391102906
1760597018.9230309,-4.802599553384953,-0.17293513244499972,0.9312723584333972,-0.16057378960315774,11.552531001952993,-36.63733711245643,-31.407498107704356
1760597018.932874,-5.225931866864591,-0.10519219571013995,0.9464009258665594,-0.15803587802270472,12.3763864325591,-42.90577489900063,-32.34276129675106
1760597018.9429166,-5.580805188783558,-0.032060157173846124,0.9631868921293394,-0.15361992842674244,12.854672982335968,-47.61909055849053,-33.00952227889488
1760597018.952944,-5.867108566391949,0.041114271154507616,0.9804331300755967,-0.1465072606740078,13.00368433957741,-50.59343223944126,-33.40591773222563
1760597018.9629357,-6.089145073328866,0.10935998607426173,0.9968078060579174,-0.13616732268568413,12.871446889072283,-51.83190907608968,-33.54597942611803
1760597018.9730644,-6.254889921639104,0.16834389223328655,1.0108995708329003,-0.12246714873942446,12.523253282659008,-51.498738136432536,-33.4556921585299
1760597018.982911,-6.375206236021235,0.21452148390063588,1.0213104681152443,-0.1057054382181658,12.028760075983325,-49.87824229533354,-33.16930900332513
1760597018.9928784,-6.463093532243689,0.24520158578911752,1.0267900384379154,-0.08658471245699417,11.452233001376014,-47.325661486538245,-32.72590314338071
1760597019.0029683,-6.532981369357464,0.2585639047455863,1.0264026919599398,-0.06614902834023406,10.846626263548636,-44.21720742594694,-32.166038819536716
1760597019.0128946,-6.60003034764956,0.2536660246159399,1.0197070169411542,-0.04571000437499787,10.251318445735206,-40.9059863432016,-31.52844515801139
1760597019.0229,-6.6793774629727,0.23046223145739184,1.0069153900202743,-0.026767942646995616,9.692632537036795,-37.68852755166009,-30.846649356550934
1760597019.032881,-6.785271499343253,0.18983470817978992,0.9889991813385847,-0.010922603331666853,9.185840014953017,-34.784228727994204,-30.145640194185912
1760597019.042896,-6.930087923750768,0.13361398875572622,0.9677093674001882,0.00023305060405040304,8.737242407867168,-32.32772020097902,-29.438770225248277
1760597019.0528846,-7.123281181260655,0.06454850630088621,0.9454916529051507,0.005239288259501539,8.345141719275523,-30.37247067497174,-28.725244349015366
1760597019.0629604,-7.370403268073793,-0.01381810392759176,0.9252875356305966,0.002917784750913152,7.999000562835511,-28.903109838205314,-27.9886292818912
1760597019.0728931,-7.672362831854967,-0.09738374740338679,0.9102296261200485,-0.007460804089795548,7.676770726358888,-27.853797546099955,-27.19677712767457
1760597019.0828757,-8.025093646274483,-0.1818247039418479,0.9032618198358893,-0.026006599850037355,7.3411391808643165,-27.13016808901504,-26.303363005455804
1760597019.0928879,-8.41973672256315,-0.26298173616018644,0.9067373279218449,-0.052075755227191704,6.936137608508848,-26.632554986958965,-25.250970480109885
1760597019.102887,-8.84333775319247,-0.33722605996764377,0.9220590170911991,-0.08421986729101978,6.385913061204033,-26.278168845278415,-23.975444101144312
1760597019.112883,-9.279963895356682,-0.4017441971427821,0.9494187441166639,-0.12025372061971316,5.5971926966097545,-26.01970724139806,-22.411117867706857
1760597019.1228836,-9.712084508857906,-0.45470590518186643,0.9876695896500587,-0.15744411771699865,4.466037907215484,-25.85776019564883,-20.496463536648342
1760597019.1328912,-10.122042320912982,-0.49530464808734453,1.0343422082187412,-0.19279411411734307,2.88816724395383,-25.84466276879168,-18.179605833106255
1760597019.1428878,-10.493447763546364,-0.5236796722499699,1.0858059891649718,-0.22337973683372928,0.7709699730677037,-26.07839112908097,-15.423034765413455
1760597019.1528962,-10.812345801643307,-0.5407449523231257,1.1375743716377744,-0.24668665848422405,-1.9551986348183048,-26.686704643894704,-12.206816410222808
1760597019.1629095,-11.068030781538639,-0.5479614949675543,1.1847466495312131,-0.2608918785430104,-5.328592036226986,-27.803683840392523,-8.52977500555577
1760597019.1728828,-11.253428622206812,-0.5470913360117868,1.2225553024000726,-0.2650437703925715,-9.351781821996669,-29.542581233636444,-4.4085075071721445
1760597019.182914,-11.365029226669991,-0.5399641910256356,1.2469545989445467,-0.2591121164954836,-13.991610622088817,-31.970005296858357,0.1254147353245447
1760597019.1930714,-11.402422501750442,-0.5282761520441603,1.2551613631445142,-0.24390258009885724,-19.182490651534412,-35.08658493715777,5.029288699227075
1760597019.2029314,-11.367548661990156,-0.5134301240307857,1.2460559791980175,-0.22085241933739655,-24.831592435646,-38.81827235009277,10.253211713011321
1760597019.2129385,-11.263804530817065,-0.49642368849507984,1.2203713795684095,-0.19174372367162235,-30.82443541862572,-43.0204136449799,15.74322869929941
1760597019.2229378,-11.095150925922168,-0.4777909212332484,1.1806336144486962,-0.15838671378058408,-37.02979503307136,-47.49404454928665,21.443133323104625
1760597019.2328842,-10.86534701292637,-0.4576057046948918,1.1308618913035704,-0.12233756657022257,-43.30351870493805,-52.011226766186745,27.294825908561087
1760597019.2428935,-10.577402995265807,-0.43555113149271657,1.0760769200710114,-0.08471685584939893,-49.49155985724583,-56.3443572633107,33.237588238646836
1760597019.2528942,-10.233300933959924,-0.4110517365759363,1.0216911423313382,-0.04617690416688603,-55.433006762921686,-60.29377182616505,39.20688106314564
1760597019.2629027,-9.833992309774318,-0.38345342332813553,0.9728595150551129,-0.007026174708708228,-60.96391696799935,-63.70873892604985,45.133209433166925
1760597019.2729018,-9.379644372060723,-0.3522221103573999,0.9338634100431786,0.03253278791193441,-65.922421380283,-66.49877800287106,50.94135079116922
1760597019.2828906,-8.870076730753073,-0.3171216522891545,0.9075940872566121,0.0721374343281175,-70.15508699691885,-68.63451306286768,56.55002666858917
1760597019.2928636,-8.305306780541722,-0.2783320701791747,0.8952001446108784,0.11107190211465927,-73.5241853017177,-70.13931192048737,61.87206396971215
1760597019.3029299,-7.686110858243464,-0.23648325099393724,0.8959588395692509,0.14822853143223896,-75.915389023287,-71.07429913191872,66.81522687025983
1760597019.3128748,-7.014510166581548,-0.19260082140915913,0.9074124139013888,0.182254056417063,-77.24539032489474,-71.51984675335011,71.28408422704995
1760597019.3228838,-6.294106060871577,-0.14798060090001813,0.9257711996655696,0.21183340167430814,-77.46882023830858,-71.5565178092815,75.1833320853155
1760597019.333147,-5.530215555480377,-0.1040208659678291,0.9465313391261242,0.23599819189603177,-76.58360162746268,-71.24798205968231,78.42279253886281
1760597019.3429155,-4.729790556090378,-0.06204663621694457,0.9652013144175173,0.2543383553174195,-74.6336332532916,-70.62790573159432,80.92390365115003
1760597019.3528864,-3.901137351147336,-0.023157231967376474,0.977995318980439,0.267050352923564,-71.70773456578817,-69.69231909684939,82.62706488551237
1760597019.3630605,-3.0534801098772433,0.011880997474529283,0.9823513289271695,0.27483084062860336,-67.93421411198293,-68.39845577840833,83.49885074274223
1760597019.3729062,-2.1964295653711194,0.042686622705655854,0.9771801243470271,0.2786736670844883,-63.471150363217035,-66.67046634438488,83.53793202415773
1760597019.382919,-1.3394241022371616,0.0692605485165115,0.9628341472304575,0.2796392137878119,-58.49331921115454,-64.4115949392909,82.77860093619587
1760597019.392981,-0.4912054247070229,0.09193823458132434,0.9408591547776035,0.2786500311839944,-53.177562541588394,-61.52129156313153,81.29108218667606
1760597019.4030051,0.3406213809888222,0.11130938159288103,0.9136214169370265,0.27634293602457394,-47.68899959348002,-57.91460727781307,79.17823336462999
1760597019.4129384,1.1499066900727382,0.12811425961059478,0.8838904179623379,0.27299214611673633,-42.17036349573367,-53.54065510216338,76.56868156490715
1760597019.4229524,1.9321276214598133,0.1431206463630743,0.8544305410643254,0.2685142495470386,-36.73578446217309,-48.397175843394905,73.60689087481131
1760597019.432901,2.6843955560267654,0.1569863342875772,0.8276395901148841,0.26255961579354264,-31.46909532786698,-42.539035502437024,70.4411253752956
1760597019.4429598,3.4052992702413496,0.17012167169986755,0.8052695184668823,0.2546757796482352,-26.42583723739445,-36.079415196181074,67.21067159267737
1760597019.452929,4.094605430126824,0.18258010032120064,0.7882623531059864,0.2445051169798593,-21.637713627223818,-29.183452228296527,64.03384972073968
1760597019.4629307,4.752863418799321,0.19401407751282562,0.7767212207883424,0.23196698501738292,-17.118106342391545,-22.05517826075775,60.99822333543789
1760597019.4729207,5.380982197834294,0.20372991004631635,0.7700135306017268,0.21737867845189934,-12.867380087364584,-14.919604793777047,58.154104716961186
1760597019.4829016,5.979855061144746,0.2108526631202084,0.7669796035487051,0.20148538455413936,-8.87709647499493,-8.002436409586217,55.512049418926864
1760597019.4929729,6.550098394811403,0.21457694158577142,0.7662030065898063,0.18539048890935844,-5.132829905374457,-1.5100272421521275,53.044571312627404
1760597019.502918,7.091943317456715,0.21444589007181633,0.7662912061038326,0.1704000417434075,-1.6157880875451023,4.388029628266259,50.69179641333361
1760597019.5129201,7.605280901991925,0.21058395658324944,0.7661171336796815,0.1578149793230519,1.6962838264614677,9.571672687196477,48.370267650999075
1760597019.5231056,8.08982312567414,0.20381570602091426,0.7649832103307985,0.14871660215092178,4.828419083561373,13.976977870976238,45.98372123086189
1760597019.532903,8.54531381203273,0.19563067272415902,0.7626869193841006,0.1437915207473819,7.807636996794176,17.595742625195015,43.434482034697965
1760597019.5429432,8.971714268575612,0.18799281693558817,0.7594874342143259,0.14323272391209085,10.661941335002798,20.468085476562532,40.634217946625206
1760597019.552973,9.369298968425591,0.1830303306452857,0.7559920585950123,0.14673691060942615,13.419135106707635,22.669131768344283,37.51310915248012
1760597019.5629215,9.738623941883326,0.18266821493755986,0.7529951931660468,0.15359801067858445,16.10539125969213,24.29185281979457,34.026905165918606
1760597019.5728967,10.080367475630958,0.18827717538254812,0.7513079475561951,0.16287630781671808,18.743257114693204,25.428846479271197,30.161722461231168
1760597019.582938,10.39508077835895,0.20040673403092235,0.7516123322062757,0.17360653009879237,21.348536799378337,26.1560329307922,25.936697477637406
1760597019.5929716,10.68291726440328,0.21865138975472195,0.754361618481969,0.1850015318675074,23.92555322218071,26.520752343626704,21.404727351060885
1760597019.6029816,10.94342580725044,0.2416722586413936,0.759731986720872,0.19661130417215888,26.46081776654926,26.535681987076536,16.651491416192016
1760597019.612941,11.175490123379129,0.26736892106950233,0.7676162503603374,0.2084046874218547,28.916108058533865,26.178639351978624,11.79276180363187
1760597019.6229277,11.377470896384022,0.2931719998159424,0.7776438096051441,0.22074929536894608,31.223035455987166,25.397131163834345,6.969774104009709
1760597019.6328928,11.547561293464302,0.3164086096820785,0.7892135095013885,0.2342786268503892,33.28173984923314,24.11589359427125,2.34229447430846
1760597019.6429029,11.684308785183124,0.3346816998052654,0.8015352171368308,0.2496597783786091,34.965815143900485,22.245884422778317,-1.9208899316467256
1760597019.6529503,11.787204303307043,0.34620423686222807,0.8136868494438706,0.267303624441152,36.134025004489246,19.693984849570835,-5.6539759181614135
1760597019.6629121,11.857213749075429,0.35004116514276584,0.8246996147911918,0.2870808569966811,36.64763518595555,16.37339720604723,-8.70799328769313
1760597019.6728895,11.897134449667957,0.34622955536047284,0.8336801796843494,0.30812059786094975,36.3911092052601,12.214878459511056,-10.965217076970843
1760597019.6828942,11.91169246070963,0.33576591471420797,0.8399659225483729,0.32876740943560484,35.29362860322732,7.178575516296686,-12.352413573024908
1760597019.692973,11.90734345173725,0.32047225900354426,0.8432947810509042,0.34673962490839677,33.34896602236291,1.2657629031778004,-12.851113852673448
1760597019.7030563,11.891790976474827,0.302776089468673,0.8439586874609716,0.3594694492599931,30.631238478457703,-5.47038637248721,-12.503416147028569
1760597019.7129786,11.87328229187818,0.28545040034840735,0.8429011882593617,0.36454822423089006,27.30391503339299,-12.915679960996084,-11.412383971129413
1760597019.722951,11.85977483168598,0.27135171749282067,0.841719247548402,0.36017809835305,23.619358121322172,-20.887825540633084,-9.736797388936608
1760597019.7329066,11.85808234510356,0.26317633728868417,0.8425402820289358,0.34554249386180536,19.906488291794208,-29.131666470562323,-7.680717566332751
1760597019.7429051,11.873111289121331,0.26323983437689,0.8477682506534561,0.3210344167837008,16.545188174321968,-37.31716510304908,-5.478891849062438
1760597019.752974,11.907287613957578,0.2732744350968917,0.8597231755244933,0.2883073708866361,13.927977744873926,-45.04097155494535,-3.3793251140222518
1760597019.7629414,11.960248060963911,0.29422975680498276,0.8802292718670286,0.2501303935904392,12.412245849629826,-51.83309932258899,-1.6243931039421922
1760597019.7729862,12.028825964476386,0.32606079829750323,0.9102273715085145,0.2100440122605165,12.269395614308484,-57.17108448359024,-0.431836381693734
1760597019.7829206,12.107308600692424,0.3675050911958668,0.9494891883174778,0.17184554947275135,13.639573705696874,-60.50451341038995,0.02301708302536023
1760597019.79293,12.18789987434202,0.41588688035249777,0.9964941246280903,0.13898491489585535,16.50101189970521,-61.29222856466899,-0.37761722030580575
1760597019.8029115,12.261302620105427,0.4670203731297477,1.0485000276230512,0.11400256776094371,20.660853906012626,-59.05251663174869,-1.6829751224892082
1760597019.8129325,12.317340813438928,0.5152972722741405,1.1018030522354618,0.09815232273865133,25.7701416710856,-53.42349776387865,-3.8682858017046384
1760597019.8228924,12.345566270731654,0.5540300241979127,1.1521430123574035,0.0913032163618917,31.36075079840424,-44.2275690930228,-6.835987258353601
1760597019.8329444,12.33582600069947,0.5760832449674734,1.1951800527199001,0.09212707136556239,36.89814468877993,-31.530976201047302,-10.424117474055869
1760597019.8430052,12.27879329140753,0.5747645379154134,1.2269627296094923,0.09849722914032057,41.841915445421066,-15.688088292802739,-14.421421696557768
1760597019.8529904,12.166477853649889,0.5448711739621741,1.2443331393655537,0.10797693109547912,45.70611898770641,2.6398510122001815,-18.587592198358212
1760597019.8629332,11.992723783633393,0.48372151735953134,1.2452530985453394,0.11826077103421208,48.11256078277665,22.499714395921142,-22.676155390654102
1760597019.872925,11.753682519903302,0.3919645635922472,1.2290530776065696,0.1274501048571042,48.83165352153525,42.69971212163286,-26.45720061492878
1760597019.8829525,11.448220424248904,0.2739709914395725,1.1965881319573122,0.13410718221865434,47.806896315116376,61.90015081815455,-29.737456474875586
1760597019.8931296,11.078196286162335,0.1376632098355035,1.150256214367155,0.13713140557333311,45.16046463857317,78.73492406293299,-32.37594522689444
1760597019.9029307,10.648530004231565,-0.006266417903373663,1.093830317079469,0.13557990319580937,41.179113669642604,91.95084440108768,-34.29431290971412
1760597019.912909,10.166987097291399,-0.14567918971702143,1.0320880800802767,0.12856248967148878,36.28177332156196,100.54717831168573,-35.48168135684797
