timestamp,angle,linear_acceleration_x,linear_acceleration_y,linear_acceleration_z,angular_velocity_x,angular_velocity_y,angular_velocity_z
1760958990.4246979,-5.108386867569221,0.05283314276164523,0.9896212777564833,-0.19188702514881115,10.633735696157657,-8.004570063152809,21.128183408478538
1760958990.4346638,-4.62793097335776,0.05822188133122974,0.9839333056877804,-0.19138536316910582,10.471550250562434,-6.2607481806275285,22.19346491198091
1760958990.44462,-4.167279175667543,0.05324455944707427,0.97585777853397,-0.18943715995466853,9.90698093368076,-3.723123017377496,22.651660780461572
1760958990.4546318,-3.7466959738886114,0.038810151233098666,0.965460145947518,-0.18538132723707035,8.98909118567163,-0.578253322741604,22.533484474029667
1760958990.4649284,-3.3818588800653675,0.016633905011305943,0.9530895447253052,-0.1788675518642163,7.791992122683794,2.9334028801796546,21.918668065359338
1760958990.4750018,-3.0828890900576043,-0.010976558467661535,0.9394025816125421,-0.1699589979769647,6.407232524872233,6.541670048339181,20.923770254721763
1760958990.4848316,-2.8539980192289685,-0.04137751528538804,0.9253381876633321,-0.1591699282771216,4.935088788275373,9.973324322548182,19.68714476459017
1760958990.4946086,-2.6937201013814636,-0.07185807458189127,0.9120348675554873,-0.14742408978162966,3.4754205228140926,12.978211890689677,18.352953875985207
1760958990.5047576,-2.595642952486786,-0.09989560404907159,0.9006922464775676,-0.13593210228889266,2.1188231683653638,15.352022157282736,17.056090976060467
1760958990.5147326,-2.5495028329358895,-0.12337502511425606,0.8923934512240066,-0.12600249039170064,0.93884425018924,16.95349001276139,15.909617862353482
1760958990.524613,-2.542488397036546,-0.1407516174733691,0.8879219248004557,-0.11882016275652316,-0.013999339136878446,17.714560601902406,14.995873832497416
1760958990.5347025,-2.560590344628125,-0.1511394797773945,0.8876195406996182,-0.11524241436869795,-0.7157639513724544,17.642919705408357,14.361861236965991
1760958990.5446763,-2.5898489628050174,-0.15431468904616188,0.8913288979355471,-0.11566346927621256,-1.1697112579943867,16.817200979885836,14.01896052158756
1760958990.554901,-2.617384102108504,-0.15063688582387735,0.8984343818617889,-0.11997606024853161,-1.403837361211487,15.375988264683784,13.94655284971173
1760958990.5645783,-2.632138805463032,-0.14091223553816648,0.9079801065169879,-0.12762427183594494,-1.4655365791070267,13.502278898650342,14.098750132883538
1760958990.5745656,-2.625320577775083,-0.12623430265700966,0.918824178101382,-0.1377186335649247,-1.4141559297361197,11.405302648659434,14.41314796683031
1760958990.5846503,-2.5905722194415635,-0.10783951340855966,0.929794073915727,-0.14918103629084317,-1.3126177779653616,9.301561782049477,14.820349043320274
1760958990.5946763,-2.5239375936147264,-0.08700210178516195,0.9398228372192708,-0.16089420230088924,-1.2194426424727531,7.396761299830775,15.252996868417192
1760958990.604801,-2.4237014784262705,-0.06497680712354718,0.9480571234850619,-0.17183760829886624,-1.1823520026252017,5.869977867404994,15.653237482492273
1760958990.6146302,-2.2901766105865393,-0.04298219598988507,0.95393348962227,-0.1811963553070788,-1.2342492020509368,4.86099771580198,15.977868392238925
1760958990.624589,-2.125489302356664,-0.022206588766948178,0.9572212609429411,-0.18843341164029664,-1.3918901900860228,4.461306822986228,16.20086883689899
1760958990.6346989,-1.9333845352939396,-0.0038134692939805334,0.9580312773651378,-0.19332056832463448,-1.6570823307202518,4.708837694353442,16.313441892687553
1760958990.6446202,-1.7190398269164404,0.011076067427132708,0.9567909410570701,-0.19592904938171046,-2.0198668414630383,5.5863294301298,16.32205747701163
1760958990.6547036,-1.4888513004756867,0.0214405272727221,0.9541874271985412,-0.1965854694756737,-2.4628844397260976,7.023053459711911,16.245215064808043
1760958990.6646657,-1.2501411665154756,0.02646161377325869,0.9510826852117754,-0.1958017329823375,-2.966007448523561,8.899675193323683,16.10972060056038
1760958990.6746035,-1.0107386087738282,0.025667537030434038,0.9484062513206298,-0.19418891094184823,-3.510348589978259,11.056110122838552,15.947190216511068
1760958990.6846185,-0.7784097480964037,0.019093956829872017,0.9470353078394078,-0.1923659759528641,-4.080919231843816,13.302302932986617,15.791272945415136
1760958990.6947427,-0.560155372677483,0.007426520714399912,0.9476755710475989,-0.19087469916045222,-4.667485958491854,15.431808146843757,15.675769717270363
1760958990.7047722,-0.3614462576328388,-0.00791794043425577,0.9507597929262006,-0.19011141965628264,-5.26352710352499,17.23782242618683,15.633487848569708
1760958990.7147315,-0.185506754533435,-0.024809754169636874,0.956380390331196,-0.19028392381368717,-5.863562942278298,18.530939087772907,15.695398393670029
1760958990.7245839,-0.032772685503941267,-0.04054663284589304,0.9642675299485549,-0.1913969781865662,-6.459454731645956,19.157456282037874,15.889534965053706
1760958990.7345767,0.09936421336897291,-0.05211635795117499,0.97381532598909,-0.19326427271297697,-7.036493638117152,19.016671794314142,16.239118203334908
1760958990.7446039,0.21645024472352373,-0.056559864070863025,0.9841504236604703,-0.19553989065177207,-7.570232359528714,18.075324596810496,16.75959115082153
1760958990.754658,0.3264795554919644,-0.05139197399708582,0.9942326930149419,-0.19776053226072884,-8.025055333916626,16.377264600916078,17.454555885957696
1760958990.7647963,0.4390562059249462,-0.035021306817992356,1.0029782243769163,-0.1993908763257907,-8.355391352319126,14.04658241093035,18.310942371698978
1760958990.7749686,0.5642988601416659,-0.0071040715776327255,1.0093982366983,-0.19986810739923233,-8.510166752012745,11.28281121368079,19.294046272903792
1760958990.784745,0.711616686545919,0.03123016072221313,1.0127489258042206,-0.1986461614049539,-8.440546470550666,8.347429186719959,20.343291696266675
1760958990.7946243,0.8885033251408508,0.07733182838138632,1.0126820554359754,-0.19524294649081736,-8.110280262224611,5.541777768284212,21.36968645987993
1760958990.8045802,1.0994949816904596,0.12719892925927764,1.0093744562903393,-0.18929208698633238,-7.507227012353244,3.1776922758595822,22.255945396341463
1760958990.8148787,1.3454189497081044,0.1758704278897528,1.0036017149065024,-0.18059404519419295,-6.654096128650654,1.543532218934015,22.860164020553164
1760958990.8245687,1.6230209748555526,0.218025079409933,0.9967135970729893,-0.16915284625077845,-5.616296246520814,0.869628447398014,23.02370030656567
1760958990.8346155,1.925012003364875,0.24872757533765524,0.9904732279080432,-0.15518008990435705,-4.505013782705117,1.2980370467131719,22.583502555926724
1760958990.8447747,2.240528645597534,0.26422371024927016,0.986747491764959,-0.1390529535976093,-3.474109244764101,2.861575394519648,21.3884597029164
1760958990.8548677,2.5559609036471067,0.2626444506479875,0.9870868779591578,-0.12122885205030536,-2.7100239862826747,5.476269060325444,19.318468665950792
1760958990.8647695,2.856061652321975,0.24444967425162584,0.9922959144618007,-0.10214195722994408,-2.414704202114945,8.949571369536757,16.303908202624545
1760958990.8747478,3.125216283426279,0.2124625228406686,1.0021333003323454,-0.0821249872016624,-2.782703194724788,13.004207322266295,12.34228100513124
1760958990.88473,3.34872853327585,0.17143867587618197,1.0152547014647506,-0.06139891773931501,-3.975084083092663,17.314683906012654,7.508323054540209
1760958990.894802,3.5139800388001268,0.1272474477244365,1.0294241360456222,-0.04014656589412329,-6.094119039523869,21.551069138721047,1.9543660227621424
1760958990.9048357,3.611345664730245,0.08584409322630554,1.041928255494662,-0.018644364102912793,-9.1633930168984,25.42318157492148,-4.100640528472926
1760958990.9147243,3.634781258453768,0.05224802444230491,1.0500875808297507,0.0026073189840871928,-13.117293848676752,28.71813877519061,-10.39269218448322
1760958990.924726,3.582031102810242,0.02972197661966027,1.0517687130739912,0.022822670056157856,-17.802184070705714,31.32525292446777,-16.64182125758971
1760958990.9347146,3.45443060123475,0.01929722009840957,1.0458158053648108,0.040980480472364994,-22.989456188730355,33.24432505749878,-22.584077521338873
1760958990.9446127,3.2563244688862523,0.01972259222818961,1.0323160001667224,0.05598228476365518,-28.39867366826514,34.5761668715405,-28.001210791105652
1760958990.9549162,2.994190025328443,0.027835374970971428,1.0126255271377165,0.06687230158469284,-33.727249801307096,35.49721519651988,-32.74332819223857
1760958990.9647472,2.675624484344146,0.039268999588809306,0.9891418433653201,0.0730539216650843,-38.68184824267037,36.22278905463432,-36.741051583840054
1760958990.9746616,2.3083869075854495,0.049345268980803325,0.9648842506401627,0.07444318539334774,-43.00639264995389,36.9652915197797,-40.00547764600148
1760958990.9846354,1.8996635960097568,0.053967525990917135,0.9429896239780327,0.07152015769917718,-46.502538647266114,37.894187936792726,-42.61625260077396
1760958990.994553,1.455661798107144,0.05034335172337921,0.9262278092011667,0.06526712146491324,-49.04037678168374,39.10398467262823,-44.70001626830884
1760958991.0046146,0.9815539359376662,0.037412479310429,0.9166141341598198,0.057012004903880975,-50.55927962160529,40.59499611126739,-46.403076510463755
1760958991.0145414,0.48171480692902374,0.01592197170458747,0.9151658263680376,0.04821756915724489,-51.06052995873298,42.269725459054136,-47.86317343088042
1760958991.024579,-0.03986537233816776,-0.011838157177250045,0.9218226387254246,0.040264556024850164,-50.59436769687771,43.94539260461805,-49.185301075229496
1760958991.0347002,-0.5791362042029147,-0.04256179775101145,0.9355283498373413,0.034269915534972155,-49.24439610092967,45.380692025631994,-50.42563548044387
1760958991.0445552,-1.1316444891510944,-0.07259407011996766,0.9544469106612858,0.030965389234650774,-47.11209745224377,46.312556504844956,-51.58585808167345
1760958991.054568,-1.6923870351670522,-0.0986019403258068,0.9762666160059534,0.030645764663110923,-44.30374819679336,46.49698008435181,-52.618041178054604
1760958991.0646675,-2.2558976384548513,-0.11812874012584165,0.9985333230390716,0.033185267206534266,-40.921411210782104,45.74722916283789,-53.43832734257466
1760958991.0746071,-2.816554443953875,-0.1299532173987483,1.0189547537572372,0.038112846353445626,-37.05890041174548,43.96323457628773,-53.946295436650054
1760958991.0845954,-3.3690513290137187,-0.1342176257373634,1.0356324435543913,0.04472847184004006,-32.802636611211454,41.14750411526971,-54.04632568071567
1760958991.0945761,-3.9089463086988863,-0.13232639281029002,1.0472000402949526,0.052234527793181496,-28.23626827308904,37.40519826486934,-53.667389439836015
1760958991.1045272,-4.433183100201311,-0.1266478029524387,1.0528686667795748,0.05985477464396325,-23.44708959820687,32.92867657207387,-52.77831058163546
1760958991.1146705,-4.940481932234941,-0.1200780233471757,1.0523963686562778,0.06692053757441606,-18.531919401564608,27.969443000034012,-51.396476619306135
1760958991.1247106,-5.431514019462441,-0.11554643963828648,1.0460069170616735,0.07291628189492147,-13.60032629266948,22.8025342135712,-49.58904642741182
1760958991.1348796,-5.908808971774651,-0.11554762375173559,1.0342838084763268,0.07748906010981706,-8.773831076475492,17.689544362326767,-47.466769096795595
1760958991.1450226,-6.376390182379902,-0.12177489927067629,1.0180605176931279,0.08043449604473463,-4.180771874146405,12.846402251365696,-45.171500375127856
1760958991.1548762,-6.83918148679503,-0.13490565389766743,0.9983208985195439,0.08167444851658906,0.05241281419992658,8.420764654335887,-42.85930744184315
1760958991.1647098,-7.30227004136506,-0.15455696142778919,0.9761167285057385,0.08123873235958202,3.811911657828685,4.481805840875015,-40.68161967846718
1760958991.1746292,-7.770138823603367,-0.17940143144363024,0.9525046598229967,0.07925661486322608,7.007293390468712,1.022814615546257,-38.76714883203365
1760958991.1847253,-8.24599413586105,-0.20741387013274548,0.9285028149476173,0.0759555303867602,9.580322593897098,-2.0250831844236314,-37.20721941036355
1760958991.194885,-8.731306334126119,-0.23620839206497346,0.9050661791814864,0.0716587791946049,11.510286890398177,-4.771222854921478,-36.0467071329087
1760958991.2045715,-9.225651729819802,-0.2634172570432361,0.8830766395483586,0.06677425824488321,12.81494071633838,-7.339606141588581,-35.28201654001183
1760958991.2147944,-9.726889102553073,-0.28705436134738577,0.863337656847526,0.06177056690085054,13.546896809391448,-9.842993030053126,-34.866504423427386
1760958991.2246656,-10.23163466052372,-0.30580349007647284,0.8465603957303686,0.05714034882259534,13.786003157723773,-12.360476474199457,-34.722571879501174
1760958991.2346377,-10.735935337595636,-0.3191823824743264,0.8333337848267178,0.053352572800826066,13.62890574462378,-14.921473379975142,-34.75849069881665
1760958991.2447908,-11.23600503078183,-0.32755981066395207,0.8240839770200544,0.05079857540811002,13.177509880845328,-17.49822919608668,-34.887165746945364
1760958991.254815,-11.728892840248363,-0.3320356484720687,0.8190392924878285,0.049741516827974515,12.528220933642089,-20.007912404732735,-35.04368792781212
1760958991.2646472,-12.212988536787314,-0.33422045552040497,0.8182162337878263,0.05028115940446135,11.763560877332399,-22.324160183829026,-35.198771790152826
1760958991.2747343,-12.688318209939922,-0.3359630116282726,0.8214314070465226,0.052341915763593067,10.94712379357655,-24.296643931359217,-35.36590522870034
1760958991.2848592,-13.156624040324811,-0.3390713299508133,0.8283315730952747,0.055684020156613445,10.122095964391152,-25.77607337911864,-35.60107292568804
1760958991.2948093,-13.621247435926225,-0.345060255833069,0.8384267986394343,0.05993112312469239,9.31294663675274,-26.641268735595588,-35.995029346994066
1760958991.3046112,-14.086844281138127,-0.3549440251999935,0.8511117846911347,0.06460583249742974,8.529507698177733,-26.82461688406077,-36.65910406721652
1760958991.3147612,-14.558960666568469,-0.3690817644681547,0.8656669151511068,0.06916669003464303,7.772524709589944,-26.33236170166339,-37.70630537792685
1760958991.324897,-15.04349446435445,-0.3870804004856667,0.8812404359687747,0.0730433538442791,7.0398269247901135,-25.256653782931544,-39.230001609385255
1760958991.334611,-15.546066886949287,-0.40776033169648807,0.8968220447840608,0.07566995741167848,6.332423605278739,-23.77702315724804,-41.282706266413896
1760958991.3446085,-16.07133124779622,-0.42919144350552796,0.9112235855774073,0.07651935877455708,5.659982616851455,-22.149924705520917,-43.85751111126261
1760958991.3546677,-16.622256752448337,-0.4488096210862202,0.9230846244587768,0.07514268567695322,5.045234919872247,-20.68624939065934,-46.87456003949825
1760958991.3648753,-17.199444652832394,-0.4636246351042818,0.9309182152871613,0.07121779042929106,4.526872503140474,-19.718162797213896,-50.174677826928765
1760958991.374718,-17.80055759349321,-0.4705240016275921,0.9332028263582767,0.0646059671320442,4.1604835644858325,-19.558196630239948,-53.52184254521169
1760958991.384708,-18.419959906635288,-0.4666608263703132,0.9285128670375979,0.05540977834357419,4.017040300468303,-20.454972792565524,-56.61553471484286
1760958991.3946946,-19.048666140782906,-0.4498907103228884,0.9156712930625804,0.0440193231006286,4.178499330401306,-22.551078384978855,-59.11302424489711
1760958991.4047523,-19.674671465241573,-0.4192024938535512,0.893908856112781,0.031133070141881623,4.730254360942383,-25.84924550231643,-60.660383539658255
1760958991.4147854,-20.28369204411952,-0.37507554804900545,0.8630196383764681,0.017743389837671552,5.750488338796788,-30.192888838589607,-60.92960952899414
1760958991.4247863,-20.860282703131144,-0.3196913543345963,0.8235002615570227,0.005082838279882496,7.296876556534758,-35.26593840651329,-59.65794809632824
1760958991.4347758,-21.389232508682465,-0.2569288759011099,0.7766488523777164,-0.005469939626283607,9.391636877096426,-40.61460654323484,-56.68454635691512
1760958991.4449096,-21.857077472749552,-0.1920911551624932,0.7245920883132008,-0.012525683083124035,12.006727182846767,-45.69042359351517,-51.97906617633421
1760958991.4546905,-22.25352797039163,-0.13135747755307373,0.6702180864769214,-0.014857215588148617,15.052043779125691,-49.91018517176839,-45.65713341057947
1760958991.4647722,-22.572601955432656,-0.0810255418981216,0.6170162315352786,-0.011590276933360635,18.37036614703292,-52.72523350870023,-37.9788317707923
1760958991.4748466,-22.813290998570576,-0.04666983382577181,0.5688426793201844,-0.00237592880020886,21.742756204018185,-53.69046467017251,-29.32894824735915
1760958991.484829,-22.979656340407413,-0.032365004465239086,0.5296296128452116,0.012498765926869795,24.9065719125774,-52.52300854075407,-20.180765143784992
1760958991.494862,-23.080335579561613,-0.04010363942782101,0.5030500266151329,0.03209491459144785,27.585352919242794,-49.14179749504352,-11.047940874366075
1760958991.5049183,-23.127514281804864,-0.06949431331619861,0.49216297053956193,0.05491083141440029,29.52647300748972,-43.68209684161931,-2.430807701146496
1760958991.5147998,-23.13546877958014,-0.11777528506810461,0.4990985962840784,0.07905869928739874,30.539793459422867,-36.48305393378071,5.235815464270021
1760958991.524718,-23.11882630862729,-0.18013250953241736,0.5248593249397318,0.10249053154366396,30.529549485435954,-28.050623545237368,11.626275442906843
1760958991.534765,-23.090738456210605,-0.2502748726212862,0.5692731156558554,0.12322940992358929,29.51276714036882,-19.001865514175996,16.553117330566657
1760958991.5448153,-23.061225154717178,-0.32119319014223224,0.6310558485605062,0.1395728682074489,27.62030380670655,-9.998832560485262,19.97735782372392
1760958991.5547938,-23.03598101619397,-0.38600468442677704,0.7078899502169098,0.15025226999053068,25.080200048759487,-1.6808766096649932,21.998757252630543
1760958991.564717,-23.01589256592804,-0.43876167558143864,0.7964481928855532,0.1545414007978588,22.186400413711265,5.3965186406842225,22.828231102564807
1760958991.5748692,-22.997375386888642,-0.4750964203530296,0.8923663561133026,0.15230648026289653,19.258368979419426,10.80989511525137,22.74770250254761
1760958991.5849226,-22.97344048104022,-0.4925993034269804,0.990247193412747,0.1439885470498592,16.59844421619276,14.298631041316339,22.064917829490224
1760958991.5947428,-22.935215484171156,-0.49088574929673756,1.083819814113052,0.13051630866329128,14.453952694292795,15.776479416896606,21.07144853328185
1760958991.6047215,-22.873552148025873,-0.4713786915704791,1.1663628262967893,0.11315952089605227,12.990198108170615,15.32443818655438,20.011030886123265
1760958991.614666,-22.780374762571995,-0.4368895798272383,1.2314259260409037,0.09334157056355973,12.27852606346557,13.168001568120273,19.062788699660246
1760958991.6245837,-22.649539365116976,-0.39110310458804826,1.2737702435335356,0.072433832695359,12.300868538056097,9.643793190308287,18.340399310949905
1760958991.6346014,-22.47712780077224,-0.3380602791597193,1.2903279234934975,0.05155880918657279,12.968818650025183,5.161497520618384,17.904726712862058
1760958991.6448972,-22.261244682582785,-0.2817074392359224,1.2809076431970743,0.03143754344963314,14.152027005504719,0.16648318447643418,17.78463672203719
1760958991.6546023,-22.0014885198865,-0.2255539736564935,1.2483968456998404,0.01232341881861425,15.708527438734569,-4.893365901520022,17.999232752579864
1760958991.664713,-21.69831788036417,-0.1724656940680458,1.1983494525093354,-0.005945883424781063,17.50945353983124,-9.595571790814782,18.574944956937173
1760958991.6747801,-21.352525815404583,-0.12460153562601109,1.1380486813084238,-0.023783316044521868,19.452812247844022,-13.56663484176051,19.552757481564303
1760958991.6847532,-20.964973739281533,-0.08346754044730426,1.075300349387275,-0.04162862965568169,21.46480086300832,-16.50270027995248,20.983920538269565
1760958991.694653,-20.53663572937078,-0.0500287635102926,1.0172661253445747,-0.059749377880757924,23.491040911569296,-18.18786127032456,22.915881152249785
1760958991.704597,-20.068898500334335,-0.024814826862179278,0.9695808096927734,-0.07813798170792952,25.482526673487545,-18.509053666250217,25.37282313373029
1760958991.7146425,-19.563987576963562,-0.007983014108355401,0.9358633894911758,-0.09652992663104247,27.38146303276044,-17.465256482203788,28.336388983700413
1760958991.7246974,-19.0253686354899,0.0006585230897244202,0.917599431976804,-0.11451485131583661,29.11111702584527,-15.1684597863399,31.731740058682316
1760958991.7348924,-18.458005065110545,0.0016388158346170804,0.9142967186457065,-0.13167687711270995,30.57237656977807,-11.834625497135209,35.42249071810227
1760958991.744905,-17.868419126995622,-0.004209952958235276,0.9238074068354456,-0.14769647551247925,31.64834055291095,-7.764306178551558,39.215856612420176
1760958991.7547674,-17.264572029441396,-0.01582809863906862,0.9427391030364495,-0.162372890922352,32.21672249670657,-3.3142814389253177,42.87723886125722
1760958991.764761,-16.655617793526964,-0.03204315486617117,0.9669096529411455,-0.17557013530749024,32.16802080758661,1.136866751493067,46.15190572929359
1760958991.7749584,-16.051587091371246,-0.051702034422725175,0.9918226436509044,-0.18713009698675623,31.425752788292762,5.225217796477191,48.79058289273791
1760958991.784777,-15.463031400568147,-0.07378725855977007,1.0131533109133133,-0.19681394521042125,29.964248932684473,8.635607920866608,50.57551525380326
1760958991.7947152,-14.90062359462617,-0.09748013431245478,1.0272347677095757,-0.20431802687251394,27.819933202258113,11.129386692145331,51.34376476163709
1760958991.8048396,-14.37468604925428,-0.12214494340683346,1.031511937971727,-0.20936774441309938,25.093539029419592,12.562964500753061,51.00504092541301
1760958991.8147037,-13.894615938485702,-0.14724001020224065,1.024887210633039,-0.21184341752973262,21.942765319282596,12.895658218162747,49.552108478128865
1760958991.8246977,-13.468205254601678,-0.17219783475638434,1.0078554820346235,-0.21186881879781544,18.566747847414113,12.186623825509177,47.06268859302316
1760958991.834666,-13.100900178929166,-0.19632703676915314,0.982365147055398,-0.20981792349331801,15.184945772218622,10.58171295323629,43.6927296211515
1760958991.844567,-12.795090113100192,-0.21876713597185268,0.9514356728831193,-0.2062490974965576,12.013609651623968,8.291991369958158,39.661946561736364
1760958991.8546367,-12.549543988800249,-0.2384993968726115,0.9186406362797519,-0.2018115321239942,9.24312599468526,5.566504020359011,35.233514718743564
1760958991.8646297,-12.359114004163716,-0.2544053991096529,0.8875790885647792,-0.19716437239495693,7.0193199520924745,2.662571259351299,30.69053534083565
1760958991.8747034,-12.214804526621203,-0.2653651369781123,0.8614235230922899,-0.19292330420533438,5.431168732100686,-0.1827643305504268,26.312143871671672
1760958991.884778,-12.104258313790426,-0.2703844824586187,0.8425871673544759,-0.18962771678110302,4.50631682773941,-2.77668882540181,22.351846657650675
1760958991.8948054,-12.0126478781432,-0.26873402136509805,0.8325193736744382,-0.18771358168719812,4.214464170915284,-4.987162986064012,19.019992024593382
1760958991.90472,-11.923885112115324,-0.26007198891621225,0.8316242594569164,-0.18748218297386596,4.477401010346543,-6.750294409333128,16.471433247786226
1760958991.9146693,-11.821990957242065,-0.2445193640964224,0.8393009818710251,-0.18906746393104826,5.183446151590876,-8.068055064316725,14.798637856232096
1760958991.9248917,-11.692421897561795,-0.22266257275260048,0.8541055540837672,-0.1924146720965765,6.203496068674057,-8.997211859379602,14.02989806795271
1760958991.934657,-11.523157188507327,-0.19548208099243508,0.8740161639868596,-0.19728089789096181,7.405929765868485,-9.631506464352384,14.131968465161597
1760958991.9447465,-11.30541473669666,-0.16423247124005472,0.896753665674248,-0.2032569565583145,8.668257494815997,-10.079920427191318,15.01636732326593
1760958991.9546897,-11.033955872082512,-0.13031249591201602,0.920092081452972,-0.20980271673251027,9.884506841999068,-10.444222610598384,16.548628056134252
1760958991.96501,-10.7070213379623,-0.09515606599009094,0.9421038622521465,-0.21629042606959378,10.968567518023645,-10.798950884419844,18.559860611064224
1760958991.9750955,-10.32599280644627,-0.060157906412843264,0.9613116563775049,-0.2220560936475599,11.854627054237307,-11.176599221510848,20.859991107360134
1760958991.9848099,-9.894895759207998,-0.026632345045615406,0.9767463821346442,-0.22646003774944792,12.496121722398914,-11.560109558188815,23.251958911242838
1760958991.994705,-9.419855543133874,0.0042062789921256255,0.9879308678315085,-0.2289542950443343,12.864326154529385,-11.883818319265298,25.54599706193793
1760958992.004684,-8.908592967909486,0.031258248492173776,0.9948164101427461,-0.22915031912799702,12.947116849780254,-12.042827584074255,27.57299211480292
1760958992.0147102,-8.370005354640842,0.05356403021383054,0.9976976332931189,-0.22687718270712895,12.747923687351605,-11.909495985986695,29.195901928989308
1760958992.024804,-7.813834169117712,0.07034833091207085,0.9971222002442355,-0.22221805235134492,12.284626637953178,-11.354579704060344,30.318332075372307
1760958992.0346904,-7.250383455243256,0.08107684796138251,0.993800928635408,-0.21551155476177108,11.58814813038285,-10.269726024909328,30.88959795214192
1760958992.044724,-6.690234201094233,0.08550946914023473,0.9885174525006475,-0.2073087478029135,10.700593213692208,-8.587738843568424,30.905885174457918
1760958992.0546074,-6.143904166292261,0.08373305506212263,0.982039380229173,-0.19828900687162332,9.672861718740592,-6.297417344520939,30.407443338067242
1760958992.0647926,-5.621428760077431,0.07616463406984737,0.9750410296768267,-0.1891540758296754,8.56166663413616,-3.4507567908198595,29.472098559712258
1760958992.0746891,-5.131875353647701,0.06352462474070907,0.9680516028221494,-0.18052772023476035,7.425912879960705,-0.1616361089760513,28.20572654978604
1760958992.084903,-4.682835965475352,0.04678535870213259,0.9614373881992295,-0.17288381106784734,6.322493642662734,3.403548591991971,26.730645692582584
1760958992.0947833,-4.2799607467243685,0.027103252418410453,0.955416385278089,-0.16651337500765168,5.301743269735327,7.041789812830162,25.173117741799214
1760958992.104839,-3.926594486392576,0.005744078338137099,0.9500952917545827,-0.16152909154707437,4.402984057958394,10.533735553040259,23.651244578073715
1760958992.1146846,-3.6235650029871938,-0.015990914584186756,0.9455154066411673,-0.1578981297696696,3.6507444743099753,13.665852230080885,22.26449810755929
1760958992.1246576,-3.36915342074945,-0.03683450426407304,0.9416953372750125,-0.15549131901686591,3.0522496362713842,16.25204092054068,21.08591004870256
1760958992.1348712,-3.159257392735361,-0.055619249218666594,0.9386622226835858,-0.15413683292742575,2.59667446007736,18.15250595218474,20.157610512298056
1760958992.1447067,-2.987740099663906,-0.07134122355530012,0.9364670186402174,-0.1536683673306046,2.2564351701144316,19.288043857318346,19.490002606671233
1760958992.154838,-2.8469389558465314,-0.08322087923492959,0.935182090260212,-0.15396057738182703,1.9905209808369204,19.648366316125472,19.064455221206074
1760958992.1649082,-2.728289199022427,-0.09075619047338117,0.9348817936345283,-0.15494795671801376,1.749571634594796,19.293596228436044,18.839024518526966
1760958992.1747906,-2.6230031131844767,-0.09376097086264808,0.935610434201021,-0.15662683884340836,1.4821237663542066,18.34869484354757,18.75639933225805
1760958992.1849773,-2.5227399245014444,-0.092381968764041,0.9373466372709958,-0.1590431501072968,1.141227490621136,16.991262536940674,18.75303301061453
1760958992.1947277,-2.4202049094324005,-0.0870906476095879,0.9399758400589697,-0.1622703777336558,0.6905269965441151,15.43383331662578,18.768308628262293
1760958992.2047503,-2.309625385882015,-0.07864749727544039,0.9432805775801483,-0.16638254143285022,0.10893916003134178,13.90237381567956,18.752614193116422
1760958992.2146628,-2.187062392518177,-0.06803815995691989,0.9469520686197661,-0.17142591475182917,-0.6067512501425257,12.613140434704317,18.673384450765813
1760958992.2248964,-2.0505294990657292,-0.05638292247684133,0.95061977192307,-0.17739179566837524,-1.4417692547599097,11.750287650594876,18.51847374959633
1760958992.2347803,-1.8999061021979322,-0.044824989663826115,0.953891325025843,-0.18419215078878873,-2.3657393341698025,11.446600977533125,18.29661505257349
1760958992.2447991,-1.7366527434564534,-0.03440762652796411,0.9563945613669128,-0.19164098846923822,-3.337259409890424,11.769422722780211,18.035130060953417
1760958992.2547545,-1.5633588590553327,-0.025954144607350963,0.9578151700516714,-0.19944571451462217,-4.3099842563688755,12.713271640522732,17.775413279763793
1760958992.2649107,-1.3831754983217337,-0.019966618581661873,0.9579266649039585,-0.20721280119838995,-5.239262899448724,14.199908565384154,17.566958954360747
1760958992.2748013,-1.1992032000415598,-0.01655873416416165,0.956612711337185,-0.2144703980337136,-6.088226791836444,16.085796699636838,17.460799427952786
1760958992.2849116,-1.0139150570009605,-0.015435200629410822,0.9538846682300667,-0.2207077820118908,-6.8322715181191365,18.176179173772134,17.50316962256735
1760958992.2947588,-0.828694498903482,-0.015924843107943877,0.9498985341021223,-0.22542860022313416,-7.461134252606208,20.244426189168074,17.730028634789534
1760958992.3047407,-0.6435555095951864,-0.017067403856650246,0.9449749010806664,-0.22821212662747187,-7.978209601589237,22.05490549794532,18.162812275747847
1760958992.314691,-0.45709069618178705,-0.017746145611570126,0.9396233174149561,-0.22877424142552652,-8.397283241384017,23.387382971828924,18.805535870249283
1760958992.3247924,-0.2666622619458115,-0.016850659016484627,0.9345691593660105,-0.22701734466360282,-8.737362842217129,24.060829227214743,19.643178964024486
1760958992.3348188,-0.06881648014501336,-0.013448145999039568,0.9307767346324767,-0.22305657206248397,-9.016621279071591,23.954472755551443,20.641185865344752
1760958992.3449008,0.14013089771295612,-0.0069383082407933,0.9294567520099073,-0.21721031882457947,-9.246602830073876,23.024023009247962,21.745892568105536
1760958992.3547535,0.36341677814829143,0.002832049878664316,0.9320409847595054,-0.20994744596922002,-9.42784699223362,21.311243130424597,22.885717090512017
1760958992.364701,0.6031526338132107,0.01551339075567479,0.9401058264637918,-0.20179094848755344,-9.548030580639239,18.945517492849593,23.973009096556765
1760958992.3747296,0.859737654934735,0.030267249078999355,0.9552331891118052,-0.1931870673903122,-9.583593542594302,16.13671104305984,24.90652697723637
1760958992.3846922,1.1314395335295122,0.04585018565244381,0.9788115657749282,-0.18435956646814589,-9.505473349053743,13.159382930119374,25.574576816743974
1760958992.3947682,1.4141922327993652,0.06075866723477403,1.0117970718516167,-0.17518041565480102,-9.288909273571928,10.329228967254892,25.858901243864462
1760958992.4046564,1.7016272420061334,0.07341777188940625,1.05446703984572,-0.16509633050704917,-8.926313963991442,7.9734574010833725,25.639457375572025
1760958992.4148738,1.9853260540418212,0.082392998728288,1.106203124799086,-0.15314847076776192,-8.44115578135403,6.397622791209914,24.800287456753384
1760958992.4246898,2.2552645649504814,0.086603878025631,1.1653382714918665,-0.13810608794528523,-7.8999472232632755,5.852182673879374,23.236744718599727
1760958992.4348137,2.50041360737886,0.08551624937568991,1.2290970523217575,-0.11870817248280793,-7.419000811028627,6.502595724594151,20.86428965159113
1760958992.4447033,2.709456263938662,0.07928543110893274,1.2936546076233972,-0.09397812106741658,-7.16270536203792,8.407016068147149,17.62876449151836
1760958992.4548213,2.871575625538419,0.0688185001363546,1.3543348718930495,-0.0635498941576914,-7.330906476789286,11.505358541726723,13.517391958779685
1760958992.4648242,2.977253658090767,0.055724407113574084,1.4059623237730505,-0.027925135661477366,-8.134869703135443,15.622469090126389,8.568806085763383
1760958992.474724,3.0190035507755852,0.04212904956152889,1.4433707093666297,0.011419305390294175,-9.764235410990299,20.486236251582636,2.8795558083283295
1760958992.484911,2.991942295291414,0.030355068428329024,1.4620504037315003,0.05212548282506624,-12.350502702446493,25.75900537164322,-3.395688193569835
1760958992.494685,2.894112154737646,0.022505004270140617,1.458874406556148,0.09125115098195916,-15.93452508146654,31.07820573358175,-10.052093668966856
1760958992.5046241,2.726489146731141,0.02002740576317112,1.432779580689106,0.1257152830278172,-20.445297496502445,36.10024672219563,-16.850795494622353
1760958992.514764,2.4926691413039643,0.02336629999939849,1.385216810250706,0.15279509297488322,-25.695118856090776,40.54082609270127,-23.54107516111962
1760958992.5247514,2.198282529425744,0.03178474430508598,1.3201795160426744,0.17055881341240683,-31.39296270085944,44.20503499143216,-29.884927472474804
1760958992.5347583,1.850240351951398,0.04341836821572218,1.2437255296076812,0.17813796429204962,-37.1744115288862,47.002188193902086,-35.67985169066715
1760958992.5447748,1.4559456392909031,0.05556550696939463,1.1630840291485072,0.1757966925505172,-42.643293048179295,48.94304084047785,-40.77622123478669
1760958992.5548203,1.022605992818271,0.06516683012593882,1.0855721993952197,0.16481452394733404,-47.41777105324307,50.12044598790454,-45.08675528366327
1760958992.5647554,0.5567563767611896,0.06938056204111501,1.017567465960465,0.14723435694254813,-51.172806302330244,50.67776262435551,-48.58705658075038
1760958992.5747328,0.0640514111003197,0.06613242875893496,0.9637216861257691,0.12553690661285596,-53.671972184093384,50.771661107485905,-51.30766184603266
1760958992.5846984,-0.45067365461016995,0.05452210250234769,0.9265225032250362,0.10229869221133266,-54.7842645178806,50.53686451810411,-53.31942565699827
1760958992.5948312,-0.9831310809732416,0.03500039483869302,0.9062313740476078,0.07988216549306167,-54.48494341296519,50.059666094584756,-54.71514039949588
1760958992.604654,-1.5291981206047403,0.00928361610702448,0.9011617280272427,0.060195212296179516,-52.84262573388041,49.36498354456821,-55.59086080715654
1760958992.614707,-2.0845443796072742,-0.019971793026623236,0.9082072975969694,0.04454288364425816,-49.99710231105302,48.41868697290368,-56.03028351066236
1760958992.624638,-2.6443844688039664,-0.04966391261080859,0.9234969666090836,0.03357897974609506,-46.13336567103953,47.14358730167092,-56.0947145823275
1760958992.6346853,-3.2034420742829903,-0.07680982959602109,0.9430457894084312,0.027351411107239487,-41.457074794164136,45.44457872140439,-55.8198339570533
1760958992.644722,-3.7561640493936905,-0.09907282509635286,0.9632929129164242,0.025423069671313192,-36.17535612303529,43.23672465708476,-55.2189970775912
1760958992.6546621,-4.297166886378557,-0.11515710755170068,0.9814574484398408,0.02703856005455524,-30.48488561361293,40.469908060481444,-54.29158631106422
1760958992.6648173,-4.821844160420418,-0.1250032920409646,0.99569012244117,0.03129879699397672,-24.567172918660678,37.14488223716768,-53.03418709907109
1760958992.674667,-5.32702272852474,-0.12975788421815795,1.0050413131535292,0.037305469367520126,-18.589336148268515,33.3177153299314,-51.45216376013526
1760958992.6847808,-5.811534994096993,-0.13153305877075996,1.0092976604293864,0.04424919451323938,-12.707683620704637,29.09222023878207,-49.5694325104333
1760958992.6946921,-6.27657727275749,-0.13300770996255235,1.0087546040866047,0.05143564794405234,-7.071216125304368,24.60251424241984,-47.434702155039936
1760958992.704755,-6.725749229814096,-0.1369404169217776,1.0039892215545516,0.05826455639975959,-1.8226804232058949,19.989871805143064,-45.12304679137398
1760958992.7148798,-7.164713990737072,-0.1456715016846068,0.9956802042412273,0.06418954006523774,2.90417249099119,15.379077621840574,-42.73234130758626
1760958992.7248032,-7.60047982522007,-0.160690096016399,0.9844970506959067,0.06868941448935563,6.99122666298019,10.859313484843625,-40.374834194124496
1760958992.734735,-8.040376401639927,-0.1823345840061198,0.9710564746823503,0.07127439503032192,10.345423766097126,6.473339575079767,-38.1649433316598
1760958992.7447786,-8.49086990939478,-0.2096786216831277,0.9559273536294385,0.0715360617645639,12.90891318376816,2.216788977980162,-36.20514340094193
1760958992.7547517,-8.956415508420118,-0.2406292695721087,0.939659853936724,0.06923182897517365,14.667463109664043,-1.9526876676171436,-34.572386680607444
1760958992.764859,-9.43856572748858,-0.2722309339261026,0.9228178193516604,0.06437837409376486,15.654895671560995,-6.0984592237355795,-33.30767752123564
1760958992.7749083,-9.935526787043496,-0.30113227913357155,0.9060002114236885,0.05731967064275252,15.95205382151144,-10.283334143319571,-32.41108973030774
1760958992.7848315,-10.442278567213005,-0.3241388097966306,0.889842888882245,0.048738162483601716,15.679841978542136,-14.547069707420228,-31.843658185320226
1760958992.794759,-10.951262132997064,-0.33875201001872796,0.8749966940840198,0.03959277096359769,14.987009858102487,-18.88663408704928,-31.536309523467253
1760958992.804696,-11.453522059818086,-0.34359747709518174,0.8620838708733166,0.030990036227316088,14.034373317110221,-23.24245548632702,-31.404596466383364
1760958992.8149002,-11.940104395882566,-0.33867082700290657,0.8516414159381971,0.024016064703213748,12.977848018575786,-27.493165522350548,-31.36681678780206
1760958992.82489,-12.403477589721481,-0.3253709281665136,0.8440636334120851,0.01956906481964926,11.952817400421466,-31.460359508085816,-31.362410320909653
1760958992.8346682,-12.838763413400068,-0.3063299614523561,0.8395550407521098,0.018231481981797047,11.061952834861673,-34.923717691659824,-31.36744879874188
1760958992.8447683,-13.244619360138566,-0.28507773346229376,0.8381002209520073,0.020208241715910662,10.367835257226423,-37.645537156997676,-31.404511299433953
1760958992.8547335,-13.623679599511286,-0.26559120223371363,0.8394523328273166,0.025337813618010126,9.890860644536,-39.402383319818306,-31.545110356995934
1760958992.8648558,-13.982521760262596,-0.25178336135604357,0.8431391545922663,0.033162013350532274,9.612169121305627,-40.02030068741169,-31.90389294245851
1760958992.87484,-14.33117451981115,-0.24698335728196885,0.8484850541130617,0.043025262431173245,9.480841697918219,-39.409040260309766,-32.624887201584535
1760958992.8846786,-14.68221546149047,-0.25345566935388525,0.85464860568769,0.05416932201181359,9.424381559720544,-37.590305324771975,-33.860960358248015
1760958992.8947089,-15.04953297046555,-0.2720032735451808,0.8606780935203605,0.0657967387316175,9.361461671497734,-34.715228206358006,-35.748360088595696
1760958992.9047174,-15.446844954988887,-0.3016986328618858,0.8655888796456119,0.07709273332222037,9.2159204811434,-31.06717041120102,-38.378786687087455
1760958992.9149733,-15.886085136960311,-0.33978501809726547,0.8684652456474772,0.0872153942393985,8.930880246279134,-27.04740128522557,-41.77195471298311
1760958992.924837,-16.375786969504503,-0.38178652803888535,0.8685848335960927,0.09528122383797613,8.48163128166124,-23.143119025996263,-45.85206737442304
1760958992.934947,-16.919616528676126,-0.42185634583764486,0.8655574304504493,0.10038121655879854,7.885675229108669,-19.879452846756276,-50.43199835901057
1760958992.9448297,-17.51522670655459,-0.45337607412704767,0.8594613581097071,0.10165743485059284,7.208178460971267,-17.75933316823127,-55.20912054299554
1760958992.9548845,-18.153618145317274,-0.46978872802163935,0.8509491942840991,0.09845096180712411,6.561144789282462,-17.197270302402526,-59.77637511345157
1760958992.9649122,-18.819184242723892,-0.4655994144729853,0.8412818761745431,0.09050351846400659,6.09495863492032,-18.45496987865036,-63.65098787926971
1760958992.974793,-19.490573071059625,-0.4374147191787449,0.832244131673173,0.07816523494651034,5.9816803387059485,-21.58805685075957,-66.32094601504377
1760958992.9847414,-20.142408379109686,-0.3848308551087607,0.8259049988485213,0.06253943678705554,6.390670288570098,-26.413516526513114,-67.30596479639549
1760958992.9948347,-20.747777213147014,-0.3109489514893641,0.8242207728784144,0.045490928666955255,7.458751254662357,-32.50621325937694,-66.22564838610329
1760958993.004754,-21.28123229149947,-0.22232615138913653,0.8285327352739199,0.02946713320160822,9.25902858651651,-39.229590907384555,-62.86388549636676
1760958993.0148003,-21.721911084315703,-0.128282605216782,0.8390768204507348,0.01713553229643933,11.774268957040524,-45.80046447819583,-57.21673124563362
1760958993.0247223,-22.056288577853575,-0.039650491216437836,0.8546673102047514,0.010908356293879793,14.881580787429728,-51.38142344573157,-49.512510484850374
1760958993.0348454,-22.280092515852598,0.032800969122169274,0.8727041811923896,0.012470282538275168,18.354102859737058,-55.188149418761896,-40.19784988869315
1760958993.0447137,-22.3990222166066,0.07996449858967274,0.8895717189974843,0.02242347004809515,21.882181172598138,-56.59465912789681,-29.89034870479491
1760958993.0546734,-22.428099130794838,0.09573778492173289,0.9013737117283024,0.04012533426905319,25.11189407887054,-55.21871278855672,-19.305303001993725
1760958993.0646813,-22.3897007015043,0.07789823761483802,0.9048362722524248,0.063744467368984,27.69434506249474,-50.97300554727791,-9.168458124615286
1760958993.0749636,-22.310548516732045,0.028380928574968482,0.8981444639426494,0.0905182863421334,29.336434376323844,-44.07449630259243,-0.12852304501968076
1760958993.084711,-22.218098717501213,-0.04707568035870061,0.8814915446435748,0.11716613081151128,29.84366769933098,-35.01239990438497,7.317546601724842
1760958993.0946755,-22.136886019805388,-0.13984929303659388,0.8572120365291346,0.14038891643104312,29.14775608693814,-24.4826739808764,12.876059754534918
1760958993.1047037,-22.085383708288436,-0.23975308359141614,0.8294978284550016,0.15736815089697795,27.31531371629023,-13.30149965927352,16.47832421425739
1760958993.1147196,-22.073855770051015,-0.33651862188869663,0.8037925144109039,0.1661689010182833,24.53767938511033,-2.311699041559131,18.27069212010017
1760958993.1247656,-22.103507472923283,-0.4211847293048853,0.7859913212487518,0.16596623436015456,21.10489524116796,7.7052178759522025,18.575822126513557
1760958993.134746,-22.167020746540057,-0.4871669542691917,0.7815631540731225,0.15705950828282017,17.36875673871005,16.101555470140582,17.83233117653839
1760958993.1448045,-22.2503323128151,-0.5308558800914701,0.7946944213375348,0.14069925307653902,13.700571076809508,22.414082470196238,16.523091712495365
1760958993.1547637,-22.335310482699867,-0.5516864199659872,0.827552197424548,0.11879781019754769,10.44907881797928,26.389710433654177,15.103838909244622
1760958993.1647377,-22.40284016199701,-0.5517163103378991,0.8797740702829648,0.09360717222867139,7.903315960042423,27.986059744296014,13.943250152946648
1760958993.1747813,-22.435765388890207,-0.5348360986675662,0.9482937334004341,0.06742859756742346,6.264374760879163,27.349531231457746,13.283359768093977
1760958993.1850648,-22.421187199476286,-0.5057928434814174,1.0275845133761212,0.04238584353639764,5.6291400867760695,24.776012322772353,13.225467537661713
1760958993.1947525,-22.351767914111768,-0.46923456110151085,1.1103393851552807,0.02026331903548192,5.987928823133683,20.66134421192388,13.742124551527878
1760958993.204839,-22.225914920488705,-0.4289639275318436,1.1885101126099897,0.002391033941832588,7.236283876430894,15.449731163306776,14.71100771170737
1760958993.2147593,-22.04695038308436,-0.387527779097741,1.2545195998302505,-0.01044472567863102,9.198950870735784,9.587966650864514,15.962384845645305
1760958993.2246842,-21.821559509611614,-0.3461783515199599,1.3023825835239204,-0.01807053352606648,11.661694049078223,3.4914913262676044,17.329392855603185
1760958993.2348099,-21.55791047485577,-0.3051504766306294,1.3284723776338898,-0.0209545819386449,14.404853792554349,-2.4749360328085195,18.690300397539385
1760958993.2447784,-21.26384560246513,-0.26413323767621333,1.3317766818712113,-0.020158368047407085,17.23218493447117,-8.003110196627881,19.99449308519889
1760958993.254798,-20.94547152343971,-0.22278890010943195,1.3136544803828287,-0.017184628048037744,19.98984241479324,-12.838395819858693,21.26834675152713
1760958993.2648177,-20.606353172065464,-0.18118461584749063,1.277258335082969,-0.01373132932802785,22.573007696335402,-16.774132332615434,22.601968267428376
1760958993.2747858,-20.247374841725737,-0.14004221948358153,1.2268523904430788,-0.011405000464269208,24.920706412672597,-19.648866439428208,24.121573658621482
1760958993.2849176,-19.867202303409346,-0.10076527829283315,1.1672172878756721,-0.011471202867544206,27.001935347871,-21.349127518125044,25.954364632613267
1760958993.294785,-19.463185596258608,-0.06525880743703327,1.1032246835290038,-0.014710763894392468,28.797690065782266,-21.817177878325463,28.19324150334999
1760958993.3048527,-19.032491834316406,-0.03560467436800641,1.0395536280295328,-0.02141184848891527,30.283749439193247,-21.06065062517965,30.86795641948647
1760958993.3149483,-18.573250449677438,-0.013683967916988228,0.9804682920303364,-0.03147790364618702,31.418417955921967,-19.159913263972406,33.92770746406483
1760958993.3249505,-18.085523736872588,-0.0008399844582492105,0.9295941045600541,-0.04459134950068577,32.13820857402895,-16.269387438474517,37.23793601546532
1760958993.3348293,-17.571972152181726,0.002345622106304703,0.8896813271385713,-0.06035925451989745,32.36282676682388,-12.610534095992017,40.59152251866308
1760958993.3450942,-17.03814901562229,-0.0038747009054854575,0.8623871901229959,-0.07838496733478639,32.0088377251859,-8.456216654965495,43.73215572043283
1760958993.3549342,-16.49241532985762,-0.01849465756541927,0.8481227453750358,-0.09824895732480339,31.00929212741876,-4.10811520355095,46.38586191235259
1760958993.3647869,-15.945503326182104,-0.03995411555935585,0.8460071875235665,-0.11942408774676892,29.33487673483456,0.12965859077723965,48.2957689492489
1760958993.374919,-15.409777918452956,-0.06639754320329631,0.8539649030766023,-0.1411787441340775,27.011457281193177,3.976872397539871,49.25511377095711
1760958993.3848903,-14.898254749930722,-0.09591524116857439,0.8689922218997437,-0.162528702813549,24.12952738647168,7.199662078759559,49.13411866172958
1760958993.3948245,-14.423441529127686,-0.1267028969465651,0.887597687498117,-0.18228413798513618,20.842898618610295,9.626351123486357,47.89746495483679
1760958993.4047709,-13.996086682994454,-0.15711436709023713,0.9063642532328073,-0.1992010550763523,17.356380716449475,11.15518830704321,45.61048008030207
1760958993.4148362,-13.62395016107166,-0.18563421686670611,0.9225086720745468,-0.21219543970451754,13.904509223720181,11.754178697341722,42.43363774664298
1760958993.4249218,-13.310745234051561,-0.21083092608395382,0.9342798389342959,-0.22054300436429908,10.72502415750837,11.454491849240355,38.60639340168998
1760958993.4349635,-13.055416406179795,-0.23134845344429794,0.9410889022768726,-0.22399752216922295,8.031514952447838,10.339648720449603,34.42260242980225
1760958993.4448981,-12.85189936851211,-0.24596087450935805,0.9433710788868435,-0.2228080944934597,5.989470049109222,8.532751235124127,30.20067843472002
1760958993.4549387,-12.689450380161388,-0.2536785816390987,0.9422675494116322,-0.21765889519429782,4.699140130640333,6.1835873879650975,26.252135313844175
1760958993.4649403,-12.55354480295687,-0.2538736259091297,0.9392436243701147,-0.20956704791117994,4.187368384553875,3.45678165520017,22.852146281392702
1760958993.474752,-12.427246906401077,-0.24638724804365836,0.935739910824057,-0.1997630266282735,4.409029756290403,0.5215118686251112,20.21526753859867
1760958993.4847672,-12.292868735967527,-0.23158888272998385,0.9329166822847694,-0.18956307070528228,5.25715217460552,-2.45715105612908,18.478639039241067
1760958993.4948537,-12.133686680110143,-0.2103689063392544,0.9315154118573539,-0.18023644796736465,6.5794369929561345,-5.325438685894471,17.69395168610726
1760958993.50497,-11.935483144183062,-0.18406349424754626,0.9318313228912256,-0.17287402840932606,8.198058563806102,-7.946770410854756,17.828402953234228
1760958993.5147698,-11.687724925915301,-0.154324640662624,0.9337705587901048,-0.16827286800022512,9.92951288959128,-10.206359955847812,18.773868697000434
1760958993.5249608,-11.384263847362355,-0.12295821666062241,0.9369577680916366,-0.16685534297901974,11.601866331568369,-12.014446935227333,20.362699680945372
1760958993.534836,-11.023529060718404,-0.0917567464528956,0.9408621717160066,-0.1686363063878874,13.067760895322989,-13.308013125895679,22.387989204080803
1760958993.544796,-10.608256671396699,-0.0623514763120533,0.9449168941175086,-0.17324118483239873,14.212626576583226,-14.050923122647067,24.62588729155447
1760958993.5548403,-10.144857548264794,-0.03610105242763271,0.9486141449389891,-0.17996851094311017,14.958451003432351,-14.232611641638641,26.85754025035054
1760958993.5649168,-9.642551187440372,-0.014024029885947956,0.9515672448592637,-0.18788537907840577,15.263993533039272,-13.865638877761846,28.88848566678267
1760958993.5747921,-9.112393439909699,0.00322680208948617,0.9535387771938352,-0.1959426076893552,15.12248549656875,-12.982549063020237,30.563805806943936
1760958993.5849364,-8.566307005263226,0.015355890161535648,0.9544404630518448,-0.2030960628256097,14.557726739001293,-11.632451273360418,31.77796637956688
1760958993.5947948,-8.016196197751198,0.02239151345821011,0.9543132566780057,-0.20842129990919703,13.619205482422714,-9.877633253816796,32.47892611916482
1760958993.6048746,-7.47319970454624,0.02463616890380117,0.9532959869373085,-0.21121075852947485,12.376563799187466,-7.790387622623895,32.666699862111145
1760958993.6148438,-6.947111183286162,0.02260782385011445,0.9515893870639467,-0.21104568476655594,10.913517254736202,-5.450111288285321,32.3870600013992
1760958993.6247165,-6.445978944053132,0.01697737042211237,0.9494210128531451,-0.20783754285430311,9.321282176645433,-2.940638855441593,31.721464908694127
1760958993.6347778,-5.975882209229681,0.008506209273289761,0.9470154736350062,-0.2018354202687763,7.6916560631833555,-0.34770601133316864,30.7745879143064
1760958993.6449087,-5.540870918329389,-0.0020125789489219195,0.9445729031570103,-0.19359772315297757,6.110053952304099,2.24357072923726,29.66094928058187
1760958993.6546872,-5.143046787178165,-0.013805469346396487,0.9422564488996782,-0.1839295126124228,4.648940510028324,4.7512783505905425,28.492108342523245
1760958993.66485,-4.782754350786153,-0.02615751431914296,0.9401877815921355,-0.1737914108480678,3.362186855807567,7.099392833183903,27.365677299345794
1760958993.6750252,-4.4588427334780585,-0.0384351208996628,0.9384496400298521,-0.16419140150506614,2.280940134948159,9.220569810567573,26.35712129609251
1760958993.6847823,-4.168954447600858,-0.050091088052827464,0.9370957581598099,-0.1560753847362401,1.4116126528598711,11.05902282535701,25.514955618089747
1760958993.6947713,-3.909800435523244,-0.06065483068696555,0.9361681581600212,-0.1502331309392185,0.7364948904480215,12.573440376703731,24.859564714639546
1760958993.7047815,-3.6773933945934494,-0.06971576134328367,0.9357177400235216,-0.1472313350410595,0.21718186682156743,13.739808567702529,24.38546808991619
1760958993.7149146,-3.467231839309679,-0.07691077494931944,0.9358192228651875,-0.14737709466359128,-0.19949586579821976,14.553848286672624,24.066480853233955
1760958993.7248359,-3.274447829711699,-0.08192525247970857,0.9365711368945431,-0.15070849855741256,-0.573847176586581,15.032598504432444,23.862913295393852
1760958993.734777,-3.0939436629432198,-0.08451112890684184,0.938077259444759,-0.15700675520097074,-0.9651235409168585,15.214578389414445,23.72976524261826
1760958993.7447426,-2.920542979940817,-0.0845179344839155,0.9404136267075492,-0.16582472412582464,-1.4239228856943889,15.158003776316292,23.62481460952977
1760958993.754719,-2.7491705694551998,-0.08192623815695357,0.9435899367444475,-0.17652722515737274,-1.9862022610023868,14.93672678973712,23.51557673371205
1760958993.764897,-2.575057377026468,-0.07686987950146659,0.9475144394973423,-0.18833856785732225,-2.669612458311387,14.633893901228829,23.384311365643065
1760958993.774754,-2.393949824950313,-0.06963516383124856,0.9519698709351508,-0.20039348570547985,-3.472507967427264,14.333735259135922,23.230550715176168
1760958993.7849607,-2.2022919073519196,-0.060631339374957766,0.9566072004613719,-0.21178973288310515,-4.375603636768764,14.112325647452213,23.07096915450323
1760958993.7948084,-1.997347456444303,-0.05033465360249402,0.9609636926711367,-0.22164314963379858,-5.3458777594180775,14.028494156032192,22.936759315908365
1760958993.8051312,-1.77723752959841,-0.039215337235976255,0.9645103301316592,-0.22914750037365722,-6.341995094126863,14.116223952940087,22.868975173317583
1760958993.8148928,-1.5408813765771918,-0.02766154445343989,0.9667301648467118,-0.23364090302237156,-7.320286239320012,14.3798328809902,22.91251964244911
1760958993.8248034,-1.2878459435892264,-0.015916145860709507,0.9672240302643873,-0.23467814528578776,-8.24022621934883,14.792953167251708,23.109568278993212
1760958993.8349984,-1.0181256666101222,-0.004041301730618453,0.9658339937713324,-0.23210408774012187,-9.068460072935787,15.301853265252642,23.493208420832232
1760958993.8448806,-0.7318900012446914,0.008077422923010327,0.9627686680203337,-0.22611845844481362,-9.780751741042723,15.833013393415664,24.081925151880625
1760958993.8548222,-0.4292508407618643,0.020679894226800437,0.9587089910295082,-0.2173177932783125,-10.361745106366511,16.304175383651597,24.875315173900482
1760958993.8647153,-0.11011463696813485,0.03403107846422611,0.9548696793388481,-0.2066974459648974,-10.803011299575239,16.6374876922149,25.851142919779743
1760958993.874755,0.2258117646890793,0.04827856959564164,0.9529911242067509,-0.19559657596475227,-11.100360704576968,16.772995707264922,26.963669213412373
1760958993.884778,0.5788084245334338,0.06329067918777298,0.9552391221494473,-0.185572722994935,-11.251674628275849,16.680622666558246,28.143136943650955
1760958993.894725,0.948712829248463,0.07851638912080823,0.9639971263273079,-0.1782018106768894,-11.256468239965221,16.368893409582654,29.29638285324159
1760958993.9047837,1.3343258565034342,0.09291802613293211,0.9815519576743261,-0.17481626863736482,-11.118018613463484,15.888929606326629,30.30870857532822
1760958993.9147983,1.7327639990090666,0.10501790248073267,1.0097006667353179,-0.17621668643400837,-10.848226298378346,15.332713974024772,31.04731687835501
1760958993.9248369,2.138902705838236,0.11307393960001624,1.0493363341057227,-0.18241331086900117,-10.474513009167191,14.825312837797192,31.366726483654503
1760958993.9347856,2.545056591366059,0.11536797138478502,1.1000915661996153,-0.19246324825515276,-10.047154971731413,14.51162571539513,31.1165629056744
1760958993.9447532,2.941012485949905,0.110563707297531,1.1601209848346592,-0.20446120806991042,-9.644793100211862,14.539184327569947,30.151959424354345
1760958993.9548407,3.3144784044405804,0.09807304598792543,1.2260864827290034,-0.2157152438334295,-9.375737543249695,15.039378982281054,28.346476823094616
1760958993.9649596,3.6519417057587344,0.07835818767759693,1.2933772365367806,-0.22310020244489331,-9.373188207618778,16.110031778485727,25.606903381762955
1760958993.9747527,3.9398468861379357,0.05309091418339021,1.3565573963889264,-0.22354004761468635,-9.78353445819803,17.80225242340457,21.888457919973625
1760958993.9848084,4.165920662009787,0.025096462024082077,1.4099885389491131,-0.2145329105166278,-10.74839529084434,20.113896783376934,17.207893651289393
1760958993.9949343,4.320418267904414,-0.0019591540143521985,1.4485260012915582,-0.1946095997652576,-12.382860985005436,22.99078317177521,11.651234499312803
1760958994.0049284,4.397065963510506,-0.024121751209241,1.468164142231096,-0.1636265675239848,-14.753964247338109,26.335350075620518,5.373011059739907
1760958994.0148396,4.393530511380022,-0.03785809752495351,1.4665307439124144,-0.1228441863300844,-17.86394966719722,30.020959009616522,-1.4147440983582593
1760958994.0248919,4.311336521767997,-0.04078277593299822,1.4431870624222707,-0.07479925699960252,-21.64200721405085,33.90886853021295,-8.463154568524718
1760958994.0347998,4.15525521050549,-0.032236243968631055,1.399729981094519,-0.023006708835766002,-25.946156449531124,37.86433882292912,-15.513787862772444
1760958994.0447376,3.9322850902100828,-0.013562531918119675,1.339695367456202,0.028477374745684486,-30.57477062249575,41.76856448070157,-22.32779699585368
1760958994.0547628,3.650419113951271,0.012002092701084361,1.26824710865035,0.07559192235759099,-35.285525754570116,45.524160361225626,-28.71152243431418
1760958994.0648546,3.3174295217499252,0.03982623205738478,1.191639476952841,0.11483327317125637,-39.81857931607933,49.05353197967784,-34.53379112216738
1760958994.0747201,2.9398936551360646,0.06467406003694785,1.1164845812931035,0.14373953405726866,-43.920434329165545,52.29126448125871,-39.73185528288795
1760958994.084742,2.522631542425821,0.0816340844461534,1.048926471929746,0.16119566662159168,-47.36513816182633,55.17316073506251,-44.30528857102377
1760958994.0947695,2.068637751408057,0.0870017118508113,0.9938701278977385,0.16749753471845497,-49.970196165917315,57.6253268081571,-48.29965619558702
1760958994.1047463,1.5794840325447583,0.07894046635979306,0.9544062366499039,0.16417124249958664,-51.6057562452396,59.55661726227386,-51.783818170602956
1760958994.114778,1.056070288438712,0.05779145367576051,0.931526159075627,0.15360234487416874,-52.19695346029583,60.85700420941151,-54.825836802742025
1760958994.1247742,0.49953272028589163,0.025972207094377975,0.9241642478259399,0.13857073146281926,-51.72045018914232,61.403309578612266,-57.4724345282797
1760958994.134732,-0.08790571565226878,-0.012509126603180917,0.9295477414176194,0.1217974564480473,-50.196986780850644,61.072375893160626,-59.73588527491704
1760958994.144885,-0.7023335437359018,-0.052818207813964554,0.9437789872204353,0.10558909621075742,-47.682178103121494,59.76014379076821,-61.590440566488304
1760958994.1549911,-1.337926421407337,-0.0901765236486169,0.9625302612695357,0.09162705977950754,-44.257859886244034,57.4034019325951,-62.97833914988909
1760958994.1649296,-1.9871457365923109,-0.12068433687603157,0.9817139633855397,0.08090930739399119,-40.02590028411115,53.9996810620451,-63.82361344978227
1760958994.1748455,-2.641321383992286,-0.14193224519720624,0.9980076668632242,0.07381855021547111,-35.105485442799726,49.620500380979216,-64.05066020356419
1760958994.1848931,-3.2915107470214746,-0.15330331373879583,1.0091572506512791,0.07026777863100536,-29.633631330997947,44.4141805380128,-63.60400839030118
1760958994.1949556,-3.929481381970554,-0.15593737206141475,1.0140384140760657,0.06986519107079389,-23.76742114234676,38.59640315160508,-62.46580423879755
1760958994.204977,-4.548648489799733,-0.15239722775646283,1.012512850512581,0.07204977907635132,-17.685603312101133,32.429085170410296,-60.668088452636496
1760958994.214997,-5.144809072583674,-0.14612677750999806,1.0051558159194265,0.07617255693269931,-11.587023615647462,26.190497362840617,-58.29782659317083
1760958994.2248502,-5.716548945818738,-0.1408140081204397,0.9929462676553676,0.08152584968862751,-5.684033202975482,20.141493436077933,-55.49373916570588
1760958994.234699,-6.265250919880037,-0.13976970767191507,0.9769981935574311,0.08734298049540612,-0.19034193184900364,14.493772234418088,-52.43514803244417
1760958994.244918,-6.7946957465184905,-0.14541425690528761,0.9583804388513896,0.0927982399708446,4.695637944112937,9.385869106258005,-49.324216364385165
1760958994.2547922,-7.310313891909351,-0.15893805659036697,0.9380348950511768,0.0970336683779299,8.809529926719728,4.871006569958432,-46.36400483490973
1760958994.264796,-7.818206058271854,-0.18017013486656042,0.9167724027849982,0.09922808473848013,12.038531930880026,0.9184701656361213,-43.735537862487476
1760958994.2751532,-8.32409273725893,-0.20765773135768714,0.895311927793207,0.09870696151946606,14.334388074316674,-2.5724388865983916,-41.57736952220384
1760958994.2848961,-8.832368783512901,-0.2389316880172465,0.8743326104379578,0.0950725416718788,15.719188440892394,-5.748914503451985,-39.97083044869441
1760958994.2949398,-9.345423059239021,-0.2709107210179736,0.8545204495234762,0.08831891623033927,16.282771418509242,-8.775865813752858,-38.933283179380155
1760958994.3049312,-9.863335421677284,-0.30038098610438,0.8365989645548577,0.07889343357490022,16.172027756188726,-11.806360162562902,-38.42050458516067
1760958994.314816,-10.383990507531065,-0.32447633343779053,0.821333150263848,0.06767574680704184,15.573692351312486,-14.955318854061591,-38.337925053172924
1760958994.3250067,-10.903567114546684,-0.34108504383254834,0.8094968416029067,0.055866163002016474,14.693132034887933,-18.279583690643424,-38.55903206613054
1760958994.334983,-11.417297113690802,-0.3491253971554975,0.8018026427825572,0.04480044374506991,13.732155284725488,-21.76644303121518,-38.94800763392692
1760958994.344969,-11.92035564969004,-0.34866113764666506,0.7988070575518509,0.03573127742598013,12.86887783245415,-25.331721799578318,-39.38289972775708
1760958994.3549862,-12.408745417038174,-0.34085813722970965,0.8008116274443731,0.029627873762743222,12.242105275057467,-28.827615787242916,-39.775552812336365
1760958994.3649712,-12.880060077566256,-0.3278064417582081,0.8077795196696319,0.027038161429731325,11.941667408732775,-32.059552508112695,-40.08518853273435
1760958994.3748584,-13.334042359943926,-0.3122442223094661,0.8192800666236414,0.0280358442571995,12.004981277114442,-34.810481730628204,-40.323767288479296
1760958994.3848171,-13.77288334422264,-0.29722245617720744,0.8344669078549861,0.03224839736342493,12.419176773689765,-36.87018552592692,-40.55273958683211
1760958994.3947656,-14.201237428442704,-0.28574420358551916,0.852091368232237,0.03894292458186158,13.127590812531672,-38.06653268604923,-40.87212922746708
1760958994.4049098,-14.625950828641086,-0.28040554077311847,0.8705525297245447,0.047138891798924665,14.039341613573269,-38.29515977685867,-41.40379915275794
1760958994.414964,-15.055519979983911,-0.2830620919416029,0.8879888768444942,0.05571939782019478,15.040915331874663,-37.54390144672891,-42.27115785293917
1760958994.424923,-15.499311365040374,-0.2945467132212688,0.9024195584843676,0.0635237243873668,16.009019910614466,-35.90848137034631,-43.577580037694375
1760958994.4349153,-15.966588657031451,-0.31446679691482143,0.9119401629325452,0.06941937573976263,16.824152286825974,-33.596559861761314,-45.38563871355721
1760958994.4449236,-16.465409397336227,-0.3411110405408514,0.9149665974576042,0.07236509108830981,17.384265945913373,-30.91821168345639,-47.69905499171417
1760958994.45497,-17.00147374589088,-0.3714951860094818,0.9105056730426928,0.07148164203616103,17.617680269934997,-28.262227671176504,-50.449167195982014
1760958994.4649904,-17.57703196901333,-0.40157266119379764,0.8984172826683123,0.06614318470339924,17.49409770712431,-26.05921153069828,-53.48771459517454
1760958994.47474,-18.18998126713562,-0.4266239481460957,0.8796219195905451,0.056090268411355435,17.032398875028893,-24.73416245083429,-56.58772865522487
1760958994.4851434,-18.833297989934135,-0.44181317157132427,0.8561999972267974,0.04154881019832988,16.303809341637447,-24.652950942256957,-59.454107515570165
1760958994.4951482,-19.49494741252794,-0.44286360213337217,0.8313309193080328,0.023322358868881697,15.42913339395996,-26.06863224568488,-61.74475420577087
1760958994.5050614,-20.158380996423833,-0.42676510815431923,0.8090354104169862,0.002817024332084034,14.56913668873048,-29.074669103351205,-63.10185184854073
1760958994.5148656,-20.803667923161616,-0.39239945889055333,0.793714221440491,-0.018032249077720535,13.90788811135891,-33.57254467640109,-63.19104898925655
1760958994.5247672,-21.40921906791366,-0.3409626367341385,0.7895135077143358,-0.03694010476056002,13.629865024348243,-39.26055305473146,-61.74437187542461
1760958994.5348358,-21.95395823894654,-0.2760777901307842,0.7995851179715688,-0.05153042174791207,13.892757330425441,-45.648435932758794,-58.60099169656904
1760958994.544746,-22.419692755467114,-0.20352981860213085,0.8253481057120877,-0.059634463542573096,14.799134777929195,-52.0989974849032,-53.73900843147453
1760958994.5548816,-22.793356043924028,-0.1306188660501416,0.8658952341301581,-0.0595824694283529,16.37142361214622,-57.89339688151623,-47.29167189397099
1760958994.564877,-23.06876646350837,-0.0652172903461092,0.9177094533400919,-0.05045191243120296,18.53557779340391,-62.31242161248037,-39.54333727336173
1760958994.574846,-23.24758735064207,-0.014689634489745605,0.9748336177589937,-0.03224366739479909,21.11861882030791,-64.72271307718108,-30.903848657267673
1760958994.5848927,-23.339279881834294,0.015135868381608658,1.029560850273616,-0.005962547641400508,23.863234027241177,-64.65544611684479,-21.864176308013878
1760958994.5949566,-23.35999067240997,0.020775681556640214,1.0736006470399098,0.02641423348011335,26.459109648918577,-61.86573836296396,-12.93982114972506
1760958994.6047146,-23.330481706949914,0.0015570542759917093,1.0995550194821109,0.06208634614500395,28.586697502668414,-56.3640312854272,-4.610713207627907
1760958994.6149929,-23.273365090321498,-0.0403280946525682,1.1024283146121894,0.09769143509643595,29.965917415880288,-48.41534682043971,2.733351833738064
1760958994.6248064,-23.210027493744807,-0.10019698962128008,1.0808200880571612,0.12966067470171883,30.400788058543316,-38.5077182055427,8.833968402309944
1760958994.6347673,-23.157701498474196,-0.1716297369050671,1.0374706309637183,0.1546363849983969,29.81158555221794,-27.295995901408308,13.586500754081309
1760958994.6449027,-23.127148242811042,-0.24748263834513415,0.9789860045628583,0.16989913001960988,28.248728942324856,-15.53057410398721,17.0406708078656
1760958994.6549866,-23.121344591916646,-0.32097635184797463,0.914805599972077,0.1737367131670856,25.88641164765847,-3.9817903512966506,19.37942673734711
1760958994.6650233,-23.13541349897176,-0.3866460325870946,0.8556613440762033,0.16569209457588957,22.997856953879943,6.6301305290607875,20.879403361258355
1760958994.6748083,-23.15781556320133,-0.44096629772649093,0.8118448923425489,0.1466509174336232,19.916992607424515,15.69206648589275,21.85935842514507
1760958994.684779,-23.17258011881051,-0.4825386253025609,0.7915786297277897,0.11875639145337173,16.99295012629646,22.737404206476715,22.625180761511558
1760958994.6948066,-23.162158044604272,-0.511829735323382,0.7997303205363561,0.08515938278796072,14.544249439251026,27.46638101494006,23.420813982993174
1760958994.7047634,-23.11037350649286,-0.5305474273555109,0.8370414490553584,0.049628155373722206,12.819149713296417,29.748546942599255,24.39350492979377
1760958994.714784,-23.004952883537023,-0.5408134235477077,0.8999632244402285,0.016061438670284825,11.967657581506517,29.61050757852068,25.57933804534341
1760958994.724827,-22.839207115030028,-0.5443335776006851,0.9811218245157619,-0.01202999313157342,12.02911065410349,27.21324525894038,26.91144644004762
1760958994.735088,-22.612619457559713,-0.541772249645533,1.0703675947280724,-0.031991463114408404,12.937005658134803,22.823703873684725,28.249090288398463
1760958994.744972,-22.330312496508423,-0.5325005126747643,1.156287734286691,-0.042361056718028055,14.539853802270796,16.785181027203304,29.421563024483277
1760958994.7550426,-22.001587375490402,-0.5147984673421033,1.2279684524715473,-0.043020697798776715,16.633731669908574,9.490507596954034,30.277431365623833
1760958994.7649238,-21.637891176972364,-0.48646251240123367,1.276702152807033,-0.03515380405476651,18.999676318415172,1.3608672976361746,30.727974066058763
1760958994.7748172,-21.250639882479803,-0.4456384691810324,1.297298351756794,-0.021042042817545827,21.438110678339687,-7.168757685972854,30.7747878748295
1760958994.7848873,-20.849300018218987,-0.3916242598699078,1.2887186322366744,-0.0037466202855942214,23.793637663748306,-15.658924724656194,30.515491842438415
1760958994.7947764,-20.44003481583079,-0.3254026052350424,1.2539192136377282,0.013290960517023076,25.966469482458084,-23.673443282721575,30.127109103516016
1760958994.8049102,-20.025087228094325,-0.24977252538499617,1.1989963273474025,0.026702370107203315,27.91030783636024,-30.79002960995607,29.832017133891814
1760958994.8151565,-19.602937282322856,-0.16909071650453217,1.1319006387110793,0.0336606003545252,29.619422676545362,-36.61752500848216,29.854626159862516
1760958994.82493,-19.16915556962685,-0.08873541066225642,1.0610488622955139,0.03229383859398259,31.109383697962116,-40.82049894788105,30.377678058320072
1760958994.8349977,-18.717784071060894,-0.014434138287575666,0.9941100704983966,0.021956921243101862,32.3964284363469,-43.14846063300358,31.50590594034245
1760958994.8447974,-18.243011864594404,0.04842243049454993,0.9371316749834988,0.0032871088541349424,33.480044460559604,-43.46409043054043,33.24275134609816
1760958994.854991,-17.740881002187077,0.0953871092943106,0.8940542408580572,-0.021977739234893108,34.33219763810872,-41.76404203039841,35.48349883783379
1760958994.864923,-17.210760713723314,0.12341381038316446,0.8665816027456692,-0.051373440648173715,34.89504974072085,-38.187065261873954,38.02566785226193
1760958994.8750594,-16.656364777968015,0.13112139899661707,0.8543350515923391,-0.08217809090581002,35.087376572171436,-33.006724498658926,40.5948643443715
1760958994.8849995,-16.086151285552088,0.11884831112570357,0.8552190916965092,-0.11185953276837418,34.81843592249561,-26.608952791450516,42.88188561235612
1760958994.8949537,-15.513026422866309,0.08851290867268799,0.8659369837275855,-0.13840846563963585,34.00670881708864,-19.45742975347278,44.58519154211253
1760958994.9048722,-14.953362267881763,0.04332162034486392,0.8825933917245253,-0.16051229298427955,32.59983635314459,-12.05180717563055,45.45226848485024
1760958994.9149117,-14.425421685906255,-0.012613356991741629,0.9013071001312281,-0.17757565013271512,30.591613569426983,-4.884731115910657,45.31398959883842
1760958994.924876,-13.947354445093561,-0.0746784018405623,0.9187472558936788,-0.18962638878106425,28.03246380947682,1.5967595574371714,44.107587722091544
1760958994.9348233,-13.534985531100041,-0.13812836877047227,0.9325175643513621,-0.19715500143987966,25.031300203469403,7.021393455444763,41.88586819036079
1760958994.9448552,-13.199658450087009,-0.19839384967920953,0.94134337982135,-0.20092985129774613,21.74851681796494,11.113518488476942,38.81231909954538
1760958994.955057,-12.946418470798807,-0.25132907434156304,0.9450555054257429,-0.2018214563186902,18.38141045852268,13.702981286632092,35.14345599562331
1760958994.9647765,-12.772811923516128,-0.2934212323671626,0.9444011275368038,-0.20066086133372787,15.144297754971642,14.726902817964785,31.200920211419838
1760958994.9748182,-12.668523776291964,-0.321977502410145,0.9407396012630221,-0.19814835064691788,12.246020335692554,14.225686609767488,27.33660885977842
1760958994.9847775,-12.615971834296873,-0.33528716797298425,0.9356940415184706,-0.19481773246691989,9.867632064386882,12.335078392108683,23.894596827776812
1760958994.9947624,-12.59183598600506,-0.332738885794961,0.9308265749165056,-0.19104923965513332,8.14295854443833,9.275079696245074,21.17389629881304
1760958995.004827,-12.569354232909083,-0.31486831550869404,0.9273875136562351,-0.18711404972516515,7.144407285335698,5.3356000015858935,19.396172100535967
1760958995.0147946,-12.521094592297436,-0.2833181985908856,0.9261636481448103,-0.18322877728558706,6.875833540518697,0.8583249241214062,18.68228241220803
1760958995.0247965,-12.421834753994247,-0.24070423480947328,0.9274278025640248,-0.17960017410421034,7.2734053281963025,-3.785490590566469,19.04076041457726
1760958995.034851,-12.251161460019448,-0.19039079454426927,0.930976504889179,-0.1764473729099746,8.214327728830092,-8.220822944257854,20.369958313727928
1760958995.0449147,-11.995445478690574,-0.1361914500734243,0.9362343345958938,-0.17399824581619722,9.532148590825702,-12.09671871829027,22.473619415828075
1760958995.0548594,-11.648953609325075,-0.0820223380971593,0.942399007317539,-0.17246428600416086,11.03639304680733,-15.11357269569269,25.087495549401737
1760958995.0649111,-11.214006896607604,-0.0315488444610046,0.9485994266867765,-0.17200288233683084,12.533683598784556,-17.046620109519157,27.912854476684906
1760958995.0749652,-10.700248615015086,0.012127991276507967,0.9540406265388679,-0.17267736986315455,13.847454030964927,-17.76251504477888,30.65182025142134
1760958995.0848033,-10.123209947878646,0.046703880657644616,0.9581152041402927,-0.17442521066791283,14.83386037668423,-17.22673545209982,33.03962171088335
1760958995.0951064,-9.502433086155229,0.07079617545284946,0.9604695584911073,-0.17704355241488212,15.39235926485362,-15.500959314165236,34.86981923368204
1760958995.1048548,-8.859427318221654,0.08395526598756438,0.9610228802228952,-0.18019856731405912,15.47041192573758,-12.731122258291672,36.0101037290973
1760958995.1149557,-8.215704995455043,0.08657557366380442,0.9599449341451614,-0.18346010540896573,15.062652435227013,-9.128223260844445,36.407937906373526
1760958995.1250577,-7.591088637771783,0.07973242172514602,0.9576036176984007,-0.18635751908057477,14.20548249222695,-4.94479616874897,36.086789946354536
1760958995.1349075,-7.002413994584657,0.06497718328266631,0.9544949056132325,-0.18844809177079244,12.968374432733649,-0.4501723200700867,35.134765565663315
1760958995.145098,-6.462687660228507,0.044123361719695685,0.951166923848633,-0.18938763636158693,11.443222953949057,4.092696355873261,33.6880166878531
1760958995.1553838,-5.980698218239869,0.019052498833870116,0.9481476567430864,-0.18899326051947365,9.732981931662312,8.44676913869706,31.911461043457162
1760958995.1651094,-5.561030761344378,-0.008437953331615856,0.9458833133869263,-0.18728976287976504,7.9406573408906125,12.41549654320482,29.97919936748505
1760958995.1748457,-5.2043991885803695,-0.036732084353366716,0.9446924642175911,-0.18453247777527276,6.159561872279142,15.851877765928188,28.056662822914934
1760958995.184833,-4.908191527497068,-0.064436787943375,0.9447397123065396,-0.1812004612764968,4.465579708284984,18.662065312799538,26.28603670573488
1760958995.1949313,-4.667122173637829,-0.0903765241361319,0.9460311408270219,-0.17795574194002886,2.9120145320186643,20.8040969761346,24.77595730245758
1760958995.2050707,-4.473900847304962,-0.11356035731906743,0.9484312964892758,-0.1755683733554148,1.5273609847122456,22.282689543591054,23.595934004685247
1760958995.2149813,-4.319856881265131,-0.1331446868180384,0.951698108531903,-0.17481342160313154,0.31602569236574085,23.14122671838967,22.775460077203135
1760958995.2249103,-4.1954903104990855,-0.14841311216648964,0.9555289785726052,-0.17635295305805457,-0.7383434919116607,23.452123571320143,22.307375763258804
1760958995.2348757,-4.090947954795686,-0.1587858244013664,0.9596090329932837,-0.18062091428543786,-1.6675962755254952,23.306660092986764,22.154739826652197
1760958995.2451398,-3.9964371073703457,-0.16385727974828823,0.9636507703191555,-0.18773006968315656,-2.5127617351806286,22.805187276648116,22.260216596392123
1760958995.2548935,-3.9025917475257907,-0.16344776422204926,0.9674137547555025,-0.19741792578769618,-3.3175510700854733,22.048390183943386,22.556763547675654
1760958995.2650611,-3.8008006768386595,-0.15764778179148917,0.9706971289716377,-0.20904295680621524,-4.1223984377903555,21.130092303870693,22.978233475045993
1760958995.2749908,-3.683498601687062,-0.14683732361963134,0.9733085014485364,-0.22163348343983014,-4.9595433829199935,20.131901663065186,23.468466161348957
1760958995.2849069,-3.5444136432781868,-0.13167204616557363,0.9750254384434299,-0.2339812255503356,-5.849491004983092,19.119808699179067,23.987619756125763
1760958995.2951257,-3.3787602048050287,-0.11303829090555026,0.9755724959905762,-0.24476422189182104,-6.799067399563602,18.142664075977386,24.51490252308862
1760958995.305095,-3.1833656334218943,-0.09198467906286724,0.9746344189451793,-0.2526825674881913,-7.801149350453084,17.232347061390737,25.047446395915465
1760958995.314963,-2.956722776349492,-0.06964050329950332,0.9719174302041845,-0.2565937604812208,-8.835950838474744,16.405407351962232,25.595697666286213
1760958995.324762,-2.698967148130929,-0.04713200473318253,0.9672587652708817,-0.2556380501399208,-9.873533536685386,15.665978598085866,26.176265960820075
1760958995.3350155,-2.411784485233242,-0.025506811366038447,0.9607715100505739,-0.24934512153614757,-10.877050083407136,15.009747309889047,26.80356644959036
1760958995.3448765,-2.098259146744976,-0.005673744129175704,0.9529989188747837,-0.23771197330536772,-11.806192595137455,14.428681976180766,27.481735577953494
1760958995.3549888,-1.762674955385856,0.01163922598002354,0.9450422445597485,-0.22123984913272685,-12.620432756565073,13.916105497574376,28.198172896956116
1760958995.3649595,-1.410279251739184,0.02590961811826859,0.938621427080092,-0.2009173521948314,-13.281878388590261,13.471580292867012,28.91970063980901
1760958995.3748596,-1.047021314753581,0.03682951372147054,0.9360303885501716,-0.1781389161897079,-13.757859854997202,13.105009886365542,29.591822300810463
1760958995.3848252,-0.6792798294820821,0.0443002384176861,0.9399587865029387,-0.1545540411949029,-14.023603818802044,12.839353374993527,30.14100438667417
1760958995.3949208,-0.31359928844597545,0.04841394220323591,0.953170566924433,-0.13185349899885535,-14.065465558041833,12.711401371377722,30.479416934109747
1760958995.4048889,0.04354194116886472,0.049425963029868965,0.978057142310542,-0.11151292190618259,-13.885109646608251,12.770201313688972,30.511261787569506
1760958995.414916,0.38591174480268237,0.04772546426771665,1.0161179200847243,-0.09453039844958505,-13.504723714218317,13.072993144935701,30.139764663657566
1760958995.424955,0.7076408765886774,0.043813294549056844,1.0674568499772177,-0.08121134726772963,-12.972828855442955,13.678934260905331,29.27409634943779
1760958995.4350052,1.003278098659434,0.03829442750230373,1.130407986827875,-0.07106452366077282,-12.369543838840459,14.641390886313667,27.835820643945453
1760958995.4449983,1.267803808337602,0.03188889208207136,1.201399328363287,-0.0628627647684665,-11.80938419608781,16.000033769456017,25.764801702790812
1760958995.4549665,1.4966389319151485,0.02545859164617456,1.2751242462500147,-0.05488080686238662,-11.439144857897755,17.77426143597736,23.024710068687025
1760958995.4653518,1.6856906064945782,0.020034350806382786,1.345027977978154,-0.045264108706161016,-11.428583451455587,19.959430126766264,19.608209602671423
1760958995.4750805,1.8314594399091826,0.016810320172920244,1.4040603986923552,-0.032438121678130316,-11.952826977117772,22.526884675240517,15.54147397634135
1760958995.4851305,1.931197851334007,0.017064212901644147,1.44560674560808,-0.015456776330650656,-13.16761885684761,25.427935292162832,10.886987792810272
1760958995.4949164,1.9830718687453317,0.02197555564127382,1.4644724781434328,0.005788555611475343,-15.181128367918674,28.601000459824434,5.743110584457118
1760958995.5049415,1.98625934819956,0.03235169131176958,1.457757575668461,0.03053418426964424,-18.028032378527556,31.98041808921138,0.23913384813080993
1760958995.5149596,1.9409260996710673,0.04831874911854405,1.4254284755207345,0.05727078572245474,-21.65198069483295,35.50499741693149,-5.474406543721406
1760958995.5249083,1.8480550916875216,0.06907006798937045,1.3704248443537483,0.08399003624297846,-25.901120961653206,39.12422893839666,-11.239044227228895
1760958995.5348992,1.709150341661571,0.09276791110462866,1.2982461088444077,0.10850333089515062,-30.538625544300867,42.80029082644188,-16.90311212922737
1760958995.544984,1.525879927237797,0.11666039070489859,1.2161088254919261,0.1287851421364979,-35.26692211494836,46.50475587758851,-22.3352248777376
1760958995.5550141,1.2997477858934048,0.1374185139685647,1.13187210778634,0.1432877034600232,-39.76131198980466,50.21017682148396,-27.434088433454455
1760958995.564943,1.0318841583282008,0.15164044213422306,1.0529526435245669,0.15116983522826272,-43.70663315366113,53.878166626901994,-32.1329632008627
1760958995.57509,0.7230193577994597,0.15642656459827778,0.9854120694760161,0.1523953273598912,-46.83025963550613,57.44675014722807,-36.39815445482337
1760958995.5848854,0.37366118782315777,0.14990701524698483,0.9333357448518296,0.14768573100730606,-48.92615615537795,60.82033263913984,-40.22207669670155
1760958995.5949562,-0.015555683210856899,0.13160753563824287,0.898556931319975,0.13834704906030496,-49.86734435926184,63.865468743524794,-43.61254947137626
1760958995.6049113,-0.443426074366532,0.10257102189783991,0.8807224898362236,0.12601770117566766,-49.60699997274294,66.41470231535367,-46.5807747430541
1760958995.6151474,-0.9077423486565234,0.06520433148220464,0.8776478220974359,0.11239897966530941,-48.17061284090132,68.27919095682014,-49.13068214422619
1760958995.6248307,-1.4049838993986707,0.02287992566507201,0.8858723078588846,0.09902625985452716,-45.642785919009775,69.26889467752025,-51.25193329061518
1760958995.6349752,-1.9302162749964997,-0.020626341028897793,0.9013060958443637,0.08712086368327182,-42.15235117830631,69.21721058298121,-52.91798662247682
1760958995.6449418,-2.4772465456452433,-0.06174921520324538,0.919858348485081,0.07753429752117871,-37.85877915198239,68.00558351237386,-54.089519397638036
1760958995.655215,-3.039029163426329,-0.09768248212715365,0.9379552297543474,0.0707678601671616,-32.94165379595939,65.5832559542451,-54.72247357040746
1760958995.6650355,-3.6082647203035867,-0.12676260036089262,0.9528875255815047,0.06703134210424402,-27.593605871196495,61.97808804289519,-54.77921328722789
1760958995.6750712,-4.178093521999998,-0.14862512046994594,0.9629653817395423,0.06630096111866118,-22.015864472379686,57.296081882397054,-54.24079685514473
1760958995.685303,-4.74276486328777,-0.16411992014438528,0.9674943151566766,0.06834871444361705,-16.414736763531018,51.70948238674437,-53.11817069214223
1760958995.6951451,-5.298165089219864,-0.17502012420675395,0.9666159628673714,0.07273716269914351,-10.997007887060967,45.4356243942646,-51.460194033949655
1760958995.7050002,-5.842112063732647,-0.18359633862519734,0.9610735713463833,0.07879608584641988,-5.962548581197649,38.710564505999116,-49.35680101812982
1760958995.714798,-6.37436534041561,-0.19214480256441704,0.9519632445146735,0.08561138285329498,-1.4933237237466268,31.762542897496278,-46.93627271492794
1760958995.7249184,-6.8963519165696985,-0.20255525204438782,0.9405182691968392,0.09205741364114862,2.260652957117399,24.79017587663511,-44.356485958643
1760958995.7350497,-7.410657812432141,-0.2159869929564433,0.9279506482807915,0.09689301276630959,5.196421874204238,17.948971896198998,-41.791065982702484
1760958995.7450607,-7.920377128799864,-0.23269611832966433,0.9153505861613186,0.09892252361856516,7.271148900412491,11.347667296330044,-39.41242552780904
1760958995.754871,-8.428434595145184,-0.25202800090089633,0.9036300279363606,0.09720008057785662,8.509781558779721,5.053631367195754,-37.374407686438076
1760958995.7648995,-8.936999097942305,-0.2725618605310774,0.8934936916225652,0.09123330451408013,9.004656175825268,-0.8952077399252989,-35.79736060459399
1760958995.774931,-9.447084569428103,-0.292373465078119,0.8854271722130601,0.08113052119170028,8.9060774584721,-6.475440101947556,-34.757912223998744
1760958995.7849863,-9.958398491097636,-0.30937102203044503,0.8797001861851774,0.06764251725207947,8.404940672200059,-11.663810381136287,-34.28472608021373
1760958995.7950625,-10.469456419191424,-0.3216559620549702,0.8763872851520607,0.05207671899815263,7.7102429713033285,-16.42620398133212,-34.36043551198198
1760958995.8049626,-10.977937786911319,-0.3278587769366933,0.8754049337373647,0.036097829199334,7.0252865331830545,-20.711590947559152,-34.92899381263833
1760958995.8151743,-11.481215355661575,-0.32739815163559177,0.876555962420512,0.02145875722050957,6.526309197328919,-24.45139147045702,-35.906922547139516
1760958995.825175,-11.976955189379684,-0.32061581332955313,0.8795687115539006,0.009719716977626271,6.346397348303592,-27.56392398379938,-37.19643073080019
1760958995.835091,-12.463669415026953,-0.3087589203795916,0.8841240975882277,0.0020120156587117087,6.566260013770335,-29.96316987500916,-38.69821115721073
1760958995.8450162,-12.941119498270787,-0.2938156223383741,0.8898744221324356,-0.0011093078613475266,7.212119953407307,-31.570854853950244,-40.322011683369574
1760958995.8551853,-13.410508706714504,-0.27824311867301715,0.896461841993791,0.000299786969355501,8.259805662301911,-32.33056535542661,-41.99380675656737
1760958995.8649285,-13.874452725309647,-0.2646440995067217,0.9035369587914134,0.0056483384170184486,9.64326342787365,-32.22219818901777,-43.659316205705125
1760958995.8749106,-14.336759628646034,-0.2554422323685087,0.9107669203132649,0.013969615161173874,11.265326513905531,-31.274655215707693,-45.28438246866582
1760958995.8849895,-14.802074431176296,-0.2525906446105168,0.9178209902284006,0.024118289870511653,13.008787909323035,-29.57465147009003,-46.853069036477265
1760958995.8949463,-15.275447985629297,-0.25733266309400255,0.9243334306628813,0.03495648039276143,14.746517898506141,-27.26997481512953,-48.364252918300004
1760958995.904842,-15.761879815211193,-0.27002703800969907,0.9298587785741225,0.04549054675152122,16.35021505966526,-24.566382185738817,-49.827127106749074
1760958995.9150326,-16.265866951172566,-0.2900485358448943,0.9338412830220628,0.05494081189168419,17.698025348550228,-21.71820129335471,-51.255665745140945
1760958995.9250188,-16.790973786093218,-0.31577571630450296,0.9356163367862064,0.06274837861128041,18.68155381714215,-19.013352171607423,-52.66195521207264
1760958995.9349904,-17.33942779198111,-0.3446786445396208,0.9344530259271435,0.0685405437539566,19.21277138863345,-16.753872044686602,-54.04846103559126
1760958995.9449618,-17.911746457785455,-0.37351773872666255,0.929638525194494,0.07208418430572423,19.231085038429182,-15.233244659965996,-55.399754673060094
1760958995.9548707,-18.506411765220964,-0.39865697896550745,0.9205977280940464,0.07325293189622564,18.710468088883733,-14.712020569784652,-56.674825286260294
1760958995.9649284,-19.11962499110753,-0.4164763666871631,0.9070333267158692,0.0720216919841455,17.666096034664363,-15.393421021098597,-57.80162059094367
1760958995.9749365,-19.74518820596279,-0.42384027392651014,0.8890615715242074,0.06848742996644867,16.159483856307553,-17.400853477144814,-58.67563629682871
1760958995.9849105,-20.37456142828594,-0.418549632461634,0.8673109487497509,0.06290426465657198,14.300810630956947,-20.759491151383205,-59.164021864365665
1760958995.9950047,-20.997132432366552,-0.39969335841670045,0.842952412245666,0.05571661935362925,12.247098419169406,-25.384177968948563,-59.11579582362672
1760958996.005118,-21.60071272369901,-0.3678298538870307,0.8176430515979342,0.0475759303577614,10.195233762770615,-31.075755653972287,-58.377588865505686
1760958996.0149891,-22.172245852149647,-0.3249684863085314,0.7933830438428332,0.0393318574878318,8.369379005286996,-37.52730834497935,-56.81320225968566
1760958996.0248551,-22.698690267658336,-0.27436557823662205,0.7722996148884806,0.031994494759992345,7.002971157888632,-44.340726243781376,-54.32447868938138
1760958996.0348175,-23.168020688441214,-0.22018162782811984,0.756380192161225,0.02666655386140879,6.316191698204208,-51.05256744411071,-50.8706475906242
1760958996.044899,-23.570276624998353,-0.16705823469263922,0.7471840852701943,0.024445044574048027,6.4905359678100805,-57.16683155144916,-46.48335714765844
1760958996.0548353,-23.898570339652295,-0.11966757595568116,0.7455701426563286,0.026295321612382166,7.642905687662797,-62.191400851930744,-41.27489668770079
1760958996.0649288,-24.149948951997278,-0.08227414272011575,0.7514848998918169,0.03290812117428797,9.802384379852374,-65.67480067565732,-35.43757592497084
1760958996.0748866,-24.325992047735287,-0.05833788765814028,0.7638577145752412,0.044558608746119006,12.89335744879725,-67.24043177109353,-29.23293135091227
1760958996.0849006,-24.43302570887192,-0.0501842541781357,0.7806424364554629,0.06099124915372516,16.728699940554826,-66.61611984577733,-22.970507505352092
1760958996.0948832,-24.481853878038475,-0.0587671186633284,0.7990271569688583,0.08135445592056324,21.01616042880269,-63.65736323512522,-16.97743322433831
1760958996.1053233,-24.48695135327474,-0.08355033670821778,0.8158056609809692,0.10420516708794092,25.379664389634303,-58.362940626142176,-11.561679216592417
1760958996.1149971,-24.465127530932055,-0.12252983782049508,0.8278715104181852,0.1275955809735674,29.3950697187605,-50.88167196233019,-6.973398195674198
1760958996.125308,-24.433750552417692,-0.17241072016971357,0.8327657597069199,0.14924185588313854,32.63724155830596,-41.509289099460865,-3.369786120194629
1760958996.1349306,-24.408707934568078,-0.22894044462372629,0.8291888385604814,0.16675949699816522,34.73276944499797,-30.67471671346108,-0.7892005926249748
1760958996.1450932,-24.402357144147565,-0.2873775658914539,0.817380504337324,0.17793696093765313,35.41090721533772,-18.915661626979077,0.8603785389296758
1760958996.1550596,-24.421769156482352,-0.34304870350589617,0.7992822248150244,0.18101190392139613,34.54484078477968,-6.844266672643634,1.7951232021559778
1760958996.1649501,-24.467570972542845,-0.3919234815514534,0.7784257211068475,0.17491408830932326,32.17630116796309,4.895366133751671,2.3304447017905225
1760958996.1749814,-24.533635989771742,-0.4311250263208144,0.7595364963498122,0.1594426232442182,28.51868346847518,15.674858957361913,2.839448574116885
1760958996.184964,-24.607752997356975,-0.4592936464085244,0.7478927747856919,0.13535049262730753,23.93686127363156,24.930436615749766,3.699769031199249
1760958996.1948836,-24.67324115444228,-0.47673246904946076,0.7485271432686968,0.1043161183286157,18.905346367381018,32.20806069459578,5.236209174674723
1760958996.2048953,-24.711300657169122,-0.48528679069007225,0.7653908174189973,0.06879205473193056,13.94987478875376,37.19939133004894,7.6680151513535515
1760958996.2149734,-24.70373721279642,-0.48794664807509,0.8006123128388146,0.03173790950690074,9.580448549774175,39.76352002643678,11.069665170057092
1760958996.2249663,-24.635612704087276,-0.48821523280141005,0.8539720301081066,-0.003730554356613421,6.225815001398182,39.930957940900726,15.352581974766423
1760958996.2349486,-24.497379220283108,-0.4893450897711792,0.9226872191361266,-0.03471714229005975,4.179764203178681,37.888968691726014,20.272224791475193
1760958996.2449987,-24.286147207997054,-0.49359017916723824,1.0015653741290593,-0.05887130433953842,3.5680544138257684,33.95042623447017,25.460918051844487
1760958996.2548409,-24.005896299936424,-0.5016362252856748,1.0835403613737966,-0.07460028912526065,4.341265011025756,28.511180328516843,30.482159436385906
1760958996.2650435,-23.666625211825966,-0.5123462503562977,1.1605509828560145,-0.08114183620314128,6.294069850559814,22.00280441114318,34.89787117629752
1760958996.2748845,-23.282619681093415,-0.5228954539354782,1.2246551123158893,-0.07852457464653714,9.106446473145377,14.84830702216596,38.33705987816281
1760958996.284911,-22.87016209056919,-0.5292817748369112,1.2692035128796706,-0.0674825222160716,12.398440173757702,7.427867759604552,40.55349853992973
1760958996.2949948,-22.44508804936845,-0.5271080003901967,1.2898496948428961,-0.04939038757422544,15.788281542596268,0.059822534124583354,41.46188802976988
1760958996.3048806,-22.02060071098162,-0.5124663412290502,1.2851785430635851,-0.026242516791003152,18.944255327137835,-7.001164863641391,41.14635556512288
1760958996.314912,-21.605684064919586,-0.4827393576311537,1.2568180031408518,-0.000633810527841883,21.623193121191356,-13.551215731945053,39.84101252606585
1760958996.324991,-21.204327987155846,-0.43716636379632334,1.2090362408991635,0.024342515965723007,23.691646779997466,-19.416392553342597,37.8878786856455
1760958996.3349674,-20.815619435442397,-0.3770927455129267,1.1479611114493034,0.0453546129226353,25.1286423036133,-24.433054417446975,35.68124026364338
1760958996.3448992,-20.43460028587632,-0.3058886293139299,1.0806278300230736,0.059257724190982734,26.01109278860435,-28.437866615519443,33.6087896834438
1760958996.3548784,-20.053673647596945,-0.2285709123002996,1.0140473165727526,0.0636077922988152,26.48482681609694,-31.272303717666052,31.99894476292116
1760958996.364825,-19.664276538564536,-0.15118985368641769,0.9544231577042841,0.057123784643387784,26.726170056990043,-32.801359021612754,31.081318979722397
1760958996.3749294,-19.258531886396018,-0.08006169805402846,0.9065748093393642,0.03995720066669832,26.900894790659752,-32.94131677437931,30.964286656185028
1760958996.3850093,-18.830637302572754,-0.020949942631873195,0.8735766919702462,0.01368400607589493,27.128275053711903,-31.688333320358616,31.63065891531013
1760958996.3952553,-18.377823927855783,0.0216848400432467,0.8566028922855473,-0.018979224597362458,27.45714024926888,-29.139048987112943,32.95001314485783
1760958996.4049008,-17.90080635981657,0.04524538812965625,0.8549667755362665,-0.05465513949182254,27.858159032235015,-25.49650945734804,34.70428477225173
1760958996.415171,-17.40372832258981,0.04927186129069902,0.8663480923509141,-0.08985873672073837,28.232917474462347,-21.0584868066625,36.621891282209326
1760958996.4250422,-16.893676882792953,0.03538484614476338,0.8871918685333464,-0.12150175536861006,28.43683413621957,-16.189602958207583,38.415069020874306
1760958996.4348862,-16.37988226691736,0.006920391534961918,0.9132398883530165,-0.14726151212595842,28.310503217313016,-11.282294506142577,39.81540647884762
1760958996.444923,-15.872736027453813,-0.03165478483738676,0.9401278409455927,-0.1657766051759158,27.713078391647088,-6.7138192525005955,40.60367061166446
1760958996.4550133,-15.382749715730032,-0.0754190545428884,0.9639637366645831,-0.17667485961784687,26.55168666717654,-2.8068554210750127,40.63155764097941
1760958996.4650106,-14.919549743552142,-0.11963102450597293,0.9818024021675049,-0.18046557804606667,24.802171441528152,0.2001167382682472,39.83444766769836
1760958996.4749405,-14.49097590824856,-0.16022520174197852,0.9919456892469899,-0.1783391592397082,22.51826436039255,2.169044025906445,38.23525995847584
1760958996.4851367,-14.102331774563641,-0.19411950374140285,0.9940277251521237,-0.17191798567185337,19.828265617409414,3.0645458167034123,35.94004596690167
1760958996.4950376,-13.75582770765359,-0.2193331358997652,0.9888872660245156,-0.1629988088281318,16.92025589598475,2.944187459419563,33.12619386621437
1760958996.5050251,-13.450258129326262,-0.23494651389783017,0.9782732751027146,-0.15332126070726224,14.018541036198496,1.9404293160216268,30.024287863060028
1760958996.5150683,-13.18095649352224,-0.24095274528496405,0.9644571605960037,-0.1443886525324143,11.355180034725306,0.23840343792457147,26.894939972071658
1760958996.5250087,-12.940066448737664,-0.23805465089480013,0.9498277246225012,-0.13735481346180298,9.140899444603592,-1.9468049642504084,24.00235320385923
1760958996.5348928,-12.717147724131163,-0.2274541343188482,0.9365307977979055,-0.13297630687185583,7.539486088237588,-4.390797228652685,21.586938972713497
1760958996.5450463,-12.500095571809643,-0.21066478418414653,0.9261971835855909,-0.1316173481268189,6.649022105683246,-6.877131964335657,19.83985160748529
1760958996.5549715,-12.276296301688166,-0.1893594288912317,0.9197855427864972,-0.13328934400796066,6.492206892264758,-9.210980816404659,18.882589958380674
1760958996.5650198,-12.033882464203728,-0.16524846111690633,0.9175497765762715,-0.13770920980686727,7.016627350966701,-11.229466079200057,18.754596776614434
1760958996.5749538,-11.76291089537259,-0.13997687322065766,0.9191209928933737,-0.14436705930224406,8.104385623584859,-12.808996141794017,19.410884363635102
1760958996.5849447,-11.456284965739293,-0.1150297090243535,0.9236746287751499,-0.15259934512907442,9.589192912063705,-13.869609179625833,20.730180393061
1760958996.594921,-11.110286331812807,-0.09164472904899146,0.9301402852036119,-0.16166531198248935,11.2780844928095,-14.376012049685034,22.53228488797923
1760958996.6050017,-10.724660124497367,-0.07074150437968302,0.9374099610092961,-0.1708232102132294,12.97446121731568,-14.334931456844787,24.60178879242439
1760958996.6150236,-10.302285869359972,-0.05288139405180325,0.9445087918646116,-0.17940014349619457,14.499292268823128,-13.78869924212395,26.714433594686238
1760958996.6249151,-9.848538373034998,-0.03827015170031384,0.9507068260864048,-0.1868480314933305,15.707963982718038,-12.805597472335572,28.662314031837823
1760958996.6350503,-9.370482282649753,-0.026806328715831832,0.9555659789246904,-0.19277945917352066,16.501239311182513,-11.468171031902218,30.274719446664573
1760958996.6450891,-8.876048424788028,-0.01816855693492728,0.9589291642455188,-0.19698068897950924,16.829843410739397,-9.861222842045958,31.4324184912212
1760958996.6550045,-8.373316036733785,-0.011926650388647604,0.9608667270670569,-0.19940301863562823,16.69308415970285,-8.06135263302481,32.07434828569721
1760958996.6649215,-7.869982460871072,-0.007656561123875757,0.961598674604503,-0.20013670982296694,16.132529712468827,-6.129619876167997,32.19677324183184
1760958996.6748714,-7.373050632805531,-0.0050376584500165765,0.9614107399539876,-0.19937382542304088,15.22209364888662,-4.108282202579517,31.845907396336
1760958996.6848443,-6.888714996838563,-0.0039132040330542225,0.9605791987104059,-0.19736762136744682,14.05599481808865,-2.0217617390182814,31.10567648049801
1760958996.6949127,-6.42238942122683,-0.0043025265667789026,0.9593148261183947,-0.194396107298622,12.736050951312926,0.11878230899304808,30.082699509393418
1760958996.7049227,-5.978804488593846,-0.006365320023981689,0.9577316055453222,-0.19073540147717882,11.359677405660968,2.3085007986006114,28.890686099510024
1760958996.7148967,-5.562105963212648,-0.010329853946920755,0.955841717927169,-0.18664523930953647,10.009791954288694,4.541089000086653,27.636285670576978
1760958996.7248254,-5.1759034226791565,-0.016402869266427235,0.9535750737083424,-0.1823664610519336,8.747561065467393,6.801803087020203,26.408027395557188
1760958996.7351606,-4.823239882827519,-0.024679302991841373,0.9508186256895647,-0.17812938608060774,7.608565348718461,9.062580905317638,25.269419500390335
1760958996.744811,-4.506475477563748,-0.035067435301882686,0.9474679203876898,-0.1741708374456619,6.602533368471499,11.28010700234398,24.256610381404027
1760958996.754887,-4.227098473021296,-0.04724124953551375,0.9434815605475964,-0.1707545724630423,5.716344803793306,13.397097934980437,23.38034400988624
1760958996.765073,-3.985493023600871,-0.060627210459045025,0.9389288516429029,-0.16818679639996598,4.919612186091973,15.34655724424839,22.631368316240064
1760958996.774939,-3.7807042496608,-0.07442798344241734,0.9340216403226578,-0.16681832221122975,4.171882333674348,17.05834706397221,21.988057102880937
1760958996.7850618,-3.6102472462975976,-0.0876812358743206,0.9291228878785309,-0.1670281843387406,3.430383932595975,18.467173328962783,21.424825140688704
1760958996.79508,-3.4700061796657082,-0.09934711860297407,0.9247266876380545,-0.16918808443905414,2.6572796642655208,19.520950836114906,20.91996001525095
1760958996.8050032,-3.3542609852315692,-0.10841335799801127,0.9214074001476574,-0.17361094341990782,1.8255305026269146,20.188459047086944,20.461737373702892
1760958996.8151228,-3.2558631245722434,-0.11400362458630367,0.9197399238662631,-0.1804892063470029,0.9227062763580808,20.465217399013813,20.052068388812227
1760958996.825067,-3.16656213086502,-0.11547457493355258,0.9201993673287426,-0.18982966637257093,-0.04765766130031836,20.376635320383,19.707369594938566
1760958996.8349738,-3.0774656142459476,-0.11248970249196581,0.9230561234552026,-0.2013924352320863,-1.0672724501459006,19.977754751541735,19.45677020848115
1760958996.8449683,-2.9795994130988213,-0.1050623272291505,0.9282888699300492,-0.21464292496105172,-2.1066822070467612,19.349293536366705,19.3381227162572
1760958996.8548927,-2.864521131958197,-0.09356358193238824,0.9355382378504803,-0.22872672165408953,-3.1306895391803082,18.590177379073765,19.392521278080046
1760958996.8648884,-2.7249279357973863,-0.07869320397622295,0.9441148851127994,-0.24247702372914642,-4.104738599311753,17.8072557464643,19.658145304863442
1760958996.87509,-2.5551901506398402,-0.06141298423375224,0.9530621495370499,-0.2544628225250406,-5.001113596596606,17.103357521310237,20.164242318936317
1760958996.8848863,-2.351742211528817,-0.04284724231577748,0.9612639025467632,-0.263083633530546,-5.803748343703188,16.565178747231542,20.9259691888742
1760958996.8948786,-2.113276916258831,-0.02416135678983819,0.9675855774962252,-0.2667128908662304,-6.510627395424037,16.25264770789655,21.94064896414628
1760958996.9049175,-1.8407167723681104,-0.006435218533015093,0.9710364322287414,-0.2638859616494045,-7.133148630390096,16.191348736075867,23.185790152472382
1760958996.9149528,-1.5369712021142508,0.009449080208808011,0.9709394416476841,-0.2535195140376784,-7.692333660537047,16.369299026307658,24.618975375156495
1760958996.92485,-1.206522557934946,0.022887678883543015,0.9670908461146727,-0.2351374480128997,-8.212358818667466,16.738874979884738,26.17948788933412
1760958996.9349887,-0.8549102312545764,0.03359103120758051,0.9598857565511838,-0.20906726398999262,-8.712481764514182,17.224005235271765,27.791343470091935
1760958996.945014,-0.48819572947443324,0.041570686562845134,0.9503818089336146,-0.17656319119060637,-9.198961954900815,17.731950146532984,29.367256565308434
1760958996.955056,-0.11248989251888974,0.04708073080551257,0.9402724741387988,-0.13981182806162412,-9.658886566347899,18.168191471633655,30.813010153172154
1760958996.965003,0.26639373246308173,0.050527091052912566,0.9317476809632489,-0.10178476964631387,-10.057808087874125,18.452319758689647,32.031733507525296
1760958996.9749763,0.6431243668642886,0.05236523373913105,0.9272335641699029,-0.06592264991881552,-10.342724827661787,18.53247852135467,32.92772321345119
1760958996.9849837,1.0128768117651201,0.05300945252880916,0.9290261467264473,-0.03566752904509422,-10.451179975025084,18.39600173219915,33.40964839509234
1760958996.9949505,1.3712199633551752,0.052774050445382206,0.9388644219791836,-0.013904317182664721,-10.326131391284123,18.074392656897118,33.39321664111599
1760958997.0049183,1.7139206233506403,0.05185964197307624,0.9575207791948154,-0.0024177088620673777,-9.934828500177003,17.641690067699425,32.80358465311626
1760958997.0149853,2.036723327437304,0.050388490376702795,0.9845081763623791,-0.0014973287958103838,-9.288443548396511,17.206426516582017,31.57792762978547
1760958997.0250373,2.3351685982084667,0.04848261595248876,1.0179974080368401,-0.009806900868555074,-8.458061926422838,16.898582197379547,29.668603191868876
1760958997.035,2.604505173861387,0.046368194144904576,1.0549943515290823,-0.02456976154786605,-7.582366602698405,16.853877821095995,27.047226406231207
1760958997.045117,2.839736615854407,0.04448028157994304,1.0917548479152968,-0.042037240728805304,-6.863285742770539,17.1981648242052,23.709660581384703
1760958997.055058,3.0358187400557153,0.04353432249891613,1.1243440565827219,-0.05813449464134964,-6.547913380128103,18.034458448209335,19.681382097771557
1760958997.0650673,3.187991307040144,0.04452771289161983,1.1492124520948996,-0.06914540712550374,-6.897778499252911,19.43440635754579,15.021959648076304
1760958997.074949,3.2921887806481136,0.0486408848672815,1.1636750196477912,-0.07230630017738114,-8.149570077298248,21.43491318561549,9.826792913394623
1760958997.0851674,3.345441143208704,0.05702756498619711,1.1662271764630385,-0.06621290320386049,-10.474051543767587,24.039520611051252,4.224252031060933
1760958997.0951166,3.3461612689508766,0.07051603800104085,1.1566816837657592,-0.05098848678117667,-13.941182399136355,27.22320243395155,-1.6327789594648612
1760958997.1051648,3.2942301289241693,0.08927771704997843,1.1361448143758124,-0.028200089506150793,-18.49875765228136,30.93862474379253,-7.580466779618622
1760958997.1151094,3.190834595613507,0.11254510787429278,1.1068622116370344,-0.0005421250576508101,-23.9693175997067,35.121755749958744,-13.460703348437352
1760958997.1250455,3.0380747567502144,0.13846976334780245,1.0719611652641565,0.02866022552449341,-30.066368515436928,39.695069764815614,-19.13787059702889
1760958997.134927,2.8384220919461627,0.1641947081649096,1.03510873724213,0.05604019874683578,-36.42693210688742,44.56743594294263,-24.512371632740585
1760958997.1452916,2.5941576531629607,0.18617207833319124,1.0001064728470392,0.07875908167837067,-42.65408347151488,49.63089442684234,-29.52804394745136
1760958997.1549203,2.3069347879552167,0.2006935656605174,0.9704540093472832,0.0949449168844494,-48.36142318652567,54.75557459343226,-34.17167610536711
1760958997.1648946,1.9775873905916228,0.20453807257902865,0.9489274718376918,0.10391841323000306,-53.21181610969867,59.784738390742206,-38.46442004501583
1760958997.1751614,1.6062469400665467,0.19559927082509765,0.937227736685608,0.10617474564562833,-56.9448798543782,64.53225333027544,-42.44661163427049
1760958997.184997,1.1927542333063093,0.17334938922985582,0.935756367729737,0.10314692991585957,-59.390765673385246,68.78474449707424,-46.15902165384906
1760958997.1951153,0.7372752389657421,0.13902695483705843,0.9435687497071854,0.0968236374250375,-60.47078560585456,72.31020738198859,-49.624489821856564
1760958997.2050219,0.24097556478817223,0.09549724437132454,0.9585293580595968,0.08931930357752764,-60.18766846495002,74.87385780147606,-52.83393253794556
1760958997.2151392,-0.29341099864109116,0.046808166088402235,0.9776552692392219,0.08249224191797146,-58.60938557565298,76.26042823085385,-55.73977114014271
1760958997.2249525,-0.8612639915086491,-0.0024696658531061675,0.9975915517185457,0.07768122324556961,-55.85068595682644,76.30025493119858,-58.25816656811338
1760958997.2352998,-1.4560995120026086,-0.04798837302982283,1.015129871860566,0.07559382728467402,-52.05597184780286,74.8948736505665,-60.27958698914657
1760958997.245168,-2.069956468990717,-0.0863125291115396,1.0276706685348758,0.07634217806668031,-47.386150311955944,72.03705092770724,-61.68567830198323
1760958997.2549937,-2.6940948190780976,-0.11542860225237939,1.0335433965787129,0.07958965821493799,-42.01080012802042,67.8205989340337,-62.36943649241936
1760958997.2650716,-3.3198941030620186,-0.13498750720928512,1.0321338462516036,0.08475016503868586,-36.10557768521578,62.436926614729465,-62.255342814751145
1760958997.2750657,-3.9398013240001073,-0.14624596466046594,1.0238128473270918,0.09117554119778966,-29.85344821716818,56.157672979117095,-61.31632189968496
1760958997.285575,-4.54816464713369,-0.15173052181470117,1.0097057650525518,0.09828064182640815,-23.44730020784447,49.30539244483002,-59.58498133803719
1760958997.2949233,-5.141805254956564,-0.15470025985842287,0.9913750517377936,0.10558429407339547,-17.091041525617133,42.21658883289195,-57.157451356518536
1760958997.305187,-5.720222092413924,-0.1585181801759537,0.9704984602838678,0.11267653682767109,-10.996590765434325,35.20298119265206,-54.18912543596342
1760958997.314961,-6.285386881417438,-0.16605019321040787,0.9486114321693501,0.11914685142526202,-5.375271631284027,28.517382758889394,-50.88260251221496
1760958997.324933,-6.841159136033874,-0.17919550890045083,0.9269523709243589,0.12451839055139005,-0.4237243125211278,22.329811120221745,-47.46912136298119
1760958997.3349326,-7.39242036980106,-0.19861937743920527,0.906416775887565,0.12822761919371475,3.693884696248187,16.717531986439063,-44.185740940299276
1760958997.3448758,-7.944080635873504,-0.22371682034039228,0.8875995148665448,0.12966942013320176,6.864284995684092,11.67008662059976,-41.2513289845608
1760958997.3549354,-8.500137417575743,-0.2527928259266819,0.8708882179100383,0.12830147133734945,9.040480136075253,7.107592579053809,-38.84482443910829
1760958997.3650253,-9.062958346407584,-0.28340855821428795,0.8565670665788531,0.12377816868060812,10.25063855637632,2.9083722010571416,-37.08899548449616
1760958997.3749042,-9.632913797976345,-0.3128202331715635,0.8448981267038081,0.11607169856492036,10.598138398277626,-1.0593224921351534,-36.041976506317724
1760958997.3850946,-10.208411237537936,-0.3384295072090802,0.8361613483955098,0.1055400198291352,10.252092906824362,-4.906923198110948,-35.697460278053
1760958997.3951216,-10.786297976431214,-0.3581708274907295,0.8306483338466122,0.09291707277025084,9.429506144710679,-8.701180633808958,-35.99292238058161
1760958997.405133,-11.362526054491779,-0.3707802328427637,0.8286165403228911,0.07922318383827961,8.371711183704354,-12.449110361217768,-36.82399140791877
1760958997.41494,-11.932932036045822,-0.3759173122233506,0.8302193760630677,0.0656154879570105,7.318633279400258,-16.09386316255182,-38.062251296585444
1760958997.4249585,-12.493981862138092,-0.3741402111623169,0.835432075002511,0.053213303695880496,6.484567782138467,-19.521475753404225,-39.573463481308174
1760958997.4350412,-13.043358052507523,-0.3667560479969665,0.8439921201709993,0.04293818700048292,6.038593172904644,-22.57702060021732,-41.2334314924396
1760958997.4449954,-13.580309678743193,-0.3555840657877904,0.8553683700965566,0.03540148485146904,6.091657180165256,-25.08760986183989,-42.9394313384155
1760958997.4549057,-14.105734565023246,-0.34267799566423945,0.8687680031166338,0.030856233562035693,6.691089921208337,-26.88910293343516,-44.61615934483251
1760958997.4650326,-14.622011530696334,-0.33005692348905574,0.8831846961843994,0.02921160162145229,7.822108891578296,-27.853186564671056,-46.21628253269301
1760958997.4750824,-15.132640426713087,-0.3194863253928107,0.8974823557028657,0.030092897299039877,9.414999917506067,-27.911625947571,-47.71663498569359
1760958997.4851356,-15.641770395135346,-0.31233106624485785,0.9104969303764151,0.032921675633783704,11.35620910813514,-27.07483713990399,-49.111641176075246
1760958997.4950876,-16.15369709431505,-0.30947617235364927,0.9211312699381204,0.036990346585922755,13.501594187609598,-25.442494630461418,-50.405558315469214
1760958997.5049522,-16.67238972703719,-0.31129098921096277,0.9284218987010328,0.04151482652586338,15.690472955079958,-23.20468390239259,-51.60470710575548
1760958997.5150025,-17.201077340411796,-0.3176076786487907,0.9315713946406798,0.045665171944038734,17.75965561298421,-20.63311016298698,-52.71026069995521
1760958997.5253108,-17.741893241989466,-0.3276976838746564,0.9299572426451898,0.0485912454977986,19.557089450289286,-18.062944429487853,-53.71168856853639
1760958997.5350068,-18.29555818562469,-0.34025339844850516,0.9231386243431301,0.04946948844700072,20.954914963807706,-15.866817304122849,-54.58082778845418
1760958997.5454187,-18.861084234383483,-0.35340540758821887,0.9108831671819229,0.04759156659771136,21.861636044361223,-14.423112538615396,-55.266841916208094
1760958997.5550146,-19.43550131714815,-0.36481631821433547,0.8932272217631076,0.04249639730995709,22.232824406078603,-14.081083843997886,-55.69290353610551
1760958997.5651023,-20.01363945972374,-0.37188281390477984,0.8705678088220569,0.034121466482078755,22.079370268732568,-15.125561537490386,-55.75601510490709
1760958997.5749974,-20.58802907570569,-0.3720486205391608,0.843764722563696,0.022929036837805842,21.471837813534336,-17.744259937109753,-55.331598286328386
1760958997.5850215,-21.148996581472193,-0.36319137469828167,0.8142133527193709,0.00995836799059775,20.539197354011083,-22.00091529431381,-54.284030833221685
1760958997.5949464,-21.68502369219226,-0.34401159998068703,0.7838423824435564,-0.0032294877192812488,19.460407393011526,-27.817457057979773,-52.48312912264341
1760958997.6050627,-22.183404852483715,-0.3143395832081841,0.7550036552034405,-0.0147180399211857,18.448208603029684,-34.967876581050554,-49.82495749217948
1760958997.6149404,-22.6311864298301,-0.2752936887581997,0.7302514190619874,-0.02248527912160553,17.725920892861005,-43.08532553456998,-46.25385518905914
1760958997.624999,-23.016316637275253,-0.2292607839153566,0.7120403546016186,-0.02468865100226853,17.499555804632656,-51.68243399626378,-41.781750152656734
1760958997.6349463,-23.328888472365414,-0.17970497018414458,0.7023918014222754,-0.019932139933076107,17.928712478404407,-60.18321666773609,-36.500926433821085
1760958997.644928,-23.562326895342313,-0.1308322317659729,0.7025821777192041,-0.0074738051532352535,19.100284701355886,-67.96357298656592,-30.58733540967929
1760958997.6549428,-23.71436024799625,-0.08714875482453711,0.7129028552326114,0.012648370473360175,21.00895358133361,-74.39656190171975,-24.29297903303803
1760958997.665026,-23.787626553425905,-0.052958455636840256,0.7325328189633571,0.03957738494359723,23.547841394066975,-78.89851300604234,-17.9274783095309
1760958997.6748805,-23.78979785366497,-0.031855289176488916,0.759554988603845,0.07168143327371877,26.511620050649114,-80.97257740141994,-11.83039358429996
1760958997.684982,-23.73315774259954,-0.02627558765108675,0.7911309405980685,0.10667599169580616,29.61286036036301,-80.24720900622945,-6.337065327622823
1760958997.6949608,-23.633633188833603,-0.0371780333975395,0.823825371837477,0.14181650055301553,32.51058259834458,-76.50786383089964,-1.7416556152040552
1760958997.7049882,-23.509353169240875,-0.0639079502355923,0.8540447473599548,0.1741480397531543,34.84805632180057,-69.72060843077236,1.7383612756189875
1760958997.715017,-23.378874252749476,-0.10427741878059354,0.8785310270248786,0.20078843175368571,36.295276462047816,-60.04628355421589,3.991832328595032
1760958997.7248828,-23.259268366874437,-0.15485742447007836,0.8948361956377744,0.21921357392349805,36.590624457714945,-47.84353611810789,5.033501596366828
1760958997.7349699,-23.164301620779586,-0.21144046015345475,0.9016994420632792,0.22751351499814712,35.5762402643923,-33.65873235209147,5.010099097231927
1760958997.7449188,-23.10293641535113,-0.2696008270103312,0.8992599730556541,0.22459419691869473,33.22251556114109,-18.200891761651814,4.19087291835951
1760958997.7549882,-23.078357267482254,-0.3252628591893525,0.8890665819873201,0.2103085877655709,29.638568332893712,-2.3006928941862235,2.9424114133796357
1760958997.7650793,-23.087656578989908,-0.3751878527426439,0.8738838660341725,0.18550819661669773,25.067200012372634,13.145547672415107,1.6897829461600737
1760958997.7749088,-23.122229890144986,-0.41730717875977746,0.8573310204966192,0.15200951002032406,19.86439613713589,27.243483836177276,0.8680388322306162
1760958997.785028,-23.168835051267976,-0.4508562180549725,0.8434119457874841,0.11246986206183296,14.464878335966665,39.17389872724119,0.8696379138333425
1760958997.795088,-23.211181687072877,-0.4762939782983059,0.836002865572633,0.07016690046361825,9.336712002648607,48.26341002336255,1.994210687440724
1760958997.8050199,-23.231849696300564,-0.4950221172253858,0.8383587616442448,0.028681578926225946,4.929612055844902,54.04393779845396,4.4072662724488785
1760958997.8150537,-23.21429607013575,-0.5089455760801292,0.8526875542131841,-0.008496470816432176,1.623166790521326,56.29292701074031,8.1139202482387
1760958997.8249242,-23.14470038067786,-0.5199472202209172,0.8798278976973724,-0.03839028125601155,-0.31776506744686,55.0486839644086,12.952360283434949
1760958997.8349562,-23.013421454692192,-0.529376114534233,0.9190592028840219,-0.058901731663060036,-0.7733309380084697,50.598727758464555,18.60943809019818
1760958997.8450272,-22.8158906208428,-0.5376603842536145,0.9680721369066,-0.06903341385986737,0.2208097366476429,43.44300996046742,24.657565456813188
1760958997.8550332,-22.552845671621924,-0.544138831845884,1.0231278486300088,-0.06890713333485378,2.484840667528966,34.23735351344588,30.608471155218606
1760958997.8650947,-22.22990300309446,-0.5471592465519234,1.0794237649997434,-0.059581108354571234,5.7257545419361096,23.7248823081899,35.976121062264525
1760958997.874909,-21.856557858499603,-0.5444263598612078,1.1316548442090555,-0.04273706819665801,9.581664592249163,12.664382652530037,40.33906672621162
1760958997.884921,-21.44477867474525,-0.5335169473080282,1.1747119987249564,-0.02035610464819128,13.670946300014114,1.7645201175203993,43.392388095337644
1760958997.8950605,-21.007409022109492,-0.5124351547063494,1.2044066164395202,0.005498060090892942,17.63798170048589,-8.368381316356563,44.98151200534887
1760958997.9049726,-20.55660324061612,-0.48007539746955724,1.2180762199696258,0.032728404634330494,21.18971365107354,-17.26374929260556,45.11398520808137
1760958997.914977,-20.102500714239532,-0.43649772198431275,1.214936583273499,0.05912371959492705,24.1203834071378,-24.599632332573186,43.949505284677564
1760958997.9249158,-19.652296889146207,-0.38298788995090777,1.196106783165749,0.08226892147761189,26.32410251049103,-30.197260027473334,41.77188066501251
1760958997.9350157,-19.209807418279215,-0.32194060304869915,1.1643236065394138,0.09958522346795097,27.795589470097234,-34.00285702613413,38.94845903608129
1760958997.944952,-18.77555240325345,-0.2566332463942219,1.123440271036232,0.10857394146099247,28.619182626688055,-36.06385428707943,35.88305821042021
1760958997.9550686,-18.347313971207168,-0.19093833372403082,1.0778386727499731,0.10722868580868374,28.946520299769702,-36.50597045073607,32.968113796722236
1760958997.9649985,-17.9210491534352,-0.12898495011871244,1.0318694392957763,0.0944890331143583,28.964882030311305,-35.515108706702165,30.5411503647638
1760958997.9750662,-17.491985880447217,-0.07476439818000354,0.9893913462959545,0.07057731893957454,28.860688241235863,-33.32465358674493,28.84998311636339
1760958997.9851859,-17.055710035554014,-0.03169716940170704,0.9534387578285546,0.03709549380300537,28.784715018180492,-30.205815528937656,28.03013846557967
1760958997.9949982,-16.6090748461855,-0.0022183809527879807,0.9260190059581054,-0.0031605939232311506,28.825873577484572,-26.457268543514704,28.096626882867888
1760958998.0049136,-16.150822885392564,0.012533842712380082,0.9080325280211065,-0.046622560935163586,28.998532971357513,-22.390940988459626,28.95037226812979
1760958998.0149276,-15.681883063827353,0.012848816152266919,0.8993086219894171,-0.08949694197837951,29.2450831912899,-18.312994393210918,30.397592457770074
1760958998.024894,-15.20536567907403,0.00035433575369968405,0.8987480249339567,-0.1283125916634075,29.45206503419441,-14.501622178793921,32.17875828051223
1760958998.0349493,-14.726314015742075,-0.02227392967976127,0.9045555088069456,-0.16036502340974304,29.475774694574625,-11.185191256699351,34.002861501189265
1760958998.0451543,-14.251279184319502,-0.0517374490611158,0.9145348276420434,-0.18399643068811933,29.172114663248948,-8.524851692114149,35.58266323507024
1760958998.0549471,-13.787772001708541,-0.08457955446236387,0.9264091197836454,-0.1986921794326397,28.425395448908834,-6.605060190564352,36.667119938569805
1760958998.0649645,-13.343625319459631,-0.11759615017544152,0.9381235650352823,-0.2050080302198334,27.17146956976534,-5.433861288514723,37.067966250647935
1760958998.075089,-12.926289254842217,-0.14812611918254484,0.948086359083805,-0.2043648027837407,25.411801011242698,-4.952750239597311,36.67826832535536
1760958998.0849035,-12.542089744983148,-0.17419744668124632,0.9553134242161401,-0.19875904739666073,23.216697506112922,-5.05403494486485,35.481591533647716
1760958998.0949287,-12.195502409545336,-0.19454351175292814,0.959461319417736,-0.19044118434115473,20.71773428995808,-5.6022762354796845,33.55127340235104
1760958998.1048965,-11.888513914140601,-0.2085247037656297,0.9607550316724923,-0.18160845371360393,18.09107494423979,-6.455894948598041,31.040187028084983
1760958998.1151314,-11.620149849740423,-0.21599420625282179,0.9598361575307235,-0.17415048185326243,15.534680581337051,-7.485420959209945,28.162313635947108
1760958998.1251214,-11.386240265071173,-0.21714374862311134,0.9575688061981968,-0.16947168691536832,13.243125241366176,-8.585915442660026,25.168324705672706
1760958998.1350977,-11.179477280321596,-0.21236221582892956,0.954843717176696,-0.16839920867043043,11.383822210779226,-9.682487178224738,22.318031977954416
1760958998.1451805,-10.989796830142156,-0.20213485785199442,0.9524157120295588,-0.17117086109161872,10.077921724087009,-10.72921200331882,19.852835497397116
1760958998.1553583,-10.805084204706949,-0.1869978877102461,0.9507980738516958,-0.1774883412421482,9.388107666407905,-11.702881373174227,17.971146877308325
1760958998.1651466,-10.61215618117618,-0.16754340755072394,0.950223572573951,-0.18661828491434787,9.314262042815264,-12.593670248935101,16.809277190354297
