timestamp,angle,linear_acceleration_x,linear_acceleration_y,linear_acceleration_z,angular_velocity_x,angular_velocity_y,angular_velocity_z
1760515748.2725194,0.31415837833009297,0.10406464951827613,0.7824140439010551,-0.2654587231524261,5.514147675731957,1.7519501042619279,10.944846976159893
1760515748.2826262,0.5110344195283579,0.13626989159715844,0.7608139867072881,-0.2385306716759574,5.110542189040702,0.8687831578472593,10.049703326018946
1760515748.292563,0.7015574827991204,0.16951863259330646,0.750115775311845,-0.2151089361421341,5.017599949345162,0.5574744220778234,9.28788189787724
1760515748.3025362,0.8865979878752174,0.2011840320146497,0.7533677046697091,-0.1979934408815251,5.337119323361403,0.9204322163824389,8.785094065362953
1760515748.312577,1.067392297671086,0.22834613119436306,0.7720136190086226,-0.18943791442628563,6.134388698657485,1.996471935558352,8.644818625801912
1760515748.322532,1.2451956646359847,0.2479492236686662,0.8053733978111671,-0.1908814643358148,7.415076507590199,3.740567541690065,8.925219438326817
1760515748.3329735,1.4206872421531114,0.25687963215688286,0.8504603024874994,-0.20291949094051506,9.103530049245292,6.009021777149944,9.616421205008578
1760515748.342545,1.5931304113681357,0.2519744528635142,0.9022021480969806,-0.2255240987820692,11.026173151023533,8.553786399340597,10.621672639913905
1760515748.3525345,1.7593743047109573,0.23005483793938022,0.9540092060092611,-0.2583981135251027,12.904168206172175,11.0294900474702,11.746342015483737
1760515748.3625832,1.912877826146061,0.18811483477639845,0.9985505452163107,-0.3012815237880808,14.359511707676388,13.015794640425238,12.698619053183604
1760515748.372603,2.043008229827385,0.12375742704766511,1.0285942383736826,-0.35405869598245343,14.937993633793186,14.0559632913086,13.105133067507262
1760515748.3825355,2.1348789182866956,0.03587650426290992,1.0378070874448941,-0.4166010834024048,14.150755214369568,13.710124237617439,12.543329872823183
1760515748.3925688,2.16993024489106,-0.07452239900733443,1.021456908614953,-0.4883758743798434,11.533505608743667,11.618900747209118,10.590306002627848
1760515748.40254,2.127333820631403,-0.20355564164040352,0.9769918079012967,-0.5679302424627738,6.719024244608097,7.570137392173222,6.884945519884268
1760515748.4125605,1.986150485506742,-0.3439844059104573,0.9044773859578256,-0.652408620039896,-0.48519316233047494,1.5587771953837044,1.196913434645992
1760515748.4225318,1.7280342081622337,-0.4852497272871238,0.8068594698704593,-0.7372691777507087,-10.025800978936273,-6.171888926321399,-6.507193003276953
1760515748.4325447,1.3401689731228488,-0.6141794031183584,0.6900014167448669,-0.8163389795925807,-21.553158850618875,-15.119610211324808,-16.012785371064652
1760515748.4427285,0.8180523110215986,-0.7164211973977422,0.5624342834921089,-0.8822933168092949,-34.40639450090695,-24.553043520626694,-26.834600760345516
1760515748.4525194,0.16769399110488756,-0.7785113999913892,0.4347636536492443,-0.927567736865382,-47.64657454573843,-33.586705472061354,-38.234280727946775
1760515748.4626288,-0.5932080491503016,-0.7903011444335051,0.31870869427994963,-0.9456112085157775,-60.14455241775267,-41.2968796522962,-49.285367516022944
1760515748.4725358,-1.4354912764914411,-0.747247789551826,0.22581812218493053,-0.9322649416633869,-70.71958600338981,-46.86242590720586,-58.984128615575045
1760515748.4825573,-2.320360222993338,-0.6519102747831332,0.1660108368490938,-0.8869190621810148,-78.31049658768742,-49.702178132441745,-66.39219708502334
1760515748.4925668,-3.202746215536358,-0.514033899612501,0.14618774616412203,-0.8130358767429823,-82.14666324443976,-49.57482987321471,-70.78399470218976
1760515748.50256,-4.03577320023641,-0.34900653616673866,0.16918995587213734,-0.7177619445658827,-81.8789108185029,-46.61460629896661,-71.76491347137687
1760515748.512635,-4.775654494403281,-0.17509006252576917,0.23330912161938894,-0.6106967108304178,-77.63715372047749,-41.29521266152579,-69.3315314373617
1760515748.5225587,-5.386290989149807,-0.010303864983186495,0.3324444697747622,-0.5022294345350368,-70.00170745655755,-34.33543320203304,-63.86192082352673
1760515748.5326183,-5.842966818340614,0.1301417165791262,0.4569057794082282,-0.40195247192040046,-59.899131114717456,-26.572817562422685,-56.04373893826902
1760515748.5425568,-6.134732991788612,0.23536586516732874,0.5947587428818573,-0.3174980956799378,-48.450748835643004,-18.8347623087848,-46.76126025561186
1760515748.5525494,-6.2652491596294455,0.2993092505640097,0.7334787956092148,-0.2539079580365435,-36.80790713162973,-11.831476529980502,-36.96685509229329
1760515748.5625656,-6.252015888035094,0.3205224691437161,0.8615917914765404,-0.21347370850048397,-26.00415761972621,-6.086193862395926,-27.55991840971389
1760515748.572619,-6.124106369486564,0.30159084634852024,0.9700036616304306,-0.1959160731043613,-16.845203375393087,-1.907574211901513,-19.290250659167203
1760515748.582639,-5.918697814024923,0.2483939248789503,1.0528313179978073,-0.19877220222486863,-9.846593844914539,0.6000570296153991,-12.695657560155752
1760515748.5925486,-5.676866730946055,0.1692669486214123,1.1076751265644924,-0.2178979466775111,-5.219466781196785,1.4995125094592314,-8.076434694613601
1760515748.602544,-5.439203551627937,0.074078691610899,1.1353806418396024,-0.24802833162888469,-2.8975266951243372,0.9703119319398068,-5.503437194124088
1760515748.6126063,-5.2418051868869835,-0.026754097797197906,1.139414400994149,-0.2833600075474705,-2.59427668386782,-0.7421746638712079,-4.852261966785186
1760515748.622538,-5.1131266613402975,-0.12326750649195559,1.125019107795101,-0.3181262245880077,-3.8778925287184904,-3.3689117395442305,-5.853917703348538
1760515748.6328132,-5.072026491918596,-0.206885583088757,1.0983122414027993,-0.34713554481809605,-6.2513829065522435,-6.646459396624633,-8.152090388645957
1760515748.642531,-5.127143912417584,-0.27118103907922597,1.0654567010007845,-0.36624376069638354,-9.227277092986222,-10.33341537131254,-11.358307869937372
1760515748.6525385,-5.2775361628392465,-0.3123528608090028,1.0319847133744637,-0.37272365782075845,-12.388649148255348,-14.216976731649975,-15.098374000170852
1760515748.66254,-5.5143267353968115,-0.3293583258089005,1.0023173472865012,-0.3654897314319727,-15.431403871603639,-18.11360195153681,-19.04586499642212
1760515748.6725385,-5.823003969422264,-0.32371099133761294,0.9794946850737936,-0.3451329722485029,-18.185835435864853,-21.867418021018405,-22.941003695646522
1760515748.6828432,-6.185972601763525,-0.29901600846113047,0.9651091622715362,-0.3137381974706543,-20.618034238576904,-25.34903539855109,-26.59572619430864
1760515748.6925514,-6.58498930651764,-0.2603376759562862,0.959416144482923,-0.27449696488735464,-22.813666919543742,-28.45632849873674,-29.887948636529973
1760515748.7025757,-7.003191218697188,-0.21349172037429853,0.9615838627657176,-0.23117715434970812,-24.94818153146135,-31.11764454345301,-32.74946655792151
1760515748.7131166,-7.426537243264831,-0.16434424309121434,0.9700356696964569,-0.18754320532180888,-27.24866132720575,-33.29683570530847,-35.15220262480799
1760515748.722549,-7.84460559224138,-0.11818854865591787,0.9828276388918911,-0.14682745057844088,-29.953140541374456,-34.99861322752623,-37.09663548816185
1760515748.7326708,-8.250803424770384,-0.07925906219563914,0.9979983384652666,-0.1113359409397548,-33.27291747288812,-36.27222978481815,-38.60455137226131
1760515748.7426164,-8.642123510416289,-0.0504245992765399,1.0138329819911542,-0.08224067929617276,-37.362202864841976,-37.21156877513999,-39.71631918717471
1760515748.7525518,-9.018616260281695,-0.03308018325072364,1.0290041275561912,-0.0595728893201616,-42.29762605261827,-37.95033890084037,-40.491212875513305
1760515748.76264,-9.382735222972457,-0.027230748559292087,1.0425822195096623,-0.04239609247645028,-48.068251209561154,-38.652046554719085,-41.00826710893779
1760515748.7726347,-9.738674493591848,-0.03173762439619879,1.053943077255158,-0.02910982579866113,-54.575364181041394,-39.49547889806141,-41.364997689832606
1760515748.7826576,-10.091766749716209,-0.04468352728016034,1.0626245574403055,-0.01781910064318359,-61.64056608749924,-40.65733090365958,-41.672070941745964
1760515748.7925415,-10.447966974640906,-0.0638027477483452,1.0681924417839463,-0.006702819159459057,-69.02046177759503,-42.29416161765358,-42.04339420851887
1760515748.8026655,-10.813418048818773,-0.08691770207799808,1.070165334429909,0.005675028767063026,-76.42613337708687,-44.525968825604075,-42.58265802329869
1760515748.812653,-11.194080707462252,-0.11231935814206452,1.0680249774880592,0.02015113742404073,-83.5454551526794,-47.42337290230878,-43.36861401514451
1760515748.8226702,-11.595405766297736,-0.1390259715263386,1.0613083698248835,0.03687087687766578,-90.06616558804214,-50.99987435130125,-44.44194983895923
1760515748.8325617,-12.02202401609082,-0.16685555174635952,1.0497494352924255,0.055329755178273626,-95.69757582060133,-55.210048213948475,-45.796362830027256
1760515748.8425364,-12.477427592242297,-0.19626564108569391,1.033420627447723,0.07453794733526617,-100.18895212371277,-59.95384207137199,-47.375475198481396
1760515748.8525648,-12.96362186723459,-0.2279647261421873,1.0128255263977148,0.09326866215933662,-103.34308943413302,-65.08622221444375,-49.07595797325995
1760515748.862561,-13.480746326019194,-0.26237985853054524,0.9889106009035978,0.11032878848535933,-105.0244849935756,-70.43032742902827,-50.75609573361236
1760515748.872576,-14.026696544258607,-0.29913871547520254,0.962989446386745,0.12478837290889608,-105.16265042129513,-75.79148838041843,-52.24836920532066
1760515748.882581,-14.596815286148505,-0.3367412631318593,0.936596515332785,0.1361248882403841,-103.75199688027946,-80.96944817831663,-53.37449720160834
1760515748.8927157,-15.183740163020182,-0.37253819194470245,0.911302953341841,0.14426690546500742,-100.84992574283173,-85.76686757682737,-53.96147551776433
1760515748.902918,-15.777486163355825,-0.40303405999407477,0.8885308517121002,0.14954658894971928,-96.57411464441093,-89.99327092861395,-53.857160814909975
1760515748.912614,-16.36580651336711,-0.4244444738921777,0.8693943328116593,0.1525865487313806,-91.09878797193552,-93.46470539224228,-52.94387395415725
1760515748.922534,-16.934827543418884,-0.43338524664192557,0.8545843367892922,0.15415509854950638,-84.64858091606202,-96.000523542986,-51.1485935238741
1760515748.9326315,-17.4699051182025,-0.42755307868576364,0.8443098487089368,0.15502633584056127,-77.48807729541721,-97.41964369013084,-48.44871169962034
1760515748.942718,-17.95661040429191,-0.40625754816284204,0.8383105631404336,0.1558785180104037,-69.90565969140813,-97.53900729611993,-44.87291933598692
1760515748.952555,-18.38172860108896,-0.37067880466583686,0.8359484950258227,0.15725493395631324,-62.191981068784074,-96.17663715017052,-40.49741970829474
1760515748.9625916,-18.73415304361095,-0.3237701726045256,0.8363613029189032,0.15959237219339553,-54.615599589536906,-93.16086890585515,-35.4382779122501
1760515748.9726977,-19.005581910073243,-0.26981415162919786,0.8386362194233733,0.16329525853487,-47.40009998702993,-88.3460693572963,-29.841244989792873
1760515748.9827895,-19.19096878698555,-0.21374617860037087,0.8419618032201791,0.1688122319399661,-40.707433103616324,-81.63351798767225,-23.87072926046303
1760515748.9931326,-19.288725809175176,-0.16042365119984411,0.8457318603812681,0.17667101491752607,-34.631042217231375,-72.99440571091434,-17.69957657676378
1760515749.0025575,-19.300712925354482,-0.11400784605733207,0.8495935178116961,0.1874471473558885,-29.200193220924618,-62.490626446377746,-11.500911705100227
1760515749.0125875,-19.232060275186665,-0.07756424885634937,0.8534404959320862,0.20167016621908881,-24.39456732223184,-50.28868691725383,-5.442574357006624
1760515749.0225725,-19.090863687506754,-0.05291149183177665,0.8573563029107235,0.21969465991660453,-20.166111698238975,-36.66280655180127,0.3161420929095944
1760515749.0325902,-18.88777560986334,-0.040688507303051874,0.8615158160870686,0.24157559073605786,-16.46364964428006,-21.984950900775797,5.626407952280577
1760515749.0425997,-18.63549893951713,-0.04057338203839518,0.8660596265772295,0.26698415517086993,-13.255068031479649,-6.7018108310334155,10.351645988495772
1760515749.0526612,-18.348189415105495,-0.051573244524124824,0.8709628496905596,0.29518550821561945,-10.542233637632853,8.69877752462875,14.370160685196174
1760515749.0625618,-18.040785355387694,-0.07230985809260884,0.8759271849521854,0.32508144873316797,-8.365217405421644,23.72728195340583,17.578978580099097
1760515749.0725589,-17.72830413804647,-0.10124825590003823,0.8803280720291159,0.35530687829972263,-6.794763371154978,37.93174575663223,19.89860457869457
1760515749.0830548,-17.425159153967765,-0.1368447170635726,0.8832417867817502,0.3843604799580966,-5.914719809569224,50.930686288829826,21.27790381526482
1760515749.092765,-17.14454899570152,-0.1776124605044112,0.8835584058974685,0.41074644048551673,-5.798552346568635,62.43457764592519,21.69811637060815
1760515749.1025822,-16.897955454165327,-0.22211756632569127,0.8801628617036641,0.4331043945628919,-6.4853146106315895,72.25315143882304,21.175117054398598
1760515749.1125617,-16.694770810460053,-0.26893005286018995,0.8721479713715596,0.4503094282444577,-7.960252396609463,80.28866310850492,19.75935079804082
1760515749.122573,-16.54206641608876,-0.3165651301435318,0.8590147349867033,0.46153231705225145,-10.143841452791483,86.51812760762537,17.53326275871211
1760515749.1325684,-16.44451215977329,-0.3634503543689284,0.8408155520409755,0.4662597714400198,-12.891098153130205,90.96965422314204,14.606411800546093
1760515749.142556,-16.404452763180437,-0.40794264004311204,0.8182058055903119,0.46428288075928703,-16.000994166189155,93.69888634413641,11.108792556766996
1760515749.152554,-16.422135748960866,-0.44840007525613046,0.7923895853665543,0.45566734041488144,-19.23409232835121,94.77095627438902,7.1831883650364095
1760515749.162563,-16.496067095139917,-0.48329650198347274,0.7649713346738337,0.440719248424824,-22.33531377473604,94.25153826477006,2.977573816244753
1760515749.1725767,-16.623449764146972,-0.5113580176526451,0.7377471964400956,0.4199547221087642,-25.058186313856634,92.20811091619193,-1.3614284125133782
1760515749.1828463,-16.800644755078963,-0.531698937300564,0.7124807570086567,0.39407419602853433,-27.18702182392309,88.7200117847117,-5.693317212551865
1760515749.1929133,-17.023588241390264,-0.5439354502032254,0.6907058839591927,0.36393848882156,-28.554085697993905,83.89372046631138,-9.88646659959152
1760515749.2028823,-17.288102548221342,-0.5482560887150033,0.6735860237147362,0.33054476630865476,-29.04977976996703,77.87842251890159,-13.819124564070886
1760515749.2126222,-17.590053628564885,-0.5454315584062452,0.6618400063438802,0.2950027590731987,-28.62503167041086,70.8766212609134,-17.379327143629364
1760515749.2225947,-17.925334026554165,-0.5367548899358943,0.6557272622368029,0.25851136046904716,-27.286313486430984,63.14550450542093,-20.464641279169044
1760515749.232576,-18.289685587511055,-0.5239147041298039,0.6550765700221594,0.22233290935665612,-25.084787614522515,54.98675462671306,-22.98265942506778
1760515749.2425597,-18.678412334458212,-0.5088154090994835,0.6593427816306425,0.18775974277999372,-22.1018160042093,46.725083532133,-24.852892728569504
1760515749.2525728,-19.086060484950313,-0.49336558593647306,0.6676817433085869,0.1560675645209914,-18.433390438644874,38.67842502941949,-26.01018187782276
1760515749.2626865,-19.506151619225182,-0.4792593850044166,0.6790397816713785,0.128453365689384,-14.175955628187474,31.124881922683077,-26.409107513115014
1760515749.2725527,-19.931043321744287,-0.4677758444429401,0.692256992689281,0.10596075154154701,-9.415668446147272,24.27277618503535,-26.02834437415117
1760515749.2827396,-20.351961327633624,-0.4596182243702648,0.7061823633579839,0.08940057532722201,-4.2224557189718075,18.240176330710685,-24.873676466495052
1760515749.29263,-20.759206835526896,-0.45481135955595225,0.7197948593647966,0.07927815415281995,1.3505889651545249,13.04892251344536,-22.978607025115597
1760515749.3025577,-21.14250554086361,-0.4526716362433652,0.7323201109759008,0.07573903690856844,7.262761129319226,8.635611023975097,-20.40210817442491
1760515749.312568,-21.491442907379817,-0.45186149152205424,0.743329253305961,0.07854243822492332,13.47729850220621,4.878765557970413,-17.223800065504804
1760515749.322663,-21.79592711697986,-0.4505358492871779,0.7528061801918456,0.08706533487620313,19.950625315591672,1.6381775933701106,-13.537398187608055
1760515749.332792,-22.04663257643871,-0.446579088955814,0.7611719121781678,0.10033398353165689,26.621460061883475,-1.2002515018450859,-9.443450525854775
1760515749.3425946,-22.23539428550305,-0.43791728856550977,0.7692589628948989,0.11707730093623689,33.402093667895286,-3.682390542394426,-5.0422846559903345
1760515749.3525834,-22.355538168750762,-0.42287292716797775,0.7782339045587044,0.1357986167789197,40.1738042356635,-5.754819949813125,-0.4278988591500008
1760515749.362552,-22.402139660492672,-0.40051220290242917,0.7894727591700941,0.15486527228070945,46.78762110768955,-7.251744211906126,4.316616094108821
1760515749.3725631,-22.37220432207372,-0.3709255757676845,0.8044005807940036,0.17261626627147275,53.070679709899245,-7.904023932014216,9.121652603364703
1760515749.3825476,-22.26476642962241,-0.33538541518559434,0.8243116451973193,0.18748643033124754,58.83739090510261,-7.37087293054137,13.931323780999504
1760515749.3925493,-22.08090793722783,-0.2963410408053055,0.8501886694806373,0.19814215931053528,63.90371562650801,-5.290949312696487,18.701222753419945
1760515749.402669,-21.823709354514182,-0.25723770585345546,0.8825388623764753,0.20361827692743012,68.10214715738431,-1.346168809674521,23.3938162308835
1760515749.412656,-21.498152438833458,-0.22217592084461363,0.9212620967942702,0.20343863147688282,71.2947582127899,4.670883001377688,27.971860287677334
1760515749.4227433,-21.11099889704704,-0.19545163277865235,0.9655626123753411,0.19769731768886314,73.38205370749374,12.796210681232115,32.39052871680498
1760515749.4326506,-20.67066559968374,-0.18102977786127075,1.013912275965462,0.18707618288523178,74.3064331539016,22.850327595504215,36.5893407622373
1760515749.4425642,-20.187102113195497,-0.1820064794537938,1.064073204646202,0.17277866237565187,74.05059110553162,34.41915803261403,40.485465227621035
1760515749.4525707,-19.671652511268533,-0.20011700636903706,1.113190659905342,0.15637011065741724,72.63271769798337,46.86533917877157,43.970380447728026
1760515749.4625683,-19.136858919125626,-0.23535208485209286,1.157970208468545,0.13953146215689674,70.10136651716452,59.37136927393399,46.91188994936484
1760515749.4730341,-18.596150813800804,-0.2857500789678949,1.1949509618979421,0.12375667364127559,66.5328286172773,71.01136932833117,49.16288607885606
1760515749.4825907,-18.06337036892151,-0.3474263641496417,1.2208734083092152,0.11005112744697298,62.03253863872373,80.84346235210624,50.5769550940222
1760515749.4925838,-17.552111737864884,-0.41487594123247373,1.2331123156159076,0.09870686814016533,56.73977964310335,88.01084878839687,51.02913565389525
1760515749.5028188,-17.074896390882998,-0.48154273681728715,1.2301074200854736,0.08922621725652734,50.83271313261515,91.83765826063981,50.438377365063516
1760515749.512579,-16.64225763708993,-0.5405972151192926,1.2116948935387368,0.08043088528960607,44.52965911314329,91.90632187577226,48.7871510487528
1760515749.5226188,-16.26185088824574,-0.5858124611306436,1.179243798067807,0.07074002770022184,38.08320277886235,88.10632345384654,46.133755228599036
1760515749.532579,-15.937726718853796,-0.6123915130975202,1.1355436854426049,0.05855139590152611,31.76585158131418,80.64869921977598,42.61425470625561
1760515749.5425687,-15.669891955277546,-0.6175921040164032,1.0844576112841338,0.042634299455309985,25.848647057237372,70.04541700561917,38.433301907620745
1760515749.5525723,-15.454241202864376,-0.6010286198893653,1.0304189163055952,0.02244603449916575,20.576266502691084,57.057057269988285,33.84559516716416
1760515749.5625803,-15.282878669786438,-0.5646000247318872,0.9778834091949228,-0.0016925556282956868,16.143090745940214,42.61571953775553,29.13161077349391
1760515749.5727732,-15.144784729839309,-0.5120768543108515,0.9308412137072398,-0.028592115706351208,12.674438815483251,27.732621416248502,24.571960560307577
1760515749.5825827,-15.02673156413057,-0.4484520186716884,0.8924549073383912,-0.05635397376206772,10.216034992553281,13.401258657805771,20.424192018113455
1760515749.5927591,-14.914332624239092,-0.37919791650537715,0.864845518426119,-0.082656902595594,8.733203657341818,0.5071046923071085,16.904443123393012
1760515749.6027226,-14.793125759637018,-0.3095720098706155,0.8490148431897079,-0.10511623753023848,8.11963199949808,-10.24634737727391,14.174764573227856
1760515749.612585,-14.64962607640922,-0.24408176519864658,0.8448770815967828,-0.1216538883933764,8.214068707525602,-18.387748668068227,12.335773934109314
1760515749.6225996,-14.47231699840278,-0.1861690432406719,0.8513706203785362,-0.1308202643830049,8.822231252728917,-23.700144968738293,11.423887347222799
1760515749.6327474,-14.252557136875941,-0.13811795479594144,0.8666256903392737,-0.13201727408983333,9.740597876397116,-26.215047730816124,11.412519109538682
1760515749.6426384,-13.985363616257835,-0.10114351688236742,0.8881704791621522,-0.1255859402678265,10.778725505145847,-26.18172159798985,12.216958090642281
1760515749.6525896,-13.670001966679619,-0.07559089152215934,0.913163288656243,-0.11274394964883366,11.777246734594407,-24.0179182863751,13.702793532300454
1760515749.662684,-13.310288409085668,-0.06116973403667652,0.9386400502308346,-0.0953854932592945,12.619636259722643,-20.249940579293558,15.69765065437781
1760515749.672567,-12.914510263113206,-0.05716261137884944,0.9617658549512805,-0.07578248776503925,13.236987406798402,-15.450287752016166,18.00565786901147
1760515749.6826982,-12.494901932681834,-0.06257255133053839,0.9800773754030259,-0.05624547624195435,13.606166517665491,-10.18029714743555,20.42361127270238
1760515749.6925714,-12.066671132469748,-0.0762016451266436,0.9917004662824984,-0.03880774896907794,13.74262382122865,-4.9434097134444634,22.75736322128774
1760515749.7025862,-11.646638703524337,-0.09667324122352762,0.9955243586392247,-0.02498597361696126,13.68971609842701,-0.15233898471339063,24.836708625777614
1760515749.7127066,-11.251622281710635,-0.12242362661472593,0.9913127542317526,-0.015649915947826873,13.506597289085507,3.8890190317449314,26.527119208045907
1760515749.7225623,-10.896744262656274,-0.15169287980793386,0.979734396087997,-0.011010081822880538,13.256580544087756,6.9901833197323535,27.737117611335815
1760515749.7325726,-10.59386067610323,-0.18253564756605806,0.9623005623113218,-0.010710447999065908,12.997445948315884,9.067850645088955,28.42078854843142
1760515749.742623,-10.350287790546252,-0.21285943671905827,0.9412038546752843,-0.013996449936732878,12.774587713738313,10.13207905571285,28.575690141946325
1760515749.7525787,-10.16797066260364,-0.2404969450383463,0.9190636149598437,-0.01991774181830605,12.617309401125452,10.267995432698235,28.237042656544762
1760515749.7626066,-10.043214510490195,-0.2633299384747313,0.8985996339198105,-0.02752252235427875,12.538098836179591,9.615503233461782,27.469416091530398
1760515749.7726264,-9.96707376164941,-0.2794822863996604,0.8822746704637829,-0.0360066247046302,12.534387606645538,8.34876853763165,26.35721708913207
1760515749.782594,-9.926426498023325,-0.2875699836777931,0.8719616034910319,-0.04479549908510219,12.592104536594134,6.6568120054898205,24.99516005005225
1760515749.7926092,-9.905635357422316,-0.2869488788148921,0.8686960114810757,-0.053556879867766985,12.690233307434331,4.726372506854439,23.479670521979624
1760515749.8025901,-9.88854575123123,-0.2778734379728535,0.8725640500273564,-0.06215977921498518,12.805567416475572,2.728123527078217,21.901862949279547
1760515749.8125741,-9.860469429163139,-0.26149743553498167,0.8827478477923121,-0.07060517348854801,12.916929562364382,0.8070723350573877,20.342404251203963
1760515749.822866,-9.809797864369695,-0.23970030605582146,0.8977138298653847,-0.078953324027109,13.008292087951917,-0.9225231265857179,18.868273215398467
1760515749.832575,-9.728986842604233,-0.21478034257326487,0.9154972951839189,-0.08726543907925947,13.070479249819861,-2.3780188517795158,17.531202871223474
1760515749.8425815,-9.614810781013693,-0.18909230895049658,0.9340208972948107,-0.09556844573576387,13.101405520578822,-3.5059246880676236,16.36746983641963
1760515749.8525622,-9.467947264911693,-0.16471264688716114,0.9513876190187778,-0.10384398770816314,13.105054473509199,-4.277408890538418,15.398664484708467
1760515749.8626008,-9.2920723595473,-0.14319500916023617,0.9661043665277911,-0.11203694402573311,13.089588511207596,-4.683156803502817,14.633117731928008
1760515749.8726292,-9.092702362725731,-0.1254455787481742,0.9772126373800945,-0.12007469408199654,13.065078151928073,-4.728766485858475,14.067743691593005
1760515749.8825843,-8.876011165734788,-0.11171590561968367,0.9843220226773893,-0.127886623143096,13.041343609035122,-4.431423151051693,13.690146234823546
1760515749.892623,-8.647805850380726,-0.10169040415402329,0.9875573676328269,-0.135414951159721,13.026315764160234,-3.818051249610015,13.480901795689876
1760515749.902589,-8.412781141964965,-0.09463776396233528,0.987440982046855,-0.14261289308997677,13.025167248126547,-2.9246510292708243,13.415958997878107
1760515749.9126456,-8.17411108570935,-0.08959543123168252,0.9847384341475367,-0.14943263994689981,13.040269027323603,-1.7962119120030378,13.469091794631703
1760515749.9228206,-7.933379731254971,-0.08555891736226748,0.9802994964006951,-0.15581072738207677,13.071832671750297,-0.4865169126720611,13.614313227329061
1760515749.9327316,-7.69080437168329,-0.08165101764444924,0.9749226971754449,-0.1616596635147078,13.11894626344645,0.9427148606658531,13.828109547800423
1760515749.942603,-7.445666273781472,-0.07724943163506476,0.9692626142984646,-0.16687199235902989,13.18064171406936,2.4236512398562926,14.091309002820037
1760515749.9525838,-7.196836606974608,-0.07205550150949074,0.9637866295957457,-0.17133789123874055,13.256659063041354,3.8851850722961156,14.390383235338668
1760515749.9625757,-6.94327737253149,-0.06609572919775432,0.9587766706242493,-0.17497214373817735,13.347678706447,5.256646674270738,14.718004332622433
1760515749.9725783,-6.6844200874213,-0.059663886691110474,0.9543644917484996,-0.17774323177996007,13.454933076182638,6.472128741675766,15.072734677257689
1760515749.9826066,-6.420377505274676,-0.05322843470611045,0.9505865886607242,-0.1796979320957137,13.57925118034168,7.475074253049139,15.457796022449381
1760515749.9926252,-6.15200304372781,-0.04733600813737002,0.9474452281149712,-0.1809781254212857,13.719718293497072,8.222686605142473,15.878958370121202
1760515750.002581,-5.880850121713669,-0.04253284038133435,0.9449634848087535,-0.18182912496134288,13.872238326584121,8.689624978038742,16.341725762295933
1760515750.012685,-5.609085586145261,-0.03930908698979061,0.9432237120986301,-0.18259820047491068,14.02834836370933,8.870401350798724,16.84816108744912
1760515750.0226061,-5.339384773932357,-0.03805656822237673,0.9423810039389514,-0.18371907625164657,14.174632618157714,8.779979080417876,17.39383312270097
1760515750.0326037,-5.074801979561048,-0.03902653195806101,0.9426473598265587,-0.1856769798184914,14.293006835554399,8.45232243638717,17.965428310608797
1760515750.042609,-4.818593716021613,-0.042282875024355966,0.9442488055348806,-0.18895300479548144,14.361996389504903,7.937002214894487,18.53951765087756
1760515750.052685,-4.573985075246242,-0.04766142075742207,0.9473647479131254,-0.1939553170725281,14.358923681009843,7.294295239423731,19.08281542403716
1760515750.0625894,-4.343901993510061,-0.05475573519016184,0.9520640213954529,-0.20095237816018532,14.262683031682316,6.589417897953757,19.55404925306937
1760515750.0726762,-4.130721100768407,-0.0629470224798836,0.9582544243561476,-0.21002470035174453,14.056578565461068,5.886587370944207,19.90732484256854
1760515750.0831687,-3.9360938524529794,-0.07148084529507745,0.9656612693869909,-0.2210466139171664,13.730620356847767,5.243556541274056,20.096649884716193
1760515750.0926495,-3.760876934165969,-0.07957409448150153,0.9738442621386344,-0.23370134023551206,13.282773264171823,4.707166234672216,20.081104432945217
1760515750.1027818,-3.60515871393313,-0.08652217278494234,0.9822511934723429,-0.24752426936788083,12.718907883369868,4.310317335038189,19.830022680776334
1760515750.1126149,-3.4683357866098175,-0.091776663646115,0.9902950279846664,-0.26196312553218126,12.05152216527439,4.070590198833336,19.327491122625638
1760515750.1226788,-3.349184550155571,-0.0949773506831316,0.9974332497062194,-0.27644154236309093,11.29758300681148,3.990540708069817,18.575484442531042
1760515750.1329148,-3.245894880690795,-0.09594192025417281,1.0032289615024816,-0.29041433003652334,10.476008911350764,4.059495395231412,17.59507860473585
1760515750.142613,-3.156074489531356,-0.0946327791468906,1.0073822903958065,-0.30340683298168414,9.605346394888652,4.256477739615281,16.42542017486855
1760515750.1526024,-3.0767701468248645,-0.09112499849109734,1.0097326498907975,-0.31503624842620387,8.702088220385662,4.553774843646374,15.120475878058832
1760515750.1625962,-3.004562928953065,-0.08559037790816836,1.0102404865018313,-0.3250183865091739,7.779875749879781,4.9206499161314605,13.743973262588899
1760515750.1726396,-2.9357732747209013,-0.07829783763769835,1.008959360754223,-0.3331664612080775,6.849579352670823,5.326827777662627,12.3632759041788
1760515750.1828256,-2.8667726318432956,-0.06962059634911119,1.0060085762225526,-0.3393873968044375,5.920032479593048,5.74557388822518,11.04311586000728
1760515750.192849,-2.794362393719029,-0.060039338526834234,1.0015551856858138,-0.34367749909428963,4.999074532273392,6.156357126545056,9.840076209286897
1760515750.2026033,-2.716159775511329,-0.050134056831134026,0.9958105421720315,-0.3461165655729924,4.094563972456076,6.547142752594691,8.798502715613735
1760515750.2126129,-2.630925807664831,-0.040561216104232356,0.9890395352348272,-0.34685910956099425,3.215123275886121,6.9162756625492285,7.948209769609478
1760515750.2226293,-2.538777926704377,-0.03201543601343792,0.9815737180281563,-0.34612212347824756,2.3705020580464136,7.273734510200773,7.304013823304282
1760515750.2327573,-2.4412429634868507,-0.025176169715733727,0.9738176154168979,-0.3441692105215837,1.571540878177576,7.6413594726121925,6.8668338829358895
1760515750.242773,-2.3411244451862285,-0.020641819187273796,0.9662411796032292,-0.34129099836820853,0.8297694096158392,8.051577839686614,6.625885308905114
1760515750.2526488,-2.242184938456871,-0.018858316333702666,0.9593567998492817,-0.3377820350009442,0.15668674013516729,8.544238003926104,6.561388229881305
1760515750.2625942,-2.148681267432274,-0.0200551333564684,0.953682954945159,-0.333914861306571,-0.4372274291281734,9.161423897370089,6.647220801819361
1760515750.2726061,-2.06482850273943,-0.02420411720620438,0.9496981853147998,-0.3299126020873952,-0.94370376544797,9.940511134661527,6.853055655125376
1760515750.2826104,-1.994288504930181,-0.031011164622171575,0.9477903670271529,-0.3259221930898241,-1.3579640607249113,10.906158624157927,7.145700811255518
1760515750.2926028,-1.939764640461661,-0.03993851912738424,0.9482088583183752,-0.3219911129050145,-1.6799314623370034,12.062308599228196,7.489595995638037
1760515750.3026428,-1.902739161164538,-0.05024382013700884,0.9510300684730458,-0.3180515067239398,-1.9151992063362755,13.385503198993113,7.846654976797944
1760515750.3125978,-1.883339264389069,-0.061020336367423794,0.9561461996660341,-0.31391732004846984,-2.075630054064299,14.820844417637765,8.17584536694103
1760515750.3226008,-1.8802920857457825,-0.0712331377817316,0.9632794536204081,-0.30930158623725856,-2.179530601459913,16.28168970280837,8.43301135253604
1760515750.3328764,-1.8909380366619373,-0.07975983210276646,0.9720143783007915,-0.3038600861971094,-2.251399775294272,17.653705528393363,8.57144868858492
1760515750.3426304,-1.9113035094906794,-0.08545213838473756,0.9818370262851417,-0.2972627596755669,-2.3212675336647077,18.803272509168583,8.543645490232812
1760515750.3526037,-1.9362679761675787,-0.08723293380653176,0.9921725060646938,-0.28928623256227887,-2.4236389486099643,19.58957420086929,8.304433882368517
1760515750.3625894,-1.9598783886900637,-0.08423317685291744,1.0024178174766494,-0.2799120523598617,-2.5960722424015983,19.87914251654435,7.81557168530465
1760515750.3726218,-1.9758510294117204,-0.07595567078973706,1.0119718466984662,-0.2694085368010245,-2.8774493858415626,19.561242800254064,7.051488145415146
1760515750.382954,-1.9782537387924155,-0.06243279801177434,1.0202686449832228,-0.25837176726413164,-3.3060150821919003,18.562246163193507,6.00558961901068
1760515750.3928049,-1.9622922287791138,-0.044331620197021145,1.0268216022283185,-0.24770417434329983,-3.9172303037079663,16.857057170274373,4.696169475426178
1760515750.4026847,-1.925058190972089,-0.022959988543129823,1.031282279191808,-0.23851720101174395,-4.741400248834339,14.475834233288488,3.1706746046366256
1760515750.4126058,-1.8660630833016494,-0.00014531742899294808,1.0335089567265563,-0.23195744719929695,-5.800927899390794,11.504778667509276,1.5069437089622177
1760515750.422581,-1.787402256758646,0.022008810547128402,1.0336297102216414,-0.2289739156525519,-7.106997996825467,8.080684788811295,-0.18984924888314256
1760515750.4327116,-1.69347454281535,0.04144351408968962,1.0320768105409646,-0.2300662899734508,-8.655624896007245,4.38005015588753,-1.7953587692430264
1760515750.4427965,-1.5903025622736076,0.056468081438852194,1.0295674198386777,-0.23507313555668183,-10.423371581600525,0.604511346938396,-3.1793389779722543
1760515750.4525995,-1.484615553147788,0.06600620464855618,1.0270143957166857,-0.24306189074701645,-12.363601869154508,-3.0351268405735397,-4.222943567993252
1760515750.4626064,-1.3829201098947925,0.06971177650562702,1.0253724666134865,-0.25236263168066747,-14.404636628595462,-6.3341415186847225,-4.837871029257999
1760515750.4725943,-1.2907684350978124,0.0679467607977072,1.0254524588550895,-0.2607521064548204,-16.451350810647675,-9.107023842416053,-4.984375614368161
1760515750.4826777,-1.2123535350341104,0.061652518549503814,1.0277542699611353,-0.26575816803920754,-18.39136979690932,-11.198100192365,-4.684956369384511
1760515750.4926152,-1.1504612267280905,0.05215914618749016,1.0323649313530534,-0.26502775376249305,-20.106127569710335,-12.490083744793193,-4.03102002413153
1760515750.502615,-1.106732837004356,0.040967227347917225,1.0389435092518964,-0.2566881973948409,-21.485909688475214,-12.911338982466804,-3.180897694852658
1760515750.5126112,-1.0821561065712764,0.029520865646512552,1.0467858125252447,-0.23963449854446323,-22.447026251135018,-12.442415644484104,-2.349049021481975
1760515750.5226192,-1.0776936178055156,0.01898658849510333,1.0549442222298138,-0.21369370185747139,-22.948760673652103,-11.121720843896343,-1.787809701110215
1760515750.5327818,-1.0949573304386857,0.010062168719396884,1.0623745416557784,-0.17964503736971135,-23.00776386357981,-9.049272090207172,-1.7642799237404976
1760515750.542635,-1.1368324521223363,0.002851454253460912,1.0680866440964036,-0.13910221713171886,-22.707900072094258,-6.386679755990519,-2.535543612640576
1760515750.552603,-1.2079465006676313,-0.0031580716288739413,1.0712829688309358,-0.09428754445424745,-22.203941539342225,-3.3512957462230624,-4.325159816553248
1760515750.562628,-1.3148837702309772,-0.008996575690019474,1.0714746522138086,-0.04774447324129892,-21.717843802483095,-0.20311340315850593,-7.302994751429916
1760515750.5725968,-1.4660761729864311,-0.016007758272123758,1.0685655666437042,-0.0020428668011526516,-21.52668408094296,2.7756012364560707,-11.569496703638137
1760515750.5826344,-1.671359316725413,-0.02558952914200293,1.0628896713104465,0.04047421147106603,-21.941861495766563,5.306265228090956,-17.144895793899273
1760515750.5926273,-1.9412466822947176,-0.03894188429366827,1.0551839054026821,0.07787071803610522,-23.279957128084646,7.1423417203838975,-23.963604901009333
1760515750.6028395,-2.2860158012154868,-0.056864516270859214,1.0464861174960176,0.10871466395714531,-25.82676910452829,8.096040814005208,-31.874094303555573
1760515750.6126304,-2.714708392308521,-0.0796139916149044,1.0379653077296656,0.13209801519440187,-29.79741439887941,8.059271887675058,-40.64449075833911
1760515750.622626,-3.2341395532399067,-0.10681773752852851,1.030710037041584,0.14759531511234475,-35.29687114361687,7.015664013668924,-49.97403269788205
1760515750.6327555,-3.848011790049583,-0.13745767455352775,1.0255117437342096,0.15518499464189048,-42.286662245597114,5.042003865338195,-59.51027805894503
1760515750.6426947,-4.556238132057979,-0.1699522592739192,1.0226829775116586,0.15516539749294547,-50.564156774408644,2.2990280330902007,-68.8715349742635
1760515750.6526253,-5.354575808191509,-0.20235142978590892,1.0219484352118176,0.14810022078056276,-59.760671820730394,-0.9873567121266684,-77.67329174669501
1760515750.6626375,-6.234642431603795,-0.2326164455057741,1.0224373117841175,0.13481777276353527,-69.36268646280536,-4.552684150263165,-85.55652305263624
1760515750.672609,-7.18433246013126,-0.2589194728717863,1.0227888805788508,0.11646219928877882,-78.75682028300662,-8.125975137451212,-92.21490149217077
1760515750.6826227,-8.188589318346265,-0.2798961613220016,1.0213654090471356,0.09456051675715184,-87.29423743302,-11.463809379687701,-97.41753444859366
1760515750.6926162,-9.230436072295868,-0.29481237313788644,1.016551302332751,0.0710453030686073,-94.36511340686324,-14.381847002018585,-101.02419852652427
1760515750.702616,-10.292135024813213,-0.30363343874759446,1.0071023256550455,0.048175121207972744,-99.47053576672265,-16.778644613541285,-102.99118885557613
1760515750.7126803,-11.356336303103527,-0.30699622681488914,0.9924930449926724,0.028324322223739682,-102.27909411725322,-18.647297210257303,-103.36748492263875
1760515750.7226276,-12.40708602590497,-0.30609079202654155,0.9731975841271042,0.013660327253753029,-102.65859579982164,-20.072320537582144,-102.28234818677036
1760515750.732659,-13.430592467493845,-0.3024697242729543,0.9508320178168024,0.005775861061314464,-100.67867422244034,-21.21147054309765,-99.92625560738442
1760515750.742729,-14.415689559998906,-0.2978196376237546,0.9280937278113464,0.005378135937283138,-96.58588222154515,-22.26448794269887,-96.52740418216506
1760515750.752688,-15.353987114850241,-0.2937448041979857,0.9084659783114606,0.012135789272688982,-90.75780627897835,-23.433596392444333,-92.32648800330283
1760515750.7626386,-16.239747836467245,-0.2916117293383394,0.8957138366016971,0.024738554299274348,-83.64584508895908,-24.883789035351317,-87.55314003214083
1760515750.7726226,-17.06956630294216,-0.292468396944852,0.8932542641612565,0.041153770266176365,-75.71698885903953,-26.71232911904788,-82.40755601550838
1760515750.7828517,-17.84193189876244,-0.29700085600919884,0.9035097159866878,0.05900640820717423,-67.40330339587044,-28.93444085294536,-77.0496916782313
1760515750.7926462,-18.55674150599282,-0.3054723920040665,0.9273494087813455,0.07599018920191362,-59.064754262463936,-31.486820285384127,-71.59644351966477
1760515750.8027558,-19.21480649153256,-0.3176266176242387,0.9637068653870295,0.09023098493553983,-50.9676608299687,-34.24538676686408,-66.1254227295688
1760515750.8129194,-19.81738440227228,-0.33259032983871367,1.0094512617970646,0.10054983163060861,-43.278291494334326,-37.05078886783132,-60.68293686079263
1760515750.8226388,-20.365758845234982,-0.34884138784727164,1.0595781788096772,0.10659812256613935,-36.0693401200262,-39.73482052470955,-55.29359134621402
1760515750.8326383,-20.86088698284089,-0.364299137547894,1.1077567364234635,0.10885861605544689,-29.336343718861833,-42.14230801244476,-49.969286559131795
1760515750.84264,-21.303131152949323,-0.3765615206903932,1.147212639648755,0.10852345314015334,-23.021122724691935,-44.14525600701755,-44.71611894618759
1760515750.8526676,-21.692089617701964,-0.3832680901216978,1.1718394859340826,0.10727527658821584,-17.039319895446955,-45.64833456384986,-39.53859467870638
1760515750.8626387,-22.026541165915255,-0.38252266869389306,1.17732940031044,0.10700955215683007,-11.30861065524195,-46.586643154636974,-34.44141727341666
1760515750.872684,-22.304517465728505,-0.373275473468003,1.162040349316282,0.10954320880517811,-5.773418756993702,-46.91784439736839,-29.42971738597409
1760515750.8832,-22.5235120524421,-0.3555580422225026,1.1273338079926651,0.11635416550290059,-0.4218291118876534,-46.61124289960836,-24.50878780250449
1760515750.8926373,-22.680822323121685,-0.3304988625253259,1.0772589299236044,0.1283872522218092,4.708439118813095,-45.63645429872949,-19.68414282167997
1760515750.9026222,-22.774002116978806,-0.30011898348435556,1.0176800277322748,0.14594547733261218,9.53576338329124,-43.95420216280227,-14.962238472019504
1760515750.9126387,-22.801383196196,-0.26698230333659456,0.9551240098819745,0.16866635950610964,13.950208053606218,-41.511490131269845,-10.351776700703311
1760515750.9226277,-22.76260904001697,-0.23381166529697614,0.8956697388895707,0.19557037947799222,17.83524900697083,-38.24279575849739,-5.865365396221363
1760515750.932649,-22.659114652026144,-0.2031637696742311,0.8441183386242888,0.22516803494381685,21.09099310720884,-34.077989432882774,-1.5213832433180334
1760515750.9426055,-22.494482041377577,-0.1772068267924036,0.8035489168406824,0.2556176055059817,23.654107410495808,-28.956444346952612,2.6539951019945307
1760515750.9526095,-22.27460653184115,-0.15760045896677274,0.7752469026579762,0.284926507469184,25.51031436272271,-22.845357690686903,6.6247180447218
1760515750.9626386,-22.007629056606273,-0.14545526379381782,0.7589188641528406,0.31118068681843214,26.69695457970517,-15.758920539204288,10.343076206726195
1760515750.97282,-21.703624615520532,-0.14134550880046434,0.7530771714504326,0.33277368424538645,27.29561777098934,-7.774142652433694,13.748854081344419
1760515750.9829192,-21.374080243945357,-0.14535238589768557,0.7554822022986639,0.34859747441050554,27.417422288566616,0.9607059970539105,16.770148657660993
1760515750.9926362,-21.031234870860665,-0.1571224748804584,0.7635593098680171,0.35815610263969516,27.18519772193795,10.227819477939454,19.326436084153368
1760515751.002682,-20.687375186521194,-0.17593427790988056,0.7747468857577068,0.36157287291364665,26.717039380356923,19.752430855683635,21.334100027796808
1760515751.0127773,-20.354178223625414,-0.20077041735763093,0.7867616887689352,0.35948197148944616,26.114626642751567,29.224527324823736,22.714156770001537
1760515751.0226645,-20.042165704299933,-0.23039221651391337,0.7977790899161968,0.35282100578344605,25.457980214305696,38.32598856867218,23.401449963535402
1760515751.0329924,-19.76029938729277,-0.263410161475003,0.8065265642163624,0.3425638404055935,24.806647785654402,46.75842603272884,23.354265835760913
1760515751.0427897,-19.515713257634022,-0.29834272102548787,0.8122927081064757,0.3294468571999003,24.20603382281928,54.26724825940637,22.5632180318755
1760515751.05287,-19.313555179136337,-0.33366015596452503,0.8148666186333366,0.31374427567457397,23.69679805123871,60.65870452338492,21.058374634576914
1760515751.06271,-19.156901258904774,-0.3678194574731473,0.8144369351212906,0.2951408229666823,23.324873118830418,65.80827631034599,18.913867913560495
1760515751.0726314,-19.04671063039928,-0.3993058739240576,0.8114864861921619,0.2727356934961426,23.14965207352016,69.66030347373506,16.249512567402576
1760515751.0826485,-18.98180188511013,-0.42669675189597606,0.8067134428253766,0.24519233642084962,23.248278343639665,72.21995321775947,13.22916983993727
1760515751.0927258,-18.958847395199903,-0.4487517779803903,0.8009956330276183,0.21102452505563324,23.714731710051005,73.53958622299729,10.055743527072899
1760515751.102639,-18.972392606047816,-0.46451751741879593,0.795395580879531,0.16898209867167777,24.653453786608015,73.70231354281299,6.962846686507244
1760515751.1126337,-19.014913396114988,-0.4734237913678016,0.79118463627292,0.11847515499818362,26.168366352861746,72.80598319995794,4.203343923279099
1760515751.122663,-19.076928625956203,-0.4753483432874321,0.7898517531934722,0.059960651952659774,28.348965730267352,70.9506570261612,2.035086778394363
1760515751.132944,-19.147189124911506,-0.47063055922830677,0.7930621561647854,-0.004784698766980646,31.255456345171126,68.23155333709776,0.7042076683841443
1760515751.1426775,-19.21296825972423,-0.46002350962476724,0.802544272923864,-0.0725676050395809,34.90464588206727,64.73770966499187,0.4264647590588577
1760515751.1526365,-19.260481180508908,-0.4445904277418925,0.8199051838238708,-0.13889793958360183,39.25789715387164,60.55510796176128,1.3675182524033063
1760515751.1626723,-19.275456424799014,-0.4255732351125431,0.8463979395040705,-0.1983400486603206,44.21217443899165,55.772394325063345,3.6236548588243043
1760515751.1726565,-19.243869588873853,-0.40426985187220044,0.8826798885100837,-0.24508077424241834,49.59524669188202,50.48751392672848,7.2050928942740775
1760515751.182672,-19.152822072254732,-0.3819435500075702,0.928603742087177,-0.27366416560057455,55.166276062928056,44.81395893771043,12.024274326604257
1760515751.1929457,-18.991514329392743,-0.35976458076555695,0.9830744480166008,-0.27980713474817565,60.62308896564368,38.885546156574854,17.891353283920026
1760515751.2026448,-18.752233445542647,-0.33877165074751564,1.0439922132689232,-0.2611822065120311,65.6172016444073,32.85885369084111,24.518521475940076
1760515751.2126713,-18.43125652594839,-0.3198413889636405,1.1082907502421413,-0.21803878769588164,69.77705138518058,26.912835333643873,31.53403299660082
1760515751.2226403,-18.029564712750645,-0.3036575182471483,1.1720745074861432,-0.15353670625718052,72.7388353320923,21.245498456869257,38.50588982423453
1760515751.2326472,-17.55326553791285,-0.29067392121916663,1.2308625522153165,-0.07368942440743884,74.182893114854,16.067515803244184,44.97412831013049
1760515751.2426543,-17.013634876041685,-0.28107310868820784,1.279952745958783,0.013137199136093831,73.8718387606177,11.592248331911728,50.489499769051925
1760515751.252629,-16.4267180933312,-0.27473663690946987,1.3149090319956807,0.09715213922961465,71.6850971565384,8.021386517323483,54.65512865268194
1760515751.2627456,-15.81247487518433,-0.27125653946698075,1.332134857432324,0.16838612342251452,67.64380490434384,5.525878311203725,57.16663677380102
1760515751.2726238,-15.193508461470254,-0.27001086453632855,1.32944041265247,0.2180695437159287,61.920721236760066,4.223224476889657,57.845535689407875
1760515751.2826607,-14.593476096414582,-0.2702986249287237,1.3064748838145301,0.23990380524889343,54.83188330010256,4.1541806632817115,56.66079266799653
1760515751.292741,-14.035320822973718,-0.2714962501324194,1.2649060699917616,0.23099362899599363,46.8097440224457,5.263558280312102,53.73467938584016
1760515751.3026426,-13.53948716809939,-0.2731805748997336,1.2082884653686221,0.1922679895025435,38.36074139069723,7.39036765311865,49.33129076227062
1760515751.3126647,-13.122283446034714,-0.2751719167241413,1.1416398860212444,0.12831580461108416,30.013013571374348,10.271625826377768,43.828997099025
1760515751.3226516,-12.794536586643796,-0.27748028256251006,1.070812451561727,0.046672323570024335,22.26177334531876,13.561821010480694,37.68078931828261
1760515751.3327222,-12.56066080417354,-0.28017584222456904,1.0017764332308785,-0.043312830849534606,15.520274339065331,16.866728135064044,31.368226797815016
1760515751.3427744,-12.418235946907451,-0.2832350165436484,0.9399346150992854,-0.13183010554164515,10.083165989784494,19.786833695485836,25.355107746312104
1760515751.3534658,-12.358162795190207,-0.2864213723870089,0.8895618182179384,-0.2099611768060414,6.106615818971288,21.963122814265745,20.046224858921942
1760515751.3627586,-12.36542084122099,-0.2892431681390574,0.8534318384900222,-0.2708092891826384,3.6065309921411437,23.11732965027881,15.755158323263407
1760515751.3727431,-12.420391895458677,-0.29099783477258157,0.8326604652481027,-0.31023943888700484,2.473260752184391,23.080238329431573,12.683470685341549
1760515751.3828654,-12.500635484891179,-0.2908838829307276,0.826762077420549,-0.3271394405073576,2.4988826428320725,21.804630392942755,10.912186696772753
1760515751.3928416,-12.582927327732436,-0.28814352218240574,0.8338900684559056,-0.3232058560513138,3.411917379248029,19.362804761087833,10.405183749239336
1760515751.4029465,-12.645322644251214,-0.2821972556044605,0.8512099775423565,-0.30234160667214044,4.914130523297479,15.931178868205143,11.023093053329339
1760515751.412661,-12.668998776466493,-0.2727416735258782,0.8753414119553049,-0.2698092271083427,6.71472440481705,11.765874901793442,12.545499451347537
1760515751.4226484,-12.639671201709413,-0.2597976375915991,0.902802432577396,-0.23130917211330285,8.558334159383076,7.1735328483436875,14.698641148855105
1760515751.43264,-12.548454049170253,-0.24371148856929098,0.930397855882771,-0.19214593473512664,10.244517802507977,2.4812086725092977,17.18548188147493
1760515751.4426417,-12.392130036790912,-0.2251215409569873,0.9555090618472165,-0.15660835189497685,11.637723517082156,-1.991613224876004,19.714993693281375
1760515751.4531894,-12.172880086032892,-0.20490333032618918,0.9762641506768198,-0.12763176004936466,12.667974623001856,-5.9569334464130606,22.027781586038746
1760515751.4626741,-11.897579533387567,-0.18410125455409912,0.9915890279373781,-0.10674331266888959,13.323660444979977,-9.177186698795024,23.915795574895263
1760515751.4727836,-11.5767897713847,-0.16384691467603313,1.001157325382785,-0.09423577124742179,13.638714376816672,-11.479139734775037,25.234743383647007
1760515751.4826977,-11.22357134008227,-0.14526260006231165,1.0052669875264726,-0.0894826889164168,13.676938279126468,-12.76301723908615,25.908818255614865
1760515751.4928029,-10.852234543154697,-0.12935536721981128,1.0046740482753092,-0.09130261082204924,13.516209977688467,-13.007078365163537,25.928327905160394
1760515751.502727,-10.477136021580563,-0.11691776023180678,1.0004120692538188,-0.09829562901570123,13.234827824950843,-12.267580717168409,25.341574392996442
1760515751.513005,-10.111616774495777,-0.10845392803889069,0.9936214009713698,-0.10910102665392712,12.901457148762379,-10.673812315602293,24.24276413852261
1760515751.522689,-9.767146403051235,-0.10413995280472155,0.9854069553841989,-0.12255082395175995,12.569258300434239,-8.417838477330438,22.75780079676662
1760515751.5328236,-9.452692761837042,-0.10381345831956419,0.9767368966527095,-0.13771829739544658,12.273983962143305,-5.738887935350812,21.029612121016203
1760515751.5427485,-9.17429545669186,-0.10698179627960254,0.9683876124371489,-0.15388227264302087,12.035251382178556,-2.902885102826207,19.204315741790033
1760515751.5526712,-8.934806656662522,-0.11284354007012015,0.9609318526766696,-0.17044313462692626,11.859869536515474,-0.17841313324904393,17.419152317118158
1760515751.5628638,-8.733780457492808,-0.12032902424760834,0.9547578018803822,-0.18683080304066008,11.746033331820982,2.188809843515183,15.792774586642546
1760515751.5726695,-8.567527462614766,-0.12817182705308997,0.9501015600404137,-0.20243867363324627,11.687354556600603,4.000219105836045,14.418205128080599
1760515751.5826843,-8.429375170116508,-0.1350171301912681,0.9470778689806949,-0.21660450358541924,11.676013608261318,5.1244413884151925,13.358563014745654
1760515751.5926683,-8.310168444779698,-0.13955908713260842,0.9457014964915978,-0.22864364779962637,11.70469272904605,5.510297302651359,12.645490159589576
1760515751.6026566,-8.199012960015425,-0.14068851236915175,0.9458986611546067,-0.2379255823509895,11.767298718663799,5.190771286090953,12.28006794545755
1760515751.6127322,-8.084223976162285,-0.13762900194566546,0.9475116481872842,-0.24397409094958053,11.858735194813935,4.277153705079252,12.235907828969264
1760515751.6226776,-7.954404165510023,-0.13004120905667907,0.950301448544833,-0.2465664254036688,11.97411125682989,2.943945302307159,12.464026580518494
1760515751.6327887,-7.799543562404033,-0.11807888870591456,0.9539539116132282,-0.24580745584566452,12.107781357404345,1.406447875699504,12.89905767599903
1760515751.6426854,-7.61201776562001,-0.10238627387543128,0.958094267605952,-0.24216024764103858,12.252536774378544,-0.10597727042769219,13.46628258782505
1760515751.652687,-7.3873610087161214,-0.08403380554222498,0.9623126355681273,-0.23642257182232765,12.399161743983306,-1.3773962662708268,14.08889410588193
1760515751.6627977,-7.124709612998669,-0.06439740786085485,0.9661995716688198,-0.22964787466209444,12.536468692548656,-2.2299000113720546,14.69486465326886
1760515751.6726859,-6.826848198173698,-0.044995121226490874,0.9693866919438342,-0.22301893298952002,12.651854158905786,-2.542213697120786,15.222826478002979
1760515751.6832244,-6.49984278270334,-0.027302921583559868,0.9715845016032891,-0.21769252114191792,12.732358075013542,-2.26025364111931,15.626490580887813
1760515751.692801,-6.15230345333488,-0.012576450032082322,0.9726095328952639,-0.21464145141206908,12.766139786707193,-1.3988772825922116,15.877315292572144
1760515751.7027009,-5.794371985283406,-0.0017046109595246091,0.9723962163182565,-0.21452263516359826,12.74419511810272,-0.03538518452026835,15.965343200633525
1760515751.7126877,-5.4365641690641935,0.0048858241079210414,0.9709938283978605,-0.21759474677768864,12.66204763082917,1.7035937182837155,15.898316077024296
1760515751.7226944,-5.088607405850182,0.0072653639520904425,0.9685524681700609,-0.22369858677960655,12.521087662334361,3.6595347602949544,15.69932067601835
1760515751.7326968,-4.758406080265571,0.005976089612805322,0.9653027530002355,-0.23230108937315577,12.32923384335831,5.661256860567649,15.403299183797435
1760515751.742669,-4.45124891078638,0.0019500361305307239,0.9615323927510863,-0.24259324414210442,12.100663912724702,7.543633668228251,15.052782361651287
1760515751.7528403,-4.169348177628677,-0.0036193868494167046,0.9575604772464893,-0.25362442652827893,11.854495959619792,9.163873152127579,14.693193405090103
1760515751.762776,-3.9117686152497426,-0.009439298679735978,0.9537088617801304,-0.2644510078760702,11.61247868983331,10.414001774087962,14.368054282848728
1760515751.772654,-3.674760983109504,-0.014293321647611601,0.9502707625340183,-0.27427578859468504,11.39594539139875,11.228720149916576,14.114425541493913
1760515751.7826672,-3.452463913236787,-0.01720794768619699,0.9474789720717155,-0.2825569339633063,11.222469438361328,11.588273056403228,13.958930142608372
1760515751.7928162,-3.2378855464043874,-0.017584975884293346,0.9454779639541453,-0.28907053426730644,11.102790543872434,11.516412739699856,13.914730839872082
1760515751.8026545,-3.024033537583054,-0.01527963632275961,0.9443047624285658,-0.29391915527938345,11.038615861451248,11.073950664231395,13.979808587767762
1760515751.8128228,-2.8050353922399984,-0.010611259135944918,0.94388329189242,-0.29748834992652495,11.021797373325317,10.348786176349668,14.136797522390157
1760515751.8226783,-2.57708485535309,-0.00430241612375569,0.9440358533590907,-0.30036143360297285,11.035134526140448,9.443656857579771,14.354478297274328
1760515751.8327506,-2.339068065308418,0.0026467062047019953,0.944512697765738,-0.30320808128191773,11.054692070480945,8.463151182231343,14.590850450758131
1760515751.8429153,-2.0927695087727227,0.009129091118171376,0.9450364540164172,-0.3066652751200474,11.053161994871422,7.501699291671178,14.79752562823958
1760515751.8528237,-1.8426311764214645,0.014114731975208418,0.9453536969354754,-0.31123110020295713,11.003568782232529,6.634199635676712,14.925018499273893
1760515751.8628423,-1.5951241612310871,0.016809495458185823,0.9452831521231976,-0.31719119596372414,10.882609693162907,5.9105451309940715,14.928368333329715
1760515751.8726625,-1.357862309498702,0.016758071589752968,0.9447501075964664,-0.32459063356945883,10.673120812481285,5.3546020506729315,14.772424093865704
1760515751.8827732,-1.1386158859327444,0.013879743627796183,0.9437990673040219,-0.3332504506945289,10.365455197134914,4.967343048838758,14.436109997515269
1760515751.8927739,-0.9443653470833828,0.008447288256863085,0.9425808782129126,-0.3428145627561735,9.957826174072116,4.733078442849698,13.915090253597983
1760515751.9027257,-0.780493841251039,0.001029750050241655,0.9413165673705407,-0.35280755451966295,9.455832244558422,4.627243360150891,13.222465530164401
1760515751.9126654,-0.6501813776921408,-0.007584187582293276,0.9402468703131661,-0.3626891024641117,8.87142568189532,4.624052025924064,12.38741045454198
1760515751.9227498,-0.5540462155369239,-0.016475665904078163,0.9395807475809752,-0.3719011538549546,8.22153910679303,4.702511607101897,11.45193838842741
1760515751.9327114,-0.490070681244449,-0.02469709297984384,0.9394552087524444,-0.3799119190224723,7.52649152395082,4.8497404702722,10.46621188247485
1760515751.9426618,-0.453832595967239,-0.03138224688360346,0.939912806761,-0.38626198702719944,6.808217781479786,5.0611751642939735,9.482982389875133
1760515751.9528656,-0.43903241204631926,-0.035855216715039565,0.9408959773716458,-0.3906137627983243,6.0883506520140545,5.337960682889576,8.551828297770568
1760515751.9628274,-0.43826621073491834,-0.037723921659369795,0.9422532424676807,-0.39280051028621155,5.386241610616667,5.682453011673076,7.713857353748361
1760515751.9727497,-0.4439570990331384,-0.03694392704824047,0.9437524186363977,-0.39286842690322515,4.7171014932339554,6.093175416180852,6.9974548235787255
1760515751.9827678,-0.44933021814964474,-0.033841374645882966,0.94509855711216,-0.39110348850574733,4.090522878489264,6.560668702355573,6.415522865149096
1760515751.9928334,-0.44930355800281035,-0.029088536247283234,0.9459574440704844,-0.38803281234475423,3.509672583666429,7.065456714707465,5.964505642423234
1760515752.002708,-0.44117038527513036,-0.023631324504275193,0.9459881870061303,-0.3843892733723409,2.971407520350268,7.578878733567502,5.625342876392987
1760515752.012787,-0.42497002994642696,-0.0185745865084209,0.944889379218493,-0.38103112097983616,2.4674857801167605,8.066920043715061,5.36633489712421
1760515752.0226893,-0.40347989580602606,-0.015037072796182218,0.9424608270640707,-0.37881691693153113,1.986928213168359,8.496511802106639,5.147726316741535
1760515752.0327768,-0.3818085298195607,-0.013992744522047122,0.9386766949613241,-0.37844887442229974,1.5194291309046903,8.843191011078568,4.9276238001732
1760515752.0426865,-0.366622666309389,-0.01611844135701364,0.9337582667864743,-0.3803105225029948,1.0595154584803141,9.098631241716639,4.668665428957195
1760515752.0526705,-0.36509518584918055,-0.021669653886227287,0.9282284944788943,-0.3843320305695708,0.6109306781177412,9.27646095242631,4.344670731668102
1760515752.0627306,-0.38370825017200705,-0.0304048947447857,0.9229291620134605,-0.38991520193922946,0.19051241560646895,9.414984994748478,3.946347921799434
1760515752.0726514,-0.42707526674790275,-0.04157302812255948,0.9189859602409894,-0.39594138409676166,-0.16931632108982983,9.575840496072214,3.485062235729011
1760515752.0826664,-0.4969471274143722,-0.0539672961863176,0.917714368766463,-0.4008729824479266,-0.42037727135284303,9.838140975466256,2.9937288560946103
1760515752.0926778,-0.5915436729531199,-0.06603924511323435,0.9204658972846602,-0.40294586999007,-0.5017533224802163,10.288185959000439,2.524118312827216
1760515752.102777,-0.7053126926113451,-0.0760599134755696,0.9284197560576071,-0.40043735155644605,-0.346629020984535,11.00525982380781,2.140245262655473
1760515752.112943,-0.8291761607055225,-0.08231376512690165,0.9423331108445145,-0.3919828482944728,0.10680848554544335,12.044417251318688,1.908014307330099
1760515752.122726,-0.9512767158831354,-0.08330849335314859,0.962275307731109,-0.376903847098223,0.9007396147543616,13.417563803008626,1.8818623221223028
1760515752.1326818,-1.0581828670619706,-0.07797920536376629,0.987384019437907,-0.3555003781715564,2.040398481080894,15.074713841709684,2.0896963735678957
1760515752.142672,-1.1364534911230297,-0.06586214753699944,1.0156887937736465,-0.32925607755079006,3.475942261703448,16.88802881990245,2.517904542307969
1760515752.1526792,-1.1744142318266324,-0.04721561234388912,1.0440481271937165,-0.3009073039565791,5.0862057159790375,18.641889434263554,3.098554113418626
1760515752.162713,-1.1639708214819857,-0.023073508463438783,1.0682413095570928,-0.27434186493473206,6.667707726672242,20.03252107432402,3.701056036697118
1760515752.1726735,-1.102273488317218,0.004775857871870596,1.0832464689991999,-0.2543130557660872,7.9325540820933345,20.68032726039045,4.1305435371667
1760515752.1826916,-0.9930370369956222,0.03389270581238556,1.0837198223755014,-0.2459728633467761,8.51858922893184,20.15700570195524,4.134940760169652
1760515752.1927347,-0.8473041479356129,0.06138040573827917,1.0646658090804897,-0.2542420709979614,8.014179363415886,18.027801682339767,3.422102163279026
1760515752.2026918,-0.6834328897177289,0.08417620763492623,1.0222518688570865,-0.2830523318437303,5.998324199370455,13.907055785590158,1.687384382178447
1760515752.2126987,-0.5261331011931482,0.09941878865925106,0.9546758654454194,-0.33452617596176853,2.094429616791094,7.522695134183883,-1.3494904415174778
1760515752.2227395,-0.4044999811573525,0.10483790794883666,0.8629463672048171,-0.4082056378278157,-3.966851519026372,-1.2173316145495237,-5.901336658953987
1760515752.2329464,-0.3491872465387836,0.09908481421091243,0.7514032520229588,-0.5004842302123614,-12.28351859400391,-12.166243009012403,-12.069291619646236
1760515752.2430062,-0.3890723063068133,0.08192467775730683,0.6278065710350191,-0.6044169575255335,-22.72767373167876,-24.89894594145516,-19.80438839595635
1760515752.2526932,-0.5479149974153151,0.05424903184348659,0.5028624344814447,-0.7100589207743275,-34.913351052817724,-38.70470439709968,-28.882866543010937
1760515752.2626874,-0.8415411416693646,0.017920344451799963,0.38913280515622867,-0.8054096207562912,-48.19959607189034,-52.62380051788681,-38.90310913192966
1760515752.2727911,-1.27598934129392,-0.024496066470143765,0.29938954137965323,-0.877927198486147,-61.73869829988234,-65.53552209548728,-49.310532646374305
1760515752.2826874,-1.8468923425972028,-0.07004707908609174,0.24462291936778055,-0.9164372117862947,-74.57260085716739,-76.2952714938783,-59.45316372514802
1760515752.2928672,-2.5401788905144977,-0.1157111157618167,0.23208592846018472,-0.9131060647560526,-85.76929053958747,-83.90372726460213,-68.66447152173122
1760515752.30292,-3.3340031290726966,-0.15871130171526257,0.2638772554087885,-0.86502004381574,-94.57663921711757,-87.67450667035477,-76.36152928787524
1760515752.3126953,-4.201631281781783,-0.19681449185738534,0.3365108583760837,-0.7749050714910846,-100.5586663659525,-87.35812536298425,-82.13815382466211
1760515752.3226836,-5.114843390859898,-0.22857157177737686,0.4416266917361106,-0.6507310516848758,-103.67665236720283,-83.18840015630876,-85.82923916635923
1760515752.3329825,-6.0472901836307456,-0.25342833582322666,0.5676044405548064,-0.5043102724128172,-104.29006283454623,-75.84074334487364,-87.52838354922952
1760515752.342701,-6.977251505113952,-0.2716715555534696,0.7015915424900945,-0.34931001054792193,-103.07561544124545,-66.31661313730541,-87.55484854561999
1760515752.3527095,-7.889393110537097,-0.2842490950098124,0.8314479310425725,-0.19919051957176334,-100.88590988570681,-55.78303005406167,-86.38078017337764
1760515752.3626819,-8.775356313416603,-0.2925499832135591,0.9472536381174571,-0.06547285946115314,-98.58268869890546,-45.39923116851475,-84.53852849150647
1760515752.3727827,-9.633252337880753,-0.29821590886601684,1.0422015211025837,0.0434397425147445,-96.88169728902508,-36.15902700903753,-82.52901618061126
1760515752.3827012,-10.466305531916728,-0.30299721635684435,1.1128506606775028,0.12282618213970893,-96.23889456308692,-28.771303530290464,-80.74776750793491
1760515752.393061,-11.280974993112716,-0.3086134912880726,1.1588304788087351,0.17164951443781878,-96.79547983573381,-23.5937826707018,-79.43854044469845
1760515752.4029758,-12.084895492821222,-0.31657454406043,1.1821540138844802,0.19211118444333516,-98.38554146061868,-20.626660259697786,-78.67776358106225
1760515752.41285,-12.884942034719103,-0.32795787461366643,1.186323693110894,0.18889582812319672,-100.59786453006559,-19.56324411282604,-78.38745215112452
1760515752.422725,-13.68565857067924,-0.34318087069834374,1.175407543777896,0.16824622028018657,-102.87433300178914,-19.88527087484599,-78.37042608290858
1760515752.432843,-14.488210942847427,-0.3618212883480313,1.1532400715887465,0.13699847013822106,-104.62252898292886,-20.983022899042503,-78.35932856141848
1760515752.4427278,-15.289934447336416,-0.38253511333736623,1.12286269449703,0.10169343980442383,-105.32013726404213,-22.276489475625212,-78.06984978085785
1760515752.452798,-16.08445963867291,-0.4031172682321792,1.0862637223700062,0.06786356966755458,-104.5932072407633,-23.314484510586002,-77.24872577964202
1760515752.4627304,-16.862333044120593,-0.42075084130684404,1.0444161532749048,0.039572536630232594,-102.25768048790962,-23.833812766003334,-75.7088610641138
1760515752.4726841,-17.61201301102913,-0.4324650106159156,0.9975588976695566,0.019249106105978013,-98.3219565417077,-23.769964475719878,-73.34742947191826
1760515752.4826975,-18.32110884037695,-0.435741951095784,0.9456334825496608,0.00779996327751317,-92.95600958444831,-23.223207401546116,-70.14727436327436
1760515752.4928486,-18.977726912302607,-0.4291148849678068,0.888773698917253,0.004925822780802334,-86.43822765648419,-22.39563492722557,-66.16573074776093
1760515752.5029144,-19.571780484349734,-0.4125694604815957,0.8277473952007631,0.009532369066913618,-79.0936299525732,-21.52055803569916,-61.51663215061462
1760515752.5126863,-20.09611394908819,-0.38763166874455657,0.7642644012370774,0.02013532844089138,-71.23638681660334,-20.80323899821112,-56.350578642907614
1760515752.5227313,-20.547297790047654,-0.3571381798979302,0.7010858921607341,0.03519163264802236,-63.12659323158325,-20.383972308039194,-50.836722884786695
1760515752.5327525,-20.925974355302056,-0.32476644307763347,0.6418944555688492,0.05332543860755549,-54.94719241434156,-20.325643491094173,-45.147672837365256
1760515752.5427577,-21.23667819649381,-0.29443161730973094,0.5909138918301883,0.07344919925464954,-46.802665064076066,-20.62124254823445,-39.448036402526284
1760515752.5527718,-21.48711767730287,-0.269654183956887,0.5523096989532297,0.0948035214800606,-38.737109735908966,-21.2132214801244,-33.8864555071728
1760515752.5626976,-21.686988470436447,-0.2529922294537235,0.5294621932866562,0.11695010566618376,-30.765889231120088,-22.015805868931388,-28.590561398776515
1760515752.5728993,-21.846490715065546,-0.24563074523467543,0.5242776677048907,0.13974259510076467,-22.91235770124945,-22.932818367737614,-23.66418260671269
1760515752.5830085,-21.974814061427395,-0.24721433645150617,0.5367403645485401,0.16327634674693303,-15.239954666656727,-23.866578393887224,-19.18632151847687
1760515752.5926964,-22.07889239543352,-0.2559705796876239,0.5648473592428928,0.1878032975184065,-7.871049364175343,-24.71724404613368,-15.211655066108264
1760515752.6027176,-22.162682443798815,-0.2690985640654468,0.6049269400122781,0.21360750072722542,-0.9876093035140232,-25.375594546846283,-11.772382938602332
1760515752.6126847,-22.22710305715213,-0.2833306093029715,0.6522198899490275,0.2408571601825034,5.186051681254695,-25.714634603298098,-8.881138667472156
1760515752.6227214,-22.270628674741076,-0.2955467205373358,0.7015684111692139,0.26945974654064325,10.4135362467799,-25.585770055747442,-6.534542805690918
1760515752.632698,-22.29039911154362,-0.303326061368172,0.7480835236936328,0.29894689610422953,14.48215938415595,-24.823672525395185,-4.7169041349722685
1760515752.642684,-22.283611357853815,-0.30534152012942384,0.7876984229449187,0.32841373107007416,17.236589141437406,-23.261102378568413,-3.4035779950917733
1760515752.6527314,-22.24891275334016,-0.30153733573246455,0.8175458647604198,0.35653327799573337,18.604172736646685,-20.751893544961582,-2.563592581552124
1760515752.662945,-22.187524784266486,-0.2930733019042281,0.8361293077472786,0.38165579966607077,18.608267435221542,-17.197767902466627,-2.1613465495617787
1760515752.6728888,-22.103886313792728,-0.28206373228408294,0.8432944399129372,0.40198469619719635,17.368582722459408,-12.573154002472785,-2.157375387252128
1760515752.6827009,-22.00569958469448,-0.2711747570064488,0.8400417100737955,0.41580118189019366,15.089777500782109,-6.942136856496322,-2.508297700816455
1760515752.6927035,-21.903373851021296,-0.263162192108105,0.8282395206262612,0.42169745117924823,12.04100522066277,-0.4631753050534319,-3.1661057910238375
1760515752.7026865,-21.808969535213908,-0.26043135940142087,0.8102975106377188,0.4187771249911054,8.529842000089674,6.620120234267753,-4.077034052716105
1760515752.7126877,-21.734830244236743,-0.26468361728990175,0.7888455670631103,0.4067902165064263,4.874290874551122,14.000867814319932,-5.180347190009348
1760515752.7226963,-21.692135553715957,-0.276690687846855,0.7664475018488037,0.3861820248069598,1.3764070624179048,21.339676713478905,-6.407487201320505
1760515752.7327225,-21.68960554174998,-0.29621388976354796,0.7453671666956377,0.35804810012102545,-1.6995112094351585,28.29907087060483,-7.682046608345521
1760515752.7426872,-21.732539546787944,-0.32206321809567995,0.7273996822454564,0.3240012091306774,-4.142248441941784,34.5761079251317,-8.920970411223145
1760515752.7526913,-21.822292166103118,-0.3522730132527135,0.7137756917027682,0.285971337046416,-5.8018345653872645,39.92847686149248,-10.03721819794955
1760515752.7626839,-21.956206065605755,-0.3843607601332333,0.7051381373804858,0.24597294300384803,-6.590972500983403,44.190729534630385,-10.943841393184519
1760515752.7727544,-22.12795675844337,-0.4156337583151266,0.7015814209376114,0.2058794153889334,-6.480855009303366,47.279043858818774,-11.55908753102101
1760515752.782715,-22.328225552442255,-0.4435092604262852,0.7027367987485728,0.1672398913824262,-5.492726312792916,49.18491222648593,-11.811803208606602
1760515752.7927434,-22.545595982397565,-0.4658122552110378,0.7078868783438794,0.13116070825280163,-3.6864890790110696,49.960194558113436,-11.646148485173416
1760515752.8028917,-22.767557730097185,-0.48101404655423274,0.7160942898270377,0.09825893995176989,-1.1475825175445062,49.69761686214981,-11.024549336193354
1760515752.8127234,-22.981498825936296,-0.4883805189983635,0.7263337842797687,0.06868447243688772,2.026581557747646,48.51148467102019,-9.92800034150011
1760515752.8231623,-23.175575155422504,-0.48801285908950154,0.7376225843754014,0.04220151164997061,5.739194951079983,46.5228519265246,-8.353335152469775
1760515752.8331428,-23.33936770752333,-0.48078066564147115,0.7491482173745633,0.018317669735551812,9.904177719472766,43.851854081619216,-6.3078316675913415
1760515752.842965,-23.464270425364738,-0.4681627056041092,0.7603926605720579,-0.0035543621587371095,14.452614323309412,40.61788799606957,-3.8023070487541655
1760515752.8529098,-23.543591147378457,-0.45202240207861527,0.7712454050963584,-0.023921677205151835,19.334744167586745,36.946299242983024,-0.8444391797024843
1760515752.862826,-23.572391318967483,-0.43435348468689916,0.7820886417983957,-0.0430453020608615,24.517337681672124,32.97857624621693,2.5657445160900108
1760515752.872711,-23.54713241927752,-0.41703505926365453,0.7938294771421247,-0.06080794925587354,29.976837347472493,28.881997109544013,6.436491719540507
1760515752.8827944,-23.465231545243725,-0.4016328012778585,0.8078512431507593,-0.07663866161748628,35.68910060254785,24.85443035653307,10.779962340866232
1760515752.8930027,-23.324646794361854,-0.3892737395321096,0.8258626101358036,-0.08951418085461288,41.61696959712982,21.12073931590053,15.60274548266347
1760515752.9028156,-23.123607854197598,-0.3806082538798315,0.849641411389822,-0.0980504972920761,47.69720712502081,17.9190625331531,20.892354290056986
1760515752.9129305,-22.860576330376563,-0.3758558924018848,0.8806965259851572,-0.10068686612922872,53.828535947026374,15.477867298121739,26.602043580760373
1760515752.9228034,-22.534468340603855,-0.37491127051619577,0.9198967049118135,-0.09594762858148354,59.862606361744845,13.987321380711725,32.6371355723227
1760515752.9327512,-22.145109653423074,-0.37746705503031963,0.967130884102914,-0.08274805660810908,65.59974664713083,13.570246237334073,38.846110168413766
1760515752.9427586,-21.693835794359913,-0.38310417066382685,1.0210671976267172,-0.060696408132539,70.79129672837382,14.258216153910423,45.019015459578064
1760515752.9527993,-21.184109786479624,-0.39131325203598843,1.079068669794959,-0.030340470534511537,75.15005303674063,15.977478226827158,50.89463460065622
1760515752.9628263,-20.622016958924217,-0.40144233133499596,1.1373044803625587,0.006687133004480449,78.36970979845974,18.54783479676058,56.17666417122419
1760515752.9727416,-20.01651110885183,-0.4126012883450241,1.1910706501240047,0.04765778181304867,80.15304826739488,21.69581691379441,60.558001543045734
1760515752.982747,-19.37932511544716,-0.4235803704277512,1.235306860837755,0.08888662392028827,80.24697060852165,25.081464542744484,63.75103330442329
1760515752.9927332,-18.724514316304298,-0.4328472665651322,1.265264600647463,0.12602413056608133,78.48050492831051,28.33584694601393,65.52059707212563
1760515753.0027077,-18.067662980120392,-0.43866724795158696,1.2772394629465658,0.15448668323090944,74.80012331220142,31.104319016596097,65.71526382073156
1760515753.0130382,-17.42484197719299,-0.439346278949711,1.2692326921719312,0.16999908789973522,69.29575995022992,33.08888566428379,64.29207333623397
1760515753.0230565,-16.811447930963784,-0.4335472029279095,1.24138284704435,0.16919902970152612,62.2113305965809,34.082561445264474,61.33020119201493
1760515753.0328257,-16.241070888074596,-0.420598109175794,1.1960418478647736,0.1502208486255833,53.935542449272006,33.98974805663838,57.03046440994147
1760515753.0427096,-15.724522900318046,-0.4007066337106909,1.1374626683352371,0.1131484478629145,44.97206189818178,32.82936129557061,51.69993148082029
1760515753.0527086,-15.269116637473859,-0.3750082637860543,1.0711764365116088,0.06022521387760648,35.891947317368604,30.72102892025754,45.723590957393064
1760515753.062789,-14.878226715307754,-0.3454118271612147,1.003210545566529,-0.004259225389030299,27.274743491696405,27.85812222533633,39.52726946417264
1760515753.0728571,-14.551120290726885,-0.314262944544067,0.939311504846032,-0.07442683559191594,19.64696259025054,24.47374446058394,33.53718215521353
1760515753.082705,-14.28302623882972,-0.28390779219452184,0.8843002005505757,-0.14356329535350387,13.427290295663596,20.80653264437937,28.141455981181352
1760515753.092789,-14.065426252262418,-0.2562738171282691,0.8416327760057546,-0.20504553527291242,8.886587656950384,17.072236245786403,23.657924894614624
1760515753.102709,-13.886580013878552,-0.2325743920659995,0.8131898798888515,-0.2532791779715078,6.12794406248833,13.445016291309042,20.31097175063658
1760515753.1127446,-13.732312271811415,-0.21319868243549076,0.7992793106571079,-0.28447176033936433,5.08841203035747,10.049943324811744,18.218691005892605
1760515753.1232083,-13.587068536982313,-0.1977877733117442,0.798812689097418,-0.2971011464809444,5.56047082273845,6.965819107227091,17.390446928721666
1760515753.1329017,-13.435185704611884,-0.1854461502564381,0.8096040771570934,-0.2920034049119453,7.228447834561325,4.235576995569009,17.734051429868348
1760515753.142751,-13.262247825211956,-0.1750104505877545,0.8287357647937352,-0.27208188698252894,9.713523076564035,1.8803706515001593,19.071203874755735
1760515753.152769,-13.056342162777874,-0.16530016918147847,0.8529416372810159,-0.24171125024434056,12.620622802351829,-0.08681714476188285,21.15939664232731
1760515753.1627436,-12.809025331260738,-0.1553013430763819,0.8789684774727583,-0.205963706581656,15.581210942673748,-1.651566425711267,23.71809523903297
1760515753.1727834,-12.515860830865874,-0.14427076700747557,0.9038867323831907,-0.16981126261698967,18.28732536884568,-2.794455214139409,26.456633941061643
1760515753.182789,-12.176480408133266,-0.1317788800313695,0.92533196774152,-0.1374511012938178,20.513868228589235,-3.4936430280161863,29.101016073670955
1760515753.192747,-11.79421777653337,-0.11772051528093566,0.9416653995347877,-0.1118610881784601,22.12795883662418,-3.7319210190072516,31.41684416078121
1760515753.2027128,-11.375429878712577,-0.1023118301200074,0.9520472445870953,-0.09462982469668822,23.085953239182697,-3.505470575380239,33.22607848403448
1760515753.2128057,-10.928642125574179,-0.08607094423381878,0.9564217668818481,-0.08604105920812519,23.420337150410894,-2.8314367137963656,34.41622613443567
1760515753.222722,-10.463637510071253,-0.06976616767153525,0.9554190775427789,-0.0853437663652273,23.21986394620024,-1.7521055115336535,34.94171511453368
1760515753.2327478,-9.990576017065013,-0.05431879530608595,0.9501866627930353,-0.09111574864435794,22.60682732646723,-0.33465407151822035,34.81834759635347
1760515753.2429864,-9.519199900958101,-0.04066490087153535,0.9421733414853907,-0.10163148384337882,21.715160321690803,1.3332694302357255,34.112603225556924
1760515753.2527385,-9.058161144460769,-0.02960142213102187,0.9328980857878842,-0.11516916327542027,20.672250167508597,3.1508536983946254,32.928002813641626
1760515753.2627258,-8.614497314083403,-0.021653461404592046,0.9237413434799374,-0.13022551988254077,19.58619851409971,5.0125577911599315,31.390696833437733
1760515753.2728019,-8.19327301688594,-0.0169945094770411,0.9157919633500264,-0.14563514685212103,18.539028462899132,6.816051188899795,29.6360065804162
1760515753.2827244,-7.797390452227225,-0.015431303215081214,0.9097673005757423,-0.1606048233790122,17.585291364413973,8.468645709465163,27.797010605623175
1760515753.2932255,-7.427557063753209,-0.016443195092756293,0.9060039340612915,-0.17467721308013295,16.754806952698726,9.891940717949764,25.995633417850364
1760515753.3028486,-7.082391684048825,-0.019257639676786877,0.9045024651047578,-0.18764409121018963,16.057923742426844,11.024939727856019,24.336191630235486
1760515753.3128893,-6.758659275899822,-0.022950709815905423,0.9050074987513664,-0.19944091262008,15.491681380517704,11.826051477735595,22.90104895814528
1760515753.3228185,-6.451639502754834,-0.02656989131069067,0.9071078359058494,-0.2100612850958249,15.045520866466145,12.274199990623941,21.747941758576108
1760515753.3328898,-6.155637909763119,-0.02927262389912648,0.910343332228482,-0.21951982037872217,14.705624116385911,12.368947963812237,20.908627801046546
1760515753.3428555,-5.86463072180369,-0.030461692887999554,0.9143024085594219,-0.22786779232218177,14.457463531285365,12.129334636718506,20.388697870644627
1760515753.3527443,-5.572999610500723,-0.029889591253825214,0.9186939544224924,-0.23524210487643152,14.286614465512235,11.59119017281522,20.16856863931359
1760515753.3628197,-5.276272074304507,-0.02770344461194566,0.9233830070881904,-0.24191414424486296,14.178263700760853,10.803003306771338,20.205767942962463
1760515753.3729153,-4.971750393275648,-0.02440977963623136,0.928387297879092,-0.24830335646411159,14.116084983442416,9.820848206446064,20.43860119032509
1760515753.382787,-4.658907916686205,-0.02075719769556822,0.9338373552417918,-0.25493301694311465,14.081214027898802,8.703219379584393,20.7911665161401
1760515753.3928034,-4.339472135048883,-0.017564033124901336,0.9399081941641096,-0.26233265627474156,14.051934957412938,7.506705519532827,21.179508981740486
1760515753.402728,-4.017190676402486,-0.015542355701975442,0.9467380497138723,-0.2709206785977034,14.0044185538445,6.283192472547689,21.51852224494718
1760515753.4128654,-3.697354350086386,-0.015171379723373127,0.9543551577341606,-0.2809128931650897,13.914495942302963,5.078798118510276,21.729068476436208
1760515753.4227486,-3.386195396054423,-0.016650668942899963,0.962631647121384,-0.2922907898178273,13.760105301769595,3.9341783962409007,21.744719129858705
1760515753.433115,-3.0902740008882335,-0.01992960887134216,0.971274807486473,-0.3048362579915206,13.523818936657888,2.8854152415412977,21.51751079952349
1760515753.443051,-2.8159206740079963,-0.02478040239171727,0.9798554308578507,-0.31821110311300804,13.194819506323025,1.9645899439292658,21.022145310285733
1760515753.4527848,-2.568744754372488,-0.03087031645292499,0.987863645411682,-0.3320422958772013,12.769854068874741,1.1994161518912272,20.2581527708662
1760515753.46272,-2.353185315487089,-0.037801029219231744,0.9947755840444639,-0.3459759616448337,12.252980266965901,0.6118249793860342,19.249705981154978
1760515753.4728527,-2.1720908722464687,-0.045112182941213864,1.0001122969478609,-0.3596851222499299,11.654220063320015,0.21591317015500405,18.0430213161486
1760515753.482886,-2.0263589437903478,-0.05227375928999995,1.003478650318811,-0.3728453680472803,10.987467847541197,0.01596568865905653,16.7015656530997
1760515753.4928157,-1.9147091312942734,-0.058698161060414755,1.0045817127446368,-0.38510875777944026,10.268127690907788,0.005267331236899195,15.299564823310524
1760515753.5027728,-1.8336687052914256,-0.06378595376449864,1.003237452312176,-0.39609998440130334,9.510976104848247,0.16618916949323467,13.9145406813422
1760515753.5127652,-1.7778131638538668,-0.06699676429954039,0.9993764523544446,-0.40544079996426846,8.728667628583588,0.4717035477891796,12.61975363758588
1760515753.5229018,-1.740248683515046,-0.06792532706553082,0.9930548702300437,-0.4127945443468937,7.93113593015005,0.8881635146054843,11.477448760193875
1760515753.532758,-1.7132737156456044,-0.06636334964690549,0.984469184560606,-0.41791670290222105,7.125926550194666,1.3789581814382394,10.533667731924151
1760515753.5427272,-1.6891275346934755,-0.06233507055691193,0.9739653491431859,-0.4206964321416646,6.319281687421945,1.9085523230037262,9.815120749345615
1760515753.552728,-1.6607295166299954,-0.056104014644096735,0.9620292820499915,-0.42117696889856293,5.517637865264384,2.4464102387514073,9.328284139092787
1760515753.5627313,-1.6223293594886343,-0.04815602868220007,0.9492504974535686,-0.4195500254483627,4.7291287650904295,2.9703424331244417,9.060579915447715
1760515753.5727212,-1.5700126744317453,-0.03916551129719764,0.936262493451638,-0.4161278075512537,3.9647116049091697,3.468872111050997,8.983257363984231
1760515753.5828047,-1.5020286571786723,-0.02994948863972166,0.9236745908246773,-0.411302522802415,3.2386334618602084,3.942301982894925,9.055457668208138
1760515753.592754,-1.4189251494551767,-0.02141200548816905,0.912013868175736,-0.4055057618400336,2.568087383549678,4.402287296819304,9.22889905259388
1760515753.602778,-1.323492231357515,-0.014480499415996563,0.9016919915739295,-0.39917845808427654,1.9720443859305985,4.869888057215341,9.452655842724987
1760515753.613065,-1.2205271335178582,-0.01003518212200598,0.8930031812285935,-0.3927559728347323,1.4693725289936532,5.372250159792478,9.677596819854736
1760515753.6227057,-1.116436933931208,-0.008830867828322615,0.8861499949549742,-0.386663967863374,1.076467297228888,5.938210781141764,9.86016638055505
1760515753.6327567,-1.0186895921875505,-0.011408956984447743,0.881286196399502,-0.3813137343396085,0.8047080913138536,6.593229568898599,9.965303856099613
1760515753.6427536,-0.9351170600963767,-0.017999337989097263,0.8785628799777584,-0.37708583730003487,0.6580991520130005,7.354140283507868,9.968379379227327
1760515753.65274,-0.8730852408993368,-0.02842162470709076,0.8781655033275797,-0.3742995119545479,0.6314346372195706,8.224311833660725,9.856078464507066
1760515753.662743,-0.8385854409445852,-0.042009075484259494,0.8803337847303817,-0.3731762153721955,0.7092564755718062,9.18987306944102,9.626211096067529
1760515753.6728044,-0.835355937657338,-0.057585995725944715,0.8853613758559614,-0.3738103619060221,0.8657701863451309,10.217636488561311,9.286477259661694
1760515753.6827319,-0.8641766957696173,-0.07352204145166136,0.8935759930477077,-0.3761555638917051,1.065760124747499,11.255218570461317,8.852302817466141
1760515753.692822,-0.9224708047085385,-0.08786768904015058,0.9053013849578041,-0.38002584425745983,1.2664086552673233,12.233624535932634,8.343964688864977
1760515753.7027385,-1.0042985608212518,-0.09855628799970119,0.9208000231268834,-0.3851060066645849,1.4197966446234105,13.072310485213746,7.783325946751234
1760515753.7128413,-1.1007702175984395,-0.10364832700856397,0.9401933473663476,-0.39096646935847684,1.4757880834545885,13.6864930516528,7.1905556528528
1760515753.7227595,-1.200850832510461,-0.10159066302206153,0.9633585981787123,-0.39708153326939827,1.3850075233900672,13.996208145013265,6.581187089478552
1760515753.7329853,-1.292487555189412,-0.09146081408446388,0.9898079335469103,-0.4028515969566324,1.1016897043945884,13.936266842934687,5.963783131494026
1760515753.742733,-1.3639503854225536,-0.07316199755067943,1.0185659552094524,-0.40762891076068397,0.5862772743631857,13.465837890143334,5.338359686675183
1760515753.7527497,-1.4052389276401742,-0.047531759327891415,1.0480759918949534,-0.41074499236084655,-0.192265941142508,12.576038181816525,4.695589760363441
1760515753.7627897,-1.4093756528879637,-0.016331171627130957,1.0761790163366458,-0.4115368843020479,-1.2544009636994558,11.293828123391567,4.016688568538573
1760515753.7727404,-1.373396581061609,0.017903034677190056,1.1002109291682978,-0.4093698513143099,-2.608212119474707,9.680851360592321,3.273784832122796
1760515753.7828183,-1.2988809406886892,0.052134995251622504,1.1172448089265834,-0.4036566136594678,-4.24797835293901,7.826686622026601,2.4305351783364646
1760515753.7928207,-1.1919352203753621,0.08319696328081423,1.124466096457724,-0.39387669353864796,-6.153458007008147,5.837178500964503,1.442757470904545
1760515753.802815,-1.0626435298854424,0.10818614382206355,1.1196237344889843,-0.3796011983510901,-8.29046322012587,3.8197737550302495,0.2589649054836015
1760515753.8128133,-0.9240852885900444,0.12481909702904487,1.1014683891088553,-0.36052740327894683,-10.613429897025599,1.8686680406908645,-1.1791251450049858
1760515753.8230374,-0.7910860074373521,0.1316758778396021,1.0700867044960705,-0.33652588814251483,-13.070585959099978,0.05265100719396228,-2.9357982798209465
1760515753.8327692,-0.678903866013017,0.12828930614176368,1.027069331034454,-0.30770106211861975,-15.611910375066373,-1.5922938218269531,-5.079754774521499
1760515753.8428633,-0.6020571159776832,0.11507586610745331,0.9754904548547952,-0.27445983251086425,-18.19939487756167,-3.064966056295658,-7.6811343154252825
1760515753.8530524,-0.5734545042337816,0.09314832663895059,0.9197030964437998,-0.2375716306689146,-20.818319237842157,-4.39614350109043,-10.806683560698447
1760515753.8629496,-0.603905907237578,0.06407633457526021,0.8649612228923795,-0.19819181782678383,-23.487533758602325,-5.642403587422562,-14.512940283338237
1760515753.8728454,-0.7019873581770132,0.02966187648354683,0.8168805058931672,-0.1578178072553379,-26.266307294932208,-6.878148076919888,-18.837800472106192
1760515753.8828237,-0.8741478588986265,-0.008223783917007224,0.7807625234965396,-0.11815877323317703,-29.255310243673872,-8.187188150903294,-23.791345321913536
1760515753.8927996,-1.1249029859319493,-0.04772770701277098,0.7608439950261943,-0.0809270296655729,-32.58985102820072,-9.654836640105344,-29.34721288733031
1760515753.9027264,-1.4569755866811984,-0.0870501909419268,0.7595916790774563,-0.047595838406904435,-36.424545828927236,-11.360938171693132,-35.43600128672568
1760515753.9127479,-1.871310806379036,-0.12447854418621287,0.7772166829671896,-0.01919743625018552,-40.91005484085606,-13.373730315426418,-41.942086744864326
1760515753.9228392,-2.3669808561887797,-0.158472050937033,0.8115736527907009,0.003767847624691426,-46.164182135080964,-15.744023307217326,-48.70479591109285
1760515753.9328794,-2.941058823420139,-0.18781332766032294,0.8585065007590317,0.02128610165310415,-52.24121352572881,-18.499074515288463,-55.52421443237415
1760515753.9428465,-3.5885524626072653,-0.21178946082278335,0.9125502672910207,0.03368588198581265,-59.10443262384386,-21.635811509534378,-62.171289301695985
1760515753.9531069,-4.302458770511321,-0.2303369900286399,0.9677958933712204,0.04147184338726862,-66.60694009736717,-25.113706126894837,-68.40148567192391
1760515753.9629412,-5.07395889991499,-0.24408966323295603,1.0187181290570726,0.045207258409339715,-74.48513478219462,-28.84850495139109,-73.97113047485439
1760515753.9728382,-5.892742615717951,-0.254294767529686,1.0608254503841819,0.0454813444060679,-82.36772753218209,-32.7089945552026,-78.65559992198743
1760515753.982746,-6.747437278135005,-0.26259981940197424,1.0910653440473521,0.04295064480847537,-89.80121467968493,-36.51964503864796,-82.26843183930437
1760515753.9928331,-7.626112304222416,-0.27074475951397403,1.1079806909029235,0.038406368182125485,-96.29045670788221,-40.07173326264777,-84.68000189351379
1760515754.0029047,-8.516826342296552,-0.2802150144636098,1.1116520808828514,0.032810648246298396,-101.35051090013202,-43.14400097517382,-85.8335597639785
1760515754.0128522,-9.408175401293594,-0.29191880752142757,1.1034761580338655,0.027265863162152508,-104.56347418847453,-45.53124950475485,-85.75551975110942
1760515754.0228395,-10.289789729399073,-0.30595561270153043,1.0858292189209295,0.022914960682412944,-105.63220685063744,-47.07619124132923,-84.55660914445659
1760515754.0328043,-11.152725467616646,-0.3215392905960455,1.0616591296233102,0.020799377922930528,-104.42182432041885,-47.69744293718522,-82.42150226210335
1760515754.0428374,-11.989711710392498,-0.3371171025301494,1.0340478219865854,0.021716918563655374,-100.98045565831407,-47.406190611943046,-79.58709062876443
1760515754.0529256,-12.795242730218025,-0.3506803802904733,1.0057951898545985,0.026120859373889905,-95.5338817129804,-46.30669231549061,-76.31275269320899
1760515754.062853,-13.565537282811501,-0.36020726262127256,0.9790831169855881,0.03408250814959525,-88.45425012908527,-44.580558566107875,-72.84837987463891
1760515754.0728695,-14.298408249653209,-0.3641342183409767,0.9552698705361701,0.045312660777096975,-80.20925863720404,-42.459306608566635,-69.40632227360776
1760515754.0827765,-14.993089104031364,-0.3617386537054628,0.9348375234028393,0.05921970452862744,-71.30236494767709,-40.19204339556893,-66.14185162219205
1760515754.092886,-15.65005133658014,-0.3533363822506232,0.9174816548261666,0.07498057831056243,-62.21529147729573,-38.014997735253,-63.14422340558691
1760515754.1027584,-16.27082774924014,-0.34024823218377426,0.9023075052807747,0.09161000238461546,-53.36180643775859,-36.127917816983405,-60.43809607330898
1760515754.1127663,-16.857839648868666,-0.3245518287266198,0.8880848820425492,0.10802559186744244,-45.05796082949159,-34.68008256885837,-57.99349759879524
1760515754.1227634,-17.414217166249855,-0.30868721593710174,0.8735132642656956,0.1231165259292384,-37.51007369922596,-33.76642366691821,-55.741684378462004
1760515754.1330695,-17.943601510788437,-0.295014029490044,0.8574556029905274,0.135827409800202,-30.818657949447836,-33.43230655545922,-53.59387609532484
1760515754.1427503,-18.449921857731056,-0.2854185447111689,0.8391123632874915,0.14526459084642307,-24.994475346778078,-33.68410593594626,-51.45983991208022
1760515754.1527693,-18.937143275457526,-0.28104451302491895,0.8181238105195479,0.1508210640503004,-19.981981024130608,-34.50203710449135,-49.26365246960028
1760515754.1628232,-19.408984596000206,-0.2821819649919625,0.7946038647734924,0.15230314795551667,-15.68541412290024,-35.8517973544006,-46.95472698602689
1760515754.172756,-19.86860877874674,-0.2883071144679513,0.7691184748764894,0.15003237831119137,-11.993482324077746,-37.69224882151494,-44.51324163049694
1760515754.182756,-20.318295607602966,-0.29823676869659466,0.742623151018396,0.14489259536763277,-8.799662479631523,-39.97740341007632,-41.950121768271096
1760515754.1927626,-20.75911756141488,-0.3103471481743746,0.7163694670573648,0.13829639610235203,-6.016292655307004,-42.65218548792971,-39.302401262079776
1760515754.2027667,-21.19065238089627,-0.32280772556360426,0.6917837317360146,0.13205720092311746,-3.581712082017252,-45.642711306346825,-36.62508173981982
1760515754.21278,-21.61077758309097,-0.33379200196282016,0.6703176722850612,0.12817145995358908,-1.4607310483174138,-48.84299343392718,-33.9807171249785
1760515754.2227807,-22.015599664697014,-0.3416454366360616,0.6532737980146707,0.1285361233781783,0.36030806994481335,-52.10094067396925,-31.428039448950475
1760515754.232893,-22.399568543074505,-0.34501056606731373,0.6416189461247309,0.13464473621719744,1.8818326021563994,-55.20719623540087,-29.011028753371836
1760515754.2427626,-22.75580871238608,-0.3429238961044119,0.6358189271662141,0.14731735080159572,3.100327903860708,-57.89062625222048,-26.74986058686369
1760515754.25298,-23.076660271036864,-0.3349027896373186,0.6357464847067897,0.1665206009481291,4.01654697456746,-59.82394816382109,-24.635096231271458
1760515754.2628002,-23.354376856635746,-0.32102976062534005,0.6407104583464031,0.19131992864743805,4.641449109942208,-60.64183991115217,-22.626259925821287
1760515754.272762,-23.58189507493597,-0.3020183370537051,0.6496100197096368,0.21997659472894246,4.9997076977253485,-59.971764766842135,-20.655481580621984
1760515754.2828512,-23.753582871140893,-0.2792236658044421,0.6611590388593369,0.25016885282894497,5.131297916431039,-57.474924642888155,-18.63611399072123
1760515754.2929246,-23.865883521521287,-0.2545633932297541,0.6741010722354303,0.27929355677653556,5.091704307923492,-52.89197451472896,-16.475243894921263
1760515754.3028636,-23.917782196599237,-0.23034348266649085,0.6873601811209411,0.3047961603553282,4.950840878835161,-46.08634330354442,-14.088066897748654
1760515754.3127563,-23.911029515023035,-0.20901726946275703,0.7001155816726793,0.3244794213993669,4.790335246226773,-37.07779618151995,-11.411545231223919
1760515754.3227515,-23.850069930520757,-0.19292129717302595,0.7118160633352408,0.33674969123209825,4.698821870400662,-26.06023148053401,-8.41489371237526
1760515754.3327708,-23.741654292092836,-0.18402708149604263,0.7221566824221931,0.34077206175620545,4.765359798607206,-13.400182912737804,-5.105257778013347
1760515754.3427598,-23.594170152806917,-0.18373666732356464,0.7310351532593269,0.33651958333630216,5.071724439161451,0.38456358484876146,-1.528139986273892
1760515754.3527644,-23.416788080424652,-0.19274007077245134,0.738499474784696,0.32471553605349857,5.6847894997871,14.664028856432296,2.2367995625176826
1760515754.362811,-23.218569473071504,-0.21094417195158716,0.7446970391754089,0.3066811680950825,6.650375171198565,28.748270579913793,6.083360923069408
1760515754.373443,-23.007685973566534,-0.23747411587706654,0.7498367541377849,0.2841140571560625,7.989774506997218,41.94673011471049,9.888571854021215
1760515754.3832848,-22.790860024252602,-0.2707417624909943,0.7541742682368688,0.25883169087424285,9.69971113099118,53.62804236830801,13.523584980860617
1760515754.3929358,-22.573071424520663,-0.3085728630974494,0.7580239773694553,0.23251778294225042,11.755844329332707,63.27401480866647,16.864970309458656
1760515754.4027584,-22.35751306864141,-0.3483842284228806,0.7617922152039901,0.20650520660978872,14.119308580230884,70.52255318391215,19.805811771379783
1760515754.4127913,-22.145737892689645,-0.3874018523592204,0.7660179316228994,0.18162274135499104,16.74528408751421,75.19575156747682,22.26598181946605
1760515754.422761,-21.93792291080157,-0.42290881653981066,0.7714037477738943,0.1581263388739576,19.592243591451908,77.31087645671141,24.20083496202706
1760515754.432885,-21.733180369692302,-0.4525067358870062,0.7788222233884283,0.13572924110085313,22.63026199700636,77.07339744175094,25.607448082535633
1760515754.442977,-21.52986188740118,-0.4743670433899352,0.7892869874802678,0.11373630037840303,25.84665913313617,74.85256549830673,26.52752840983326
1760515754.4527826,-21.325820889708673,-0.48744101757323693,0.8038830271015406,0.0912738120235454,29.247431852040044,71.14139254703757,27.046218579126805
1760515754.4627526,-21.11861672878588,-0.49159396571552705,0.8236541782516971,0.06758729140076142,32.85352001443497,66.50423308286057,27.286220883656917
1760515754.4729786,-20.90565888768302,-0.4876330633800443,0.8494510105457378,0.042359289421179336,36.69183526710172,61.51641621682737,27.396963125542904
1760515754.4829116,-20.684301636132155,-0.4772115425220695,0.8817516765934685,0.01598308086348026,40.78191917200622,56.70146484436633,27.53904593285988
1760515754.4928062,-20.45190790444185,-0.46261235054949157,0.9204807412962931,-0.01027776690422211,45.11988988880066,52.472386832178664,27.865027322409823
1760515754.5027845,-20.20590414015729,-0.44643602824230205,0.9648602626454206,-0.0343036569348665,49.66190729028417,49.08423697443372,28.498596915521336
1760515754.5128024,-19.94384383298431,-0.43123202785303816,1.013327998304648,-0.053338489439325565,54.30975111663509,46.605168908956315,29.515030322431862
1760515754.5228586,-19.663487252937088,-0.41911702541265144,1.0635505116530939,-0.06440502826964926,58.90132706500742,44.91188906068991,30.92614850942049
1760515754.5329342,-19.36289318307168,-0.41142484486047143,1.1125481078116333,-0.06486405674233335,63.20900787455152,43.712601529659345,32.67271999607308
1760515754.5428143,-19.040510704680102,-0.4084375366272258,1.1569342881826608,-0.05302977595189957,66.94852013856757,42.59669455580054,34.626419357705814
1760515754.5528958,-18.6952591818845,-0.4092522236331581,1.1932530077872119,-0.02872973238919384,69.80025001918318,41.106275415153135,36.602195503268476
1760515754.5628216,-18.326593072957873,-0.41183422091723487,1.2183751235973486,0.006311353876306459,71.44302716333637,38.820661535496086,38.38029288842711
1760515754.5730054,-17.934562735849507,-0.413289008191135,1.2298986687878495,0.04837259494371331,71.59764352307442,35.441412124962966,39.73538866119274
1760515754.5829728,-17.5198973081044,-0.4103518476340069,1.2264919399668124,0.0919959660338666,70.07408645500102,30.86308610796236,40.46869623233831
1760515754.592783,-17.08414144291321,-0.40004168710403193,1.2081232133003392,0.13061895255347258,66.81376065274834,25.214789425498783,40.43789810296278
1760515754.6027584,-16.629863715893798,-0.380362313595638,1.1761326895706916,0.15751958464059682,61.91711773154523,18.860987220651808,39.57983987030413
1760515754.6129863,-16.16091641266037,-0.35088311980698295,1.1331218709373927,0.1669254365375889,55.64897336452653,12.35741015343769,37.922202279325504
1760515754.6227694,-15.682671644630881,-0.31302687934686085,1.0826669085130016,0.1550677191002292,48.418206142486255,6.367823776847964,35.58257322130356
1760515754.6327984,-15.202107675116137,-0.26995125760446387,1.0289016332698444,0.12094636555414255,40.73419366963546,1.5569239655913907,32.7557710030569
1760515754.6427908,-14.727600061177592,-0.22602201538998903,0.9760466552089594,0.06662941080252083,33.14738418535686,-1.5196556397017205,29.692133578044977
1760515754.6528018,-14.268309605935722,-0.18599721787877124,0.9279664628221375,-0.0029823699268378885,26.184358781989392,-2.507072574579792,26.670329680907695
1760515754.6628764,-13.8331604067262,-0.1541248927041377,0.8878156402447748,-0.08087820243968402,20.288140589331967,-1.308434848713793,23.96818081803996
1760515754.6727595,-13.429543924260054,-0.13337262527528196,0.8578026737791957,-0.1590050346641636,15.772698548719406,1.9010931455453637,21.834480215662225
1760515754.6827674,-13.062015936797255,-0.12495686819522753,0.8390728372496302,-0.22947701468083917,12.797272053664539,6.703106199889706,20.464265512022397
1760515754.692772,-12.731309465484243,-0.12824602929248385,0.8316992575309972,-0.2857043921931295,11.362195290053963,12.49993616431715,19.979588066280193
1760515754.7027998,-12.433932890165858,-0.1410105082662624,0.8347705614408742,-0.32324738772837996,11.324306000039096,18.600776355100948,20.417457030113606
1760515754.7129717,-12.162477281175217,-0.15991828306504594,0.8465645517682348,-0.3402693784437043,12.427514233743864,24.31480802899187,21.72617536193844
1760515754.7227764,-11.906581916938652,-0.18114350225591797,0.8647924499245043,-0.33755283253442897,14.342869232218758,29.037036101587866,23.77061041094867
1760515754.732784,-11.654366167627911,-0.20096418067384172,0.8868878331423315,-0.31812561720720123,16.71221836333402,32.31554369882407,26.346033889087103
1760515754.7427676,-11.39406386048636,-0.21625785825665697,0.9103045749383354,-0.28660668222372043,19.189914042558,33.89305177803397,29.19912828161122
1760515754.7527938,-11.115593960643153,-0.22484491609001597,0.9327842570490188,-0.24841163169897035,21.477797587285952,33.720189139356,32.053794536330486
1760515754.7628229,-10.811849950107407,-0.2256657450099715,0.9525576316554437,-0.20896093755864695,23.34988122669004,31.94205592913105,34.638735260138944
1760515754.7727828,-10.479563505392946,-0.21880148892964277,0.9684562560506288,-0.1730107428433019,24.664770035662844,28.862967333486754,36.71358105952462
1760515754.782867,-10.11967209661182,-0.2053573291310349,0.9799270048929702,-0.1441855773824947,25.365764845357127,24.896379469051144,38.090623844520934
1760515754.7930171,-9.737181133775076,-0.18722996632470365,0.9869597645291288,-0.12474458767675731,25.470453438271928,20.507849339631132,38.64996338914758
1760515754.8029923,-9.340557514274812,-0.16678687512613308,0.9899531903933138,-0.11556947373145449,25.053041858423846,16.158569748034445,38.34689219038901
1760515754.8131418,-8.940727903929767,-0.1464964248487346,0.9895524128600862,-0.11633050446594002,24.223367740933213,12.255789502476706,37.21140676634008
1760515754.8228047,-8.5497866298779,-0.12855882561128232,0.9864942956204917,-0.12576833048281974,23.106354648915545,9.114653997883867,35.34064754345129
1760515754.8328133,-8.179546884027618,-0.1145912140225923,0.981488896575068,-0.14202322889171884,21.824780400327192,6.934118404687703,32.88572797589366
1760515754.8427832,-7.8400952282985426,-0.10541494130294543,0.9751513764300793,-0.16295058474722848,20.48700322880296,5.787897180326474,30.034787521625557
1760515754.852816,-7.5385286007348675,-0.10098036549221683,0.9679822823276175,-0.18638105186145434,19.18007431501895,5.629958253553994,26.9942196870747
1760515754.8627667,-7.278052438424503,-0.10044279601416055,0.960382750663125,-0.2103089983015034,17.96768949812791,6.312739001451262,23.96993912333687
1760515754.8727696,-7.057583602581439,-0.10237356104802954,0.9526877741199928,-0.23301357238123094,16.891787611679245,7.615014415334686,21.15031895826455
1760515754.8827865,-6.871929745915566,-0.10506094637457546,0.9452028790272614,-0.25312785000922017,15.97630069141427,9.275318568750158,18.69210842184614
1760515754.892864,-6.712522057711692,-0.10683790696237719,0.9382329874025208,-0.26967385013632356,15.231579000094303,11.026268610500964,16.710268110369586
1760515754.9029074,-6.568584848704241,-0.10637215859680745,0.9320952560683801,-0.28207731660346674,14.658302357382683,12.625307683850693,15.272244076756916
1760515754.9128437,-6.428554992732803,-0.1028676019292166,0.9271118144192282,-0.29016879803927376,14.25016809508494,13.878315865159141,14.396759727447032
1760515754.9228506,-6.281529452355481,-0.09614806306083382,0.9235841699674721,-0.2941698842453759,13.995196183339743,14.654013840427629,14.056786249017836
1760515754.9327955,-6.118523815816377,-0.08661915873735869,0.9217561092143137,-0.29465859691519564,13.87597321975672,14.888719089608932,14.1860131116174
1760515754.9427702,-5.93336840543852,-0.07512847489359963,0.9217735549145206,-0.29250823371580764,13.869455340564814,14.582447812664167,14.687913420021875
1760515754.9528124,-5.723144794336302,-0.06276461548889659,0.9236487060002558,-0.2887992169210103,13.94701748586304,13.788361347689728,15.446391061208715
1760515754.9629953,-5.488157147303022,-0.050645532280289104,0.9272347889062581,-0.28471043173329036,14.075287859630082,12.59805996101814,16.336991193217607
1760515754.9727757,-5.23151559555674,-0.03974192969008258,0.9322181905768395,-0.2814022473424069,14.218001778211574,11.125276348110049,17.237725961535705
1760515754.982798,-4.958463058936243,-0.030765277188087206,0.9381346988271063,-0.27990663265912635,14.338743787570248,9.49022596691648,18.038688661103585
1760515754.9930935,-4.675591211686095,-0.024127501762828674,0.9444134104365562,-0.2810384152204941,14.404135678956644,7.806347985642951,18.649784395982135
1760515755.0027928,-4.390065261267134,-0.01995710570339997,0.9504451993524188,-0.2853347221390942,14.38686514730944,6.170518361826425,19.006090438732702
1760515755.0127835,-4.108927930038386,-0.01814374691737585,0.9556643658267131,-0.2930211430911001,14.267968562990209,4.657136574509127,19.070580788720527
1760515755.0228033,-3.8385096544931763,-0.018386888203317738,0.9596255078295985,-0.3039995375140122,14.037950137546494,3.315900755079196,18.834197687182915
1760515755.0328546,-3.5839542443931514,-0.02023891900110093,0.9620568285363837,-0.3178554813605787,13.696573490178558,2.1726956918932543,18.313495476538336
1760515755.0427947,-3.348874067245751,-0.02314668829650906,0.9628781342911718,-0.333889128943869,13.251430907272278,1.2328469257187127,17.546285186917785
1760515755.052851,-3.1351592346471433,-0.02649977382034558,0.9621835614285771,-0.35117555744068235,12.71562079958323,0.48597567764722055,16.585856147588853
1760515755.0630286,-2.9429659291247523,-0.02968970465562132,0.9601986394979053,-0.36865540988558404,12.10500672372176,-0.08827133815438815,15.494443394686225
1760515755.072902,-2.7708941809628063,-0.0321766343923369,0.9572243583187133,-0.385246024312545,11.435579549299023,-0.5143056557300592,14.33664548370688
1760515755.0828454,-2.616339146732261,-0.03355362645851656,0.9535796347638159,-0.3999550000236279,10.721397508589998,-0.8151487521406432,13.17346520422681
1760515755.0928047,-2.475972271147987,-0.03359702964989761,0.9495522253231882,-0.4119782264200238,9.973438798871285,-1.0080383473984067,12.057534810551877
1760515755.1028476,-2.346288816563954,-0.032294415938169695,0.9453672163312494,-0.42077122400469646,9.19948721927496,-1.1015449043742294,11.029905714406466
1760515755.1130638,-2.224148574374833,-0.029845970423394763,0.9411793596138129,-0.426090045105207,8.404932047944083,-1.0944684654395802,10.118555935746242
1760515755.1227875,-2.107235167640527,-0.02663838843716542,0.9370895706165885,-0.42800165788634537,7.594165216983336,-0.9765720588875101,9.338527815214032
1760515755.1328413,-1.9943674331043253,-0.02319336082791188,0.9331782952328331,-0.4268643658754959,6.772159407195609,-0.7309806517300975,8.69338971793718
1760515755.1428213,-1.8856180081872507,-0.020097361604347087,0.9295419845860415,-0.42327983582143375,5.945831797654254,-0.3378512063342895,8.17756200416328
1760515755.1529047,-1.7822284495852567,-0.017924155344754816,0.9263166990247492,-0.41802156547254177,5.124910481780508,0.22126525686105467,7.778994070480997
1760515755.1628165,-1.686348679278343,-0.017163362052196336,0.9236772213481148,-0.41194885356146776,4.322161940463116,0.9590534204210364,7.481732516190629
1760515755.1728427,-1.6006607852768437,-0.01816661853883775,0.9218101577922716,-0.40591797639485366,3.5529577121820246,1.878732685001065,7.268056506378805
1760515755.182853,-1.5279644766578206,-0.02111803737957461,0.9208700467815175,-0.40070138175784964,2.834242573294511,2.971577850113868,7.120032179834747
1760515755.1928902,-1.4707986701957374,-0.026029073848276813,0.9209325164792963,-0.3969213311121694,2.1830253029879003,4.215998136852661,7.020504836308129
1760515755.2031157,-1.4311522972110924,-0.03275187913488133,0.9219569426960039,-0.3949994005532138,1.614559342870131,5.5782562078680975,6.953663332323523
1760515755.2127845,-1.410287101058503,-0.041002558295115704,0.9237664645599865,-0.3951211594550158,1.1404222846748504,7.0146595968347265,6.905352892796714
1760515755.222861,-1.408668765707739,-0.05038750457456588,0.9260489006021464,-0.39721701947718296,0.7667373154958083,8.47484593759726,6.863285253181105
1760515755.232967,-1.4259882755649,-0.060430303832455845,0.9283784921097312,-0.4009633576609798,0.4927905081809518,9.905648568682617,6.817226240551645
1760515755.2428534,-1.4612517301216532,-0.0706000146192363,0.9302551525053387,-0.40580911975315426,0.31027083529240873,11.255007399635177,6.759165673833466
1760515755.2527754,-1.5129145325584277,-0.08034086180285535,0.9311561524265114,-0.4110299700925079,0.20329714812533828,12.47548031344189,6.683419342087181
1760515755.2628293,-1.5790263383824992,-0.08909911797551891,0.9305961600743106,-0.41580594834487256,0.14931023289719159,13.527066774455045,6.586589858182841
1760515755.273022,-1.6573400140316514,-0.09634038219341569,0.9281940975288158,-0.4193135860209093,0.12080875604816799,14.379230630030897,6.467323830926281
1760515755.2829108,-1.7453367781385523,-0.10155475599990581,0.9237460634282048,-0.4208221846602277,0.08780605577409782,15.012182910113637,6.3258385755998665
1760515755.2929552,-1.8401439714255396,-0.1042577192551009,0.9172999646589123,-0.4197857073777338,0.020794545242426295,15.417635209653481,6.163232306061952
1760515755.3028502,-1.9383678125753783,-0.10400335881422933,0.9092201283015107,-0.4159240042168293,-0.10606670430301005,15.59931343265745,5.98061638624652
1760515755.3128133,-2.0359098013241432,-0.10042586692021667,0.9002232594315389,-0.40928769539929494,-0.31188475150418127,15.573485753568004,5.778114408087942
1760515755.3228986,-2.1278595538476868,-0.0933140539288129,0.891365405107162,-0.40029967315304615,-0.6064822714226641,15.369586550700028,5.553780609664717
1760515755.3328087,-2.2085536092552913,-0.08271000873696804,0.8839648731580151,-0.38976494248165305,-0.9887914553155532,15.03070955592809,5.302521189948412
1760515755.3428104,-2.271870649988198,-0.06901509941928956,0.8794573424055013,-0.37884136764923015,-1.446600927692073,14.613336086094778,5.015157465217645
1760515755.3527799,-2.3118053005910046,-0.05308279659900096,0.8791945123365377,-0.3689655654411057,-1.9579771288493666,14.185260055061894,4.677829942101938
1760515755.3629546,-2.323314031015659,-0.03627076442595961,0.8842127268220722,-0.36172793257117136,-2.494530793201642,13.820430381286705,4.271981959161069
1760515755.3727744,-2.3033464737169154,-0.020414199721442403,0.8950075526372472,-0.3586894175459554,-3.026496299951402,13.58954125951189,3.7751534979770094
1760515755.3828163,-2.251880703691169,-0.007680878996326105,0.9113504437415609,-0.36113542252138353,-3.5293416668300694,13.54582587711245,3.1627254401378564
1760515755.3927898,-2.172718058118845,-0.0002888896057773994,0.9321755141514937,-0.3697741427174552,-3.9913381333357867,13.70668593794338,2.4105559027324652
1760515755.4028313,-2.0738033881784315,-0.00010850709507580207,0.955553432747372,-0.3844078056210509,-4.42122702150657,14.033335813324081,1.4981675308726181
1760515755.41281,-1.9669229198427924,-0.008212192899890454,0.9787603882192134,-0.40363047196460533,-4.854894209759835,14.412194124737987,0.41187112131693826
1760515755.4227858,-1.86676187670494,-0.024463787367260733,0.9984432609935626,-0.4246270530403224,-5.359858878456244,14.64290002307832,-0.852928185548545
1760515755.433024,-1.7894388301763458,-0.047244067572715404,1.010875665469355,-0.4431552975994701,-6.036422134622625,14.43818867036079,-2.29091088306028
1760515755.4430141,-1.750741894806218,-0.07339585267168995,1.0122943092677557,-0.45377769946757224,-7.01448867689084,13.440143742644796,-3.8878652855483975
1760515755.452932,-1.7643478026959312,-0.09843924596828256,0.9993029500876348,-0.4503735795179463,-8.44536110052246,11.255400661969828,-5.623458684309503
1760515755.4633787,-1.8402941358190428,-0.1170611489049042,0.969328733718999,-0.4269122764397915,-10.488239251819717,7.508746505759168,-7.475224932440082
1760515755.4727874,-1.9839059418833913,-0.12383320016159884,0.9211049314461516,-0.3784160320030407,-13.29179479200348,1.9105829619527768,-9.422943235929685
1760515755.4828844,-2.1952839492242857,-0.11407116830792996,0.855129570704605,-0.3019894808629643,-16.972073803410716,-5.670491332071515,-11.452517510832623
1760515755.492814,-2.4693832664318642,-0.08472306294778992,0.7740161404201757,-0.19774632643813592,-21.58908391225518,-15.142388069394332,-13.558650174325502
1760515755.5027945,-2.7966668123691862,-0.03515736981597878,0.6826291177707036,-0.06943513832197663,-27.125636692626106,-26.146215090736213,-15.746002128224397
1760515755.5129023,-3.164287644027024,0.03229415383445947,0.5879051505360187,0.07543103997431932,-33.473116407645804,-38.04956086947764,-18.02900940708794
1760515755.5228376,-3.557704348380824,0.11220025557426487,0.49830597407909016,0.22609349448748414,-40.42944580720492,-49.98750848665822,-20.430858901600832
1760515755.532847,-3.962556537011929,0.19644488970510887,0.4229169752390732,0.3697729402782237,-47.71398629685646,-60.95481308463063,-22.982110010141135
1760515755.5428174,-4.366559522114504,0.27524124556911206,0.37027906445186154,0.4934975296270274,-55.001511683579444,-69.94095616775743,-25.719062289357566
1760515755.5527978,-4.761160873330843,0.338602604670774,0.34711788349564443,0.5862086251999564,-61.97190629665305,-76.08584524988528,-28.68138844014796
1760515755.5627944,-5.142738789545685,0.3779133041728349,0.35720680359980006,0.6406205369923639,-68.36464065166528,-78.82220971801594,-31.90812731935515
1760515755.5728378,-5.513181130466824,0.38716364146101173,0.40062779892856054,0.6542993405736426,-74.02136873029458,-77.96865716172327,-35.43132501865201
1760515755.5828178,-5.879744596254409,0.363575886188322,0.4736236207890003,0.6296945279869373,-78.90154475664403,-73.75029690657293,-39.26759172203639
1760515755.5928233,-6.254170369754358,0.30764432321415625,0.5690790977581407,0.5732556359946892,-83.06579616936213,-66.74715103198744,-43.40903021217152
1760515755.6029794,-6.651145572073698,0.22279482406430295,0.67752158441202,0.49402238331279374,-86.6341070179953,-57.790932086310114,-47.81552404458988
1760515755.6127932,-7.086330577672576,0.11484602298624638,0.7884529127756357,0.402091046854602,-89.73346056127824,-47.83862789814619,-52.41009692090657
1760515755.622809,-7.574263626455131,-0.008643857706297609,0.891788617323212,0.3072431676681484,-92.45025891035071,-37.84818742689758,-57.07852933660386
1760515755.6329143,-8.126461129504163,-0.13909822806839806,0.979155237640614,0.21789805303052254,-94.79901640898834,-28.6742177372689,-61.67393960502843
1760515755.6431167,-8.749960031543484,-0.2676512666536767,1.0448177535685177,0.140451189184105,-96.71329131222701,-20.994081776660646,-66.02629636594413
1760515755.6528292,-9.446439947665008,-0.3858293067420003,1.086103462993143,0.07898435114986112,-98.05889400040846,-15.267796652207648,-69.95571283241671
1760515755.6628025,-10.211959189735293,-0.4861650447022157,1.1033181441979072,0.03528652994232537,-98.66408050742555,-11.729178266289855,-73.28747812689863
1760515755.6729875,-11.037260466712508,-0.5627517944454804,1.099257695336377,0.009108037767066557,-98.35803278656014,-10.40190906305749,-75.86670531816507
1760515755.682846,-11.908549635205132,-0.611732429528175,1.0784743458748196,-0.0014316118640204433,-97.00822283341599,-11.132692193358384,-77.57098174194124
1760515755.692775,-12.808616997558069,-0.6316772131807589,1.0464590046289035,0.0006416722126510316,-94.54887522967626,-13.633256614253195,-78.31979580883946
1760515755.7027907,-13.718151100753136,-0.623770202979254,1.0088651933344932,0.011652882139461144,-90.9957097202373,-17.523304935924834,-78.07961235386266
1760515755.7127764,-14.617092618928394,-0.5917238762670274,0.970851021709518,0.02773529390448075,-86.44560370089229,-22.368529994303202,-76.86381130065932
1760515755.7228215,-15.485894747658653,-0.5413822797592543,0.9365780532457156,0.04521750379000327,-81.06304359924782,-27.711839687478005,-74.72769340246224
1760515755.7327993,-16.30659361569374,-0.48003716784871114,0.9088880919629795,0.060924821306026965,-75.05752075287626,-33.099899511105455,-71.7599614055269
1760515755.742816,-17.06363706957905,-0.4155431081832207,0.8891700763809507,0.0723921424424114,-68.65692375861455,-38.108458907303266,-68.07268726223184
1760515755.7528179,-17.74446211126149,-0.35535865106714953,0.8774144730135413,0.07799375702594882,-62.08157788392798,-42.36829828091967,-63.791514750147996
1760515755.7630732,-18.33984398883866,-0.3056564830039377,0.8724308952883159,0.07699945314859104,-55.52238886661224,-45.590794599223955,-59.04715846777731
1760515755.7730942,-18.844059225677,-0.27063584125240453,0.8721870258534763,0.06956615081545636,-49.125171517471486,-47.589885453175214,-53.96865540484705
1760515755.7828767,-19.254906280491763,-0.2521358721881865,0.8742202371313363,0.05667210342866103,-42.98214862443489,-48.29636949411936,-48.67846458563148
1760515755.7927935,-19.57360932047517,-0.24959548704365453,0.8760740993331174,0.03999903651961807,-37.130937194712715,-47.76100064118006,-43.28928135563879
1760515755.8028023,-19.804597649724165,-0.26034660594979214,0.8757120694046284,0.02176733904640074,-31.560910119911263,-46.14440170275164,-37.90220576303497
1760515755.8127952,-19.955117847788124,-0.28017512661645544,0.8718542359173178,0.004530324601785671,-26.226316200386062,-43.69396220944725,-32.60569819624106
1760515755.8230011,-20.034615393408835,-0.30404365064465416,0.8641716604864133,-0.009063133005033756,-21.064718434546645,-40.71001701027028,-27.474701752517284
1760515755.8327742,-20.053838336793792,-0.3268486377438394,0.8532745451675235,-0.016521800752270235,-16.018116829340702,-37.5052330148801,-22.569499414125577
1760515755.8428164,-20.023685295173085,-0.34409314125309326,0.840476689911718,-0.015759318594745355,-11.052834379693309,-34.36204266995627,-17.934271525832862
1760515755.8528254,-19.953939460801276,-0.3523949364791604,0.8274083537256602,-0.005311163066759338,-6.173558178206535,-31.493248692420384,-13.595771588096452
1760515755.862835,-19.852148454643924,-0.34979563851696244,0.8156133109234353,0.01550530507156117,-1.427686397470436,-29.010838661892404,-9.562830793333955
1760515755.873597,-19.72294440599616,-0.3358670911634959,0.8062416406852579,0.04651499294370955,3.101376073720836,-26.90767518134271,-5.827417687186257
1760515755.8828244,-19.568006520728524,-0.3116319473626251,0.7998768472343142,0.08670752440369289,7.309928279866836,-25.055734604892642,-2.367783762261669
1760515755.8928094,-19.38669132117814,-0.2793364505922113,0.7964930642000335,0.13434556632792377,11.093897128659451,-23.222472522773806,0.8461058904226291
1760515755.9029462,-19.177178444267142,-0.242126424239273,0.7955316592925193,0.1871286569719425,14.367321665124118,-21.103741505923267,3.845161960083083
1760515755.9129043,-18.93786281560186,-0.2036738124833851,0.7960756908490091,0.24238539005625476,17.074952393129806,-18.368325703373788,6.652724574739715
1760515755.9229093,-18.668685044369305,-0.1677889461253721,0.7970767225023178,0.2972780924191352,19.19703803445723,-14.70673980633995,9.27654987494584
1760515755.9328349,-18.372124490531927,-0.1380450685923274,0.7975733612693359,0.3490070768919536,20.747051944998756,-9.87624010393943,11.702850799648047
1760515755.9431443,-18.053668731926773,-0.11744127282039703,0.7968486595620514,0.39499559166164144,21.764932842981192,-3.7351646146343573,13.893750116532408
1760515755.9528608,-17.721698499254977,-0.10813507469639247,0.7945000467777553,0.4330316165615287,22.308885639157456,3.737649875679822,15.788948098506433
1760515755.963099,-17.386858197981475,-0.1112774414484931,0.7904260911188771,0.4613470215554897,22.448122352924383,12.43939253438533,17.311725851615492
1760515755.9728115,-17.061081934688957,-0.12697265698370047,0.7847555360620767,0.4786288829290069,22.2578117810498,22.153943146573226,18.378749062417107
1760515755.9828577,-16.7564856481952,-0.15436303176742566,0.7777520569240387,0.48397544754538113,21.81659199572857,32.57314388347589,18.912594550358158
1760515755.9928362,-16.484313853249734,-0.19181248208322285,0.7697268424112309,0.4768226224742722,21.206501622211157,43.324551417202514,18.855514450867577
1760515756.002929,-16.254065696630082,-0.23714378212057824,0.7609837953360695,0.45687210905967146,20.51492914424577,54.00169362063613,18.18269903297779
1760515756.0129697,-16.07285171191848,-0.2878795767788207,0.7518107708917472,0.42404972482086334,19.837885242283235,64.19335981892966,16.913251181199055
