timestamp,angle,linear_acceleration_x,linear_acceleration_y,linear_acceleration_z,angular_velocity_x,angular_velocity_y,angular_velocity_z
1760514702.713816,-4.396548937295278,0.04240184820814565,0.8400256160595883,-0.31225434361316684,9.551306286477805,17.879509382365484,9.0221403973867
1760514702.7238393,-4.177663029829739,0.0419948837275223,0.8301108825873896,-0.3085454490483506,9.41730146983648,18.9775083893943,9.206683418692998
1760514702.7338278,-3.97745625887571,0.03730155151634733,0.8257320283646227,-0.30784164031149147,9.248243927520894,19.771058734450328,9.482973927952484
1760514702.7438154,-3.7956883897660303,0.029011596669194395,0.8277813799605517,-0.31082574157359555,9.046023084546267,20.15139879832938,9.839172577327243
1760514702.7538292,-3.6303574214247334,0.0182926158924921,0.8364658972554235,-0.3178072282038622,8.812949628255833,20.036648216117115,10.254184803353688
1760514702.7638159,-3.4779135894358926,0.006622679127480056,0.8512586318416354,-0.32869159526838987,8.552698230947927,19.382496005054723,10.697979091190664
1760514702.7738118,-3.3337159001248464,-0.004450910681538592,0.8709634583782978,-0.34302061082250696,8.271834933605659,18.190011851481334,11.133155914799154
1760514702.7838159,-3.192681511259147,-0.01356998738411464,0.8938680161252549,-0.36006291823750564,7.981409934742483,16.50921351925915,11.517720821018745
1760514702.7940853,-3.050045450246606,-0.01978535386373752,0.917952506698429,-0.3789304671783153,7.697829264128301,14.437246439058049,11.808773282425323
1760514702.8038318,-2.9021298386061813,-0.02269860527507394,0.9411249108191977,-0.39870111328734226,7.4422214299987015,12.110621638203261,11.966621882019403
1760514702.8138385,-2.7470167204703158,-0.022505240703282716,0.9614552744923877,-0.4185316013026234,7.237836550082956,9.691834277791978,11.958743339874667
1760514702.8239212,-2.5850256053403657,-0.019935854178118884,0.9773818651642683,-0.43774635733622663,7.105586043878405,7.351689606782998,11.763043593698665
1760514702.833824,-2.418916914318043,-0.016109067772653998,0.9878638869764194,-0.45588902216955435,7.058478319545234,5.249589700822114,11.370025694657528
1760514702.8438168,-2.2537758762592897,-0.012325393866752436,0.9924604631522764,-0.4727275374043757,7.09623717921507,3.5146660030721044,10.783676626664151
1760514702.8539505,-2.096575588906221,-0.009842697885511242,0.9913237071581732,-0.4882112507965636,7.201653365172245,2.230783690858193,10.021108488579927
1760514702.8639,-1.9554669376451632,-0.009677154634921853,0.9851069151658829,-0.502390932505207,7.340061365878405,1.4279277511156132,9.111161853395343
1760514702.873857,-1.838886395832141,-0.01246473075237135,0.9748078698880303,-0.5153261870371428,7.462646824424592,1.0812972942036465,8.09223829870409
1760514702.8838196,-1.7545998605166795,-0.018399813702776123,0.9615849000321329,-0.5270106117882937,7.513244712766589,1.1179092583444168,7.0095923013987775
1760514702.8938508,-1.7088078758099745,-0.027248968403819976,0.9465885045514046,-0.5373373362786202,7.4373353648724,1.4291759310452328,5.9122643105613655
1760514702.90382,-1.7054267920688082,-0.03842556111137956,0.9308400820634063,-0.5461101651198864,7.191451457216116,1.887124294907635,4.849830987301096
1760514702.9138339,-1.7456336890732989,-0.05110440762470797,0.9151689600218974,-0.5530881376928939,6.751219530256044,2.361690629834257,3.8691746830718117
1760514702.9238365,-1.8277231544852455,-0.06435253985537308,0.9002010433513885,-0.5580417983213379,6.116631743566829,2.736713477378606,3.0115002370043245
1760514702.9338815,-1.9472777935831969,-0.07725291840502088,0.8863840084463714,-0.56080056287928,5.31372690025458,2.922721455181958,2.309825299900409
1760514702.9439113,-2.0976098088856494,-0.08900247695085357,0.874034286927448,-0.5612794439567604,4.3925180590960045,2.8652402245712723,1.7871198005260729
1760514702.9539056,-2.2703949586404777,-0.0989726197441223,0.8633941834273137,-0.5594834389490717,3.421593106723133,2.548004424827551,1.4551717774314232
1760514702.9638476,-2.456398309290653,-0.10672765839393801,0.8546881270723833,-0.5554937306984012,2.480215242245434,1.991077700488521,1.3141364687240653
1760514702.9740937,-2.6461876772118926,-0.11200409358194689,0.8481652384649794,-0.5494413736666764,1.6489246314971384,1.2444357760995366,1.3526169794290401
1760514702.9839156,-2.830745957586696,-0.11466065131006815,0.8441154247446593,-0.5414746660757106,0.9996472999086622,0.37804897929745945,1.5480631301122625
1760514702.9940753,-3.0019236163786753,-0.11461473373016963,0.842851669087741,-0.5317281868319853,0.586248329294555,-0.5301224093248036,1.8672958839980123
1760514703.003834,-3.15271157524829,-0.1117845268170196,0.8446609816281102,-0.5203035474231755,0.43638662930916217,-1.406586718105343,2.267082281940248
1760514703.0138464,-3.277356361301553,-0.10605637569099827,0.8497359234687984,-0.5072713400040442,0.5454470888274838,-2.1935615533186428,2.6948674679483076
1760514703.023853,-3.3713756598071423,-0.09729296094216418,0.8581034019630984,-0.4926987809016603,0.8732214979206327,-2.857453406712978,3.089943917732346
1760514703.0338452,-3.431553142897428,-0.08538879750594888,0.869566461499354,-0.47669979627817816,1.3438577943856413,-3.3933175178229593,3.3854287854071816
1760514703.0438359,-3.455988621594829,-0.07036703713589156,0.8836700048211293,-0.4594975163722176,1.8493850847881073,-3.8245008443068254,3.511385752329844
1760514703.053834,-3.444252398442971,-0.05249867637396264,0.899695723601042,-0.44148572572428146,2.256850182849113,-4.197332736551594,3.3992677629733197
1760514703.0638688,-3.397648530434162,-0.032415569629661745,0.9166871088815741,-0.4232752862631548,2.4187802753237095,-4.571554181350499,2.9876068123685147
1760514703.0741508,-3.3195417145781496,-0.011184305801257571,0.9335030832625427,-0.4057121159287624,2.18633821977723,-5.008047943829406,2.228594850847199
1760514703.0840733,-3.215656244521054,0.00969060337260791,0.9488983339781264,-0.3898539379215021,1.424200206449406,-5.5561675138782265,1.094948526375763
1760514703.0938518,-3.094220020267221,0.028358808560649085,0.9616287363366162,-0.376894171201151,0.025904792946222506,-6.243346268974039,-0.4137306522596612
1760514703.103943,-2.9658113642075916,0.04282236973728446,0.9705794441149993,-0.36802506293072074,-2.07176601310223,-7.0694803709385585,-2.2660011410959857
1760514703.113853,-2.8427871896211823,0.05122843058611606,0.9749087956383001,-0.36424212143285195,-4.876893601553103,-8.007680034270118,-4.3959961191494195
1760514703.1238563,-2.738243625800088,0.052213525482477034,0.9741917971514192,-0.3661111672605822,-8.334526909730009,-9.011431300458096,-6.7041804674554735
1760514703.1338503,-2.6645829197522386,0.04522536953751424,0.9685358356025751,-0.3735445272633558,-12.324219112741392,-10.026334670503207,-9.06229565677987
1760514703.1438692,-2.6319003981104836,0.030732696699199064,0.9586366381777017,-0.38565045313555973,-16.66426688107515,-11.002986198524402,-11.322963589192375
1760514703.1539624,-2.6465064109120524,0.01024987193158755,0.9457511888880217,-0.4007142430447731,-21.12353513083639,-11.906956081017254,-13.33373582628887
1760514703.1638544,-2.7099121413814165,-0.013849367637818388,0.9315843366484183,-0.41633932029049175,-25.44096551565073,-12.722652448486777,-14.954453628016775
1760514703.1738474,-2.8185237961981193,-0.03869497021260697,0.9181067815522787,-0.42973652579842286,-29.351640306067438,-13.44993334798329,-16.07584949985661
1760514703.1838427,-2.964137745910647,-0.061380362161185024,0.9073341214483666,-0.4381158120908308,-32.616847176309086,-14.094836508670609,-16.63667380518727
1760514703.1939113,-3.135162601549174,-0.0794218132234213,0.9010978659934052,-0.4391120683417762,-35.05441911635825,-14.657805019304048,-16.636516217744795
1760514703.204237,-3.31836016633657,-0.09113027637714446,0.9008345688247934,-0.43116603727192165,-36.56509898356517,-15.123686868036799,-16.141977243581632
1760514703.213913,-3.5008189357794244,-0.09583403956350339,0.9074135562964771,-0.4137837462399847,-37.15093971208625,-15.457378363030166,-15.284803730605061
1760514703.2239301,-3.6718522676843084,-0.09392106722279199,0.9210191862187197,-0.3876166867366726,-36.92270076161363,-15.607409278236679,-14.251812210322901
1760514703.2339513,-3.8245405800524352,-0.08670181072839882,0.9410999897756924,-0.3543402024568772,-36.09460528220083,-15.517460116480894,-13.267659600837113
1760514703.243881,-3.9567045282660662,-0.07612500288033196,0.9663935645741594,-0.31635226296305335,-34.96642352630825,-15.143387263842056,-12.572582314070639
1760514703.2539194,-4.071194006362181,-0.06440638821565736,0.9950312442917199,-0.2763561082361834,-33.8944444251988,-14.47148981593405,-12.397933970825804
1760514703.263992,-4.175491026122013,-0.053647069779022144,1.0247184819398414,-0.23691509127441132,-33.25433601898621,-13.533046236293353,-12.94256990522466
1760514703.274121,-4.280732623941096,-0.04551841708780165,1.052975228655529,-0.20006961079330857,-33.4000267694413,-12.410841964791372,-14.352817137092552
1760514703.2838483,-4.400341082305054,-0.04107248163189456,1.0774083112277755,-0.1670864874718502,-34.62340385778416,-11.23530254947588,-16.708052903107912
1760514703.2938511,-4.548487582552078,-0.040704849723581626,1.0959795597611248,-0.13837901646603462,-37.11967295487874,-10.170326909542592,-20.013028392970767
1760514703.3038483,-4.738608862011791,-0.044259336469200085,1.1072321743752112,-0.11360027358464173,-40.962581409288155,-9.391249464852802,-24.197235226770758
1760514703.3138433,-4.982153066545012,-0.051230527004035645,1.110443367964292,-0.09187891841649716,-46.092459923196856,-9.058997250584424,-29.12093435166659
1760514703.3238528,-5.287666676311956,-0.06100037447001637,1.1056822223611744,-0.07213970999422739,-52.31843958860686,-9.295177950343803,-34.58697535733708
1760514703.333841,-5.660266980737331,-0.07304457204325888,1.0937668215481613,-0.053434596517719306,-59.334525944631444,-10.16251093833713,-40.3571896806159
1760514703.3438537,-6.101487320797696,-0.0870603553364376,1.0761314590641122,-0.03520841485547881,-66.74760325382611,-11.653837503961503,-46.17183864936139
1760514703.3538406,-6.609440458268207,-0.10299165967431277,1.0546279589366785,-0.0174382410935753,-74.11396152284136,-13.691159306596008,-51.77024225151026
1760514703.3638563,-7.179219223183567,-0.12095419000574181,1.0312912395466618,-0.0006173400596212411,-80.97978059967092,-16.13413332002927,-56.91038276990897
1760514703.3738594,-7.803443047717906,-0.14108815785566603,1.0080995556375718,0.014402662841945782,-86.92056080425107,-18.79575215344636,-61.385249631089636
1760514703.3838437,-8.472865049639179,-0.16338586640114192,0.9867584430070712,0.02665834355759439,-91.57504235443731,-21.46208991131424,-65.03421716329352
1760514703.3938649,-9.17697587054363,-0.18755033084641018,0.9685356966242875,0.035335559134590695,-94.67054442104178,-23.9131595821287,-67.74874458480014
1760514703.403835,-9.904570559127583,-0.21293407375704973,0.9541692326717836,0.039975478784677713,-96.03835361433603,-25.942780816792048,-69.47275486999962
1760514703.413835,-10.644271475358469,-0.23858129323120753,0.9438559875926169,0.04058312017803482,-95.6192678431143,-27.376267501944067,-70.19878162494892
1760514703.4238544,-11.385013342135773,-0.2633607757375776,0.9373106572615396,0.03763187572147769,-93.46032132036004,-28.085198695838937,-69.96123014743699
1760514703.433856,-12.116493907867511,-0.2861487113383922,0.9338689467642459,0.03198592881676417,-89.70401683230084,-27.998539376724583,-68.82800977295065
1760514703.4438534,-12.829580682488773,-0.3060105515062849,0.9326092622212218,0.024775526463815062,-84.5713354721211,-27.109376984013295,-66.89159589553545
1760514703.4538574,-13.51665012981695,-0.3223379431311248,0.9324756796978381,0.01725997041816923,-78.33985052312997,-25.47684933733541,-64.26043636714283
1760514703.4638407,-14.171828951177611,-0.3349142262373999,0.9323939577223804,0.01070458690323382,-71.31875816825637,-23.223302246745426,-61.051538642644104
1760514703.47386,-14.79111115041705,-0.3439027481631839,0.931376608657658,0.006284307335446468,-63.82340669659926,-20.526984187236618,-57.38494252319965
1760514703.484159,-15.372336871349773,-0.349769630168871,0.9286138847074714,0.005012113981876759,-56.1523933851973,-17.61049183378232,-53.380443622126684
1760514703.4938295,-15.915034453898683,-0.353163515081363,0.9235473711540676,0.007681005142328321,-48.569956865817595,-14.724824744148316,-49.156356527767535
1760514703.5039027,-16.42014263698528,-0.3547799646394413,0.9159228470582884,0.014807493760482742,-41.295164478981604,-12.128657976443911,-44.82950115611047
1760514703.5138574,-16.889644506343803,-0.35523818134677576,0.9058189270439575,0.02657356625639444,-34.49778337557663,-10.062808998815711,-40.51525940358251
1760514703.523876,-17.326157610489293,-0.35499227989967563,0.893646407598224,0.04277834507350044,-28.299449536732936,-8.721120268655389,-36.32661991042343
1760514703.534077,-17.732534001310995,-0.35429074596643684,0.8801099662560333,0.06282190798870561,-22.778289941602075,-8.22078923220284,-32.37154132665071
1760514703.5439498,-18.111527723988573,-0.3531894888716981,0.8661227870732756,0.08574361992864098,-17.975467341267574,-8.576831431350293,-28.748581977608485
1760514703.554145,-18.46558106501023,-0.3516151912991398,0.8526720638715622,0.11032410597806057,-13.902702253139164,-9.686155753390477,-25.541414198745834
1760514703.563979,-18.79675915466713,-0.3494638649904477,0.8406502456375493,0.1352391656960983,-10.550128499990869,-11.326204960517872,-22.813362301977676
1760514703.573889,-19.106826615772036,-0.3467080693599794,0.8306853503648697,0.1592346100827397,-7.8936975921484605,-13.171120291380648,-20.603265135486005
1760514703.5838509,-19.397423077077153,-0.3434834636754567,0.8230129629886377,0.18128108089010786,-5.9010861900589555,-14.825231394049563,-18.923689428226023
1760514703.5938578,-19.670273863775943,-0.34013433252743913,0.8174270300852875,0.20067090853884342,-4.535130451570868,-15.870146004213643,-17.761919407142816
1760514703.6038485,-19.927375338273297,-0.3372114263741726,0.8133265627665547,0.2170347696706123,-3.7543697393113353,-15.918782372918507,-17.08344832113963
1760514703.6138592,-20.17111401835042,-0.33542442110726556,0.8098466222826128,0.2302808894191204,-3.511114230604753,-14.668093651869322,-16.83714297675531
1760514703.6239157,-20.404302462044217,-0.3355545805918162,0.8060367301356932,0.2404843745129091,-3.74819033226901,-11.942320698103952,-16.96101106293797
1760514703.6338446,-20.630135924764694,-0.33833771591045364,0.8010408539231713,0.24776619795864094,-4.395876168716371,-7.720256536352951,-17.387580835694557
1760514703.644076,-20.8520901600493,-0.34433636363244136,0.794242405601797,0.2521954169860803,-5.3703927970081,-2.1426663072212713,-18.048172721447152
1760514703.6538448,-21.07379073590341,-0.3538277230982543,0.7853552337082335,0.2537319185246321,-6.574722698523863,4.500982314768361,-18.87565975171094
1760514703.6638486,-21.298885277752674,-0.36673388533601436,0.7744562928444488,0.2522119162920742,-7.9017322008222095,11.80440958315234,-19.805619319394605
1760514703.6739185,-21.530940945524865,-0.382612207390994,0.7619638306016937,0.2473709188806363,-9.238929182768851,19.29039212989494,-20.77608426673403
1760514703.6838722,-21.77337236099939,-0.40070953489987804,0.7485688669235374,0.23889792558559922,-10.473932608633781,26.463977701999802,-21.726412583159444
1760514703.6938498,-22.029386201007217,-0.42006913847824057,0.7351309677709688,0.22651471517063318,-11.499844050915321,32.86534608687339,-22.596048585352825
1760514703.7040656,-22.30191508232449,-0.43966758944718665,0.7225534519588996,0.21007115927575473,-12.219980394464326,38.114814422697314,-23.324018307179735
1760514703.7138505,-22.593509282002202,-0.45855200367400817,0.7116572439813641,0.18964246344436564,-12.551643994735898,41.94409884159597,-23.84978887471356
1760514703.7238626,-22.906160226614187,-0.4759474916184572,0.7030743616247818,0.16561033323781163,-12.428702749163707,44.21067291724035,-24.115664101905566
1760514703.7338517,-23.241043074790777,-0.4913124531675272,0.6971797609316763,0.13870849784377212,-11.802804543602825,44.8951771484139,-24.07036757286379
1760514703.7438655,-23.598185702902434,-0.5043350906358826,0.6940733569882047,0.11001405399605853,-10.64318580385746,44.084544815004335,-23.67306832587939
1760514703.753847,-23.97609587107938,-0.5148826392260629,0.6936127310111476,0.08087229488393526,-8.935301152027495,41.94532081602795,-22.896908740586124
1760514703.7638547,-24.371403608572688,-0.522928106111139,0.6954835684659824,0.05275672062362456,-6.678815254635704,38.69243638852672,-21.73109431027829
1760514703.7738562,-24.778595786109147,-0.5284832070052266,0.6992852490068378,0.027084790531750922,-3.885697213258748,34.55860549870361,-20.180797552195177
1760514703.7838595,-25.189925725470506,-0.5315598137269406,0.7046087939687508,0.005025657510159744,-0.5791014460457703,29.768759464750865,-18.264513959125818
1760514703.7938583,-25.59556465983609,-0.5321682296328661,0.7110921351288075,-0.012657677263708941,3.206634080241122,24.522708745135645,-16.00905326314939
1760514703.8038638,-25.984022717941173,-0.5303445180864996,0.7184473180684435,-0.025694349768498295,7.425085296624469,18.987620154491484,-13.442974336501146
1760514703.8140633,-26.342813684612633,-0.5261871450327866,0.7264622648093889,-0.034297893160259975,12.01665327872118,13.300077880347317,-10.589842780654038
1760514703.8242002,-26.659286319721005,-0.5198795983774721,0.7349857730436987,-0.03906647131264278,16.908231559665634,7.575772077293045,-7.463022703233173
1760514703.8338745,-26.921510368844356,-0.5116804431837223,0.7439080111274715,-0.040817628689627655,22.014408402204303,1.9236523505102212,-4.0636217129596055
1760514703.8438492,-27.119093296540658,-0.5018720199609512,0.7531489854510008,-0.040400786148884586,27.24054101655283,-3.5390102381033235,-0.3825866550112816
1760514703.853979,-27.243813766522617,-0.4906715410793836,0.7626646044132663,-0.038533445454446355,32.48754947113246,-8.673823436374736,3.5931176545740615
1760514703.8638973,-27.289990423015027,-0.4781238208804874,0.7724747458363649,-0.03569734481244845,37.65789926051649,-13.31306525261579,7.871495939572416
1760514703.8738933,-27.254556999833763,-0.46400948359188765,0.7827099210993909,-0.03211344966724185,42.66198533166684,-17.257485666928446,12.445776950137615
1760514703.883907,-27.136873691673888,-0.4478074836865008,0.7936634524500624,-0.02779349414738139,47.423964242634085,-20.2807854312994,17.286244270935182
1760514703.893861,-26.938351335468024,-0.4287417082182115,0.8058287738494615,-0.022645345280736664,51.88602155881119,-22.140840485953298,22.33549030028017
1760514703.9039323,-26.661988616238954,-0.4059227051621102,0.819901516561269,-0.01659651624558546,56.01014743355003,-22.59718543260218,27.50800581282964
1760514703.913883,-26.311924046274395,-0.37857378566059363,0.8367332881668547,-0.009699593294485883,59.776728674457495,-21.43367780870071,32.69391368422035
1760514703.924114,-25.89308957121701,-0.34630961798920273,0.8572332691268948,-0.0021940144102826488,63.179643101606494,-18.484627277872743,37.765720939013136
1760514703.9339132,-25.411026329049047,-0.3094177444704868,0.8822214487378726,0.005485149063684537,66.21807358476603,-13.662045507763082,42.586481125542036
1760514703.9438586,-24.87188898644064,-0.2690824946153757,0.9122449195115757,0.012744820014558778,68.88591916715323,-6.981145237408985,47.017813584195586
1760514703.9538612,-24.282627203156967,-0.22748991920574682,0.9473782266553392,0.01889912633149746,71.1603629269095,1.4191322572869418,50.92668342302107
1760514703.963868,-23.65129633592759,-0.18776477014697532,0.9870396009818809,0.023236595861290392,72.99173085312326,11.263914100009194,54.19049288306203
1760514703.9738693,-22.987419395384133,-0.15371640182961555,1.0298641866957485,0.02506462897510684,74.29713802700802,22.14173399742881,56.70069221536652
1760514703.983897,-22.302301368399146,-0.12940453780022473,1.073678112818668,0.023717746610506418,74.96043721340426,33.51805363029843,58.36563712417094
1760514703.9938693,-21.60918740469778,-0.11857053004841386,1.1156065037587848,0.018537288239119237,74.84044797727269,44.76428662680039,59.11365712816561
1760514704.0039597,-20.92316173344498,-0.1240098874127564,1.1523223911480123,0.008853925575956276,73.78815282442625,55.20137837888479,58.89716209386066
1760514704.0138676,-20.2607089126743,-0.14698554912401743,1.1804120360413581,-0.00598413402328701,71.6715535208425,64.15406897918581,57.69812650586625
1760514704.0239594,-19.638904830964684,-0.18679693917872608,1.1968095072250422,-0.026509354853005603,68.40464302324703,71.00927783151566,55.53459092357713
1760514704.0338838,-19.074267871775938,-0.24061913616394587,1.199241834065859,-0.05297231251962607,63.975205384673345,75.2707993397374,52.467100456814556
1760514704.0439641,-18.58136948580779,-0.30369185093452966,1.1866171120610927,-0.08517297149575959,58.465579677816635,76.60341048557417,48.60346515516964
1760514704.0538669,-18.17136133591741,-0.36985954123294745,1.159280660898468,-0.12235096508602934,52.06137969028278,74.86208491279474,44.10007391547067
1760514704.0638745,-17.850609115345378,-0.4323662604468663,1.1190725440201075,-0.16317252946429966,45.045209994277094,70.104909442168,39.15835228370359
1760514704.07387,-17.619627262140828,-0.48474145218095216,1.0691553249828,-0.2058121308709065,37.77509208407806,62.5903625133454,34.01576998140856
1760514704.0839741,-17.47248902195465,-0.5216078665475717,1.013636981180553,-0.24810349544313806,30.65000139506751,52.76053297648648,28.931792461719002
1760514704.09398,-17.39684820120469,-0.5392901437304995,0.9570669488022334,-0.2877316679927433,24.067191428595297,41.21188352000642,24.169993083251327
1760514704.1038663,-17.37465205977451,-0.5361655139700309,0.9039078544792403,-0.3224414873614929,18.377592532853903,28.65481071304044,19.978048283851685
1760514704.1138756,-17.383543188072395,-0.5127442408260886,0.8580718244989647,-0.350241292845336,13.846228381555832,15.863288337894792,16.567596403865817
1760514704.123877,-17.398840998349296,-0.47149307974347354,0.8225731187978189,-0.36958786562238977,10.623949172667468,3.6169797437068203,14.096057514868404
1760514704.133889,-17.395879356463272,-0.41643837789010946,0.7993136306416537,-0.3795472063053935,8.73477889329822,-7.359785981457615,12.65248401732534
1760514704.143878,-17.352394702374763,-0.3526155584141097,0.7889980112028,-0.37992322076833684,8.080266709847939,-16.456019896890485,12.249243002381892
1760514704.1538646,-17.250643672720386,-0.28545542461291523,0.791167608607082,-0.371331790792099,8.459191700548628,-23.222572587999725,12.8207518307966
1760514704.1639137,-17.07898404673283,-0.22019885699806138,0.8043380233827652,-0.35518828953206943,9.598540216372701,-27.40584277639119,14.229663045765264
1760514704.174081,-16.832749740975764,-0.16140988452478688,0.8262187904773192,-0.33358607778461447,11.190329220156425,-28.963383214980276,16.279993738827542
1760514704.1838713,-16.514356092462645,-0.11262614338923947,0.8539870992803335,-0.3090684842257914,12.928689864945017,-28.06014193647789,18.735868987090804
1760514704.1938791,-16.132666877250582,-0.07615906699696723,0.8845849479638904,-0.28432541231117714,14.542438525033276,-25.04601269087881,21.34387947421267
1760514704.2038763,-15.701734483801074,-0.05303897752856849,0.9150118737380398,-0.2618677129539786,15.819763696154359,-20.417196495664967,23.85659297698167
1760514704.2139063,-15.239087878114269,-0.04308915707770914,0.9425904624475475,-0.24374024680132933,16.623236699213464,-14.765486732560433,26.05457656067536
1760514704.2241156,-14.76378278000808,-0.045101431123214235,0.9651862339724173,-0.23132419336551224,16.894782520148386,-8.720751565168511,27.764467306487923
1760514704.2340927,-14.294434298988183,-0.05707228726562161,0.9813665807503049,-0.22525371402499686,16.651344005547244,-2.8924042614860817,28.871216119854516
1760514704.243875,-13.847423127831558,-0.07645204003933781,0.9904855916521463,-0.22544149386491807,15.972721643470386,2.1845022869207393,29.32351933279417
1760514704.2538986,-13.435420993491439,-0.10037278184207331,0.992683925709054,-0.23118431565720246,14.983586870207452,6.09359579553797,29.132408731574408
1760514704.2638671,-13.066345438682143,-0.12585233175707916,0.9887989158687688,-0.24131332832888736,13.832101039467188,8.567968204178758,28.363778314122637
1760514704.2739058,-12.742834195563736,-0.1499974382592325,0.9801933237625033,-0.2543641783305618,12.667949034799571,9.504766458490042,27.126210947521596
1760514704.28401,-12.462303443751544,-0.17022522352022126,0.968528708490065,-0.2687560342334906,11.622710454071408,8.962568169222742,25.555839813099425
1760514704.2940462,-12.217597783098222,-0.18449084864985146,0.9555219085171291,-0.28297020361795766,10.795065046787448,7.142408705994866,23.8001363004579
1760514704.30394,-11.998154862150347,-0.1914806586910784,0.9427242765233506,-0.29570967400928966,10.242337048156624,4.3551852829286295,22.00244625577955
1760514704.3139105,-11.791521389231978,-0.19072547981594584,0.9313547096656226,-0.30601560571744835,9.978650979826007,0.9797123415302089,20.288823456622698
1760514704.324019,-11.584999673821766,-0.18260614902695627,0.9222038995361529,-0.31332443689820827,9.97891690005098,-2.583242382066277,18.758289527731208
1760514704.3339927,-11.367191445906988,-0.16824901400770786,0.9156122202020983,-0.3174648770314188,10.187206274533906,-5.9552378319420605,17.477145707180057
1760514704.3438964,-11.12923788098866,-0.14933200888351622,0.9115111663359781,-0.31860822908896946,10.52781022022857,-8.817526948395656,16.477435766007424
1760514704.353887,-10.86561821004945,-0.12783662379287053,0.9095115923429161,-0.3171927372738984,10.917282629973176,-10.937576952781024,15.759178581018134
1760514704.363877,-10.57444681611742,-0.10578657909134648,0.9090206760316982,-0.31384230566071347,11.275961498012554,-12.18264733184903,15.295615731345142
1760514704.3739414,-10.257285710376891,-0.08501155474031737,0.9093701226859274,-0.30929382328806104,11.537758960160334,-12.52032115239497,15.040489201401838
1760514704.383896,-9.918554773351675,-0.06696577438848138,0.909938456334894,-0.30433827300726707,11.657351713351657,-12.007657499235469,14.936280675837727
1760514704.3938892,-9.564668036799532,-0.05261875004528178,0.9102507870342964,-0.2997719247743139,11.614237662128621,-10.771920450909567,14.922391395823682
1760514704.4038966,-9.203045339783085,-0.04242153674164856,0.9100416650511111,-0.29634820789419963,11.413430393127932,-8.986516031667652,14.942394197019567
1760514704.413896,-8.841143219742278,-0.03633897061461657,0.9092714564536442,-0.2947205924362853,11.082857069876798,-6.8458253853467035,14.949716576514671
1760514704.423987,-8.485619948082753,-0.03392912142886238,0.9080943724226712,-0.2953730865809645,10.667847735622297,-4.54213821535395,14.911383660702429
1760514704.4339023,-8.141705914802468,-0.03444782996824209,0.9067867755395127,-0.2985469786022023,10.22348371030349,-2.247015920701238,14.809727070399848
1760514704.4438968,-7.812805346819894,-0.03695938815465822,0.9056557098281196,-0.30418539179269577,9.805973223739786,-0.09835564646686452,14.642206745117699
1760514704.4538732,-7.500321777124245,-0.04044180062144491,0.9049536733081279,-0.3119213220004668,9.464494681469333,1.8065797404684023,14.41965670207936
1760514704.4638815,-7.203683712789425,-0.043881875596008216,0.9048201132832179,-0.3211227317499963,9.234883765762431,3.4126488258377288,14.163339152726321
1760514704.4738908,-6.920543559340274,-0.04635807872596156,0.9052554056708261,-0.33098594489242755,9.136060539164475,4.703736922917649,13.901203140767251
1760514704.483876,-6.6471218503715965,-0.04710844758803742,0.9061201655603998,-0.3406519465430372,9.16938032950431,5.6961677295188515,13.663737730838609
1760514704.4940813,-6.37866472628158,-0.04558037617420269,0.9071491685317302,-0.34931836942147143,9.320468459558626,6.429816857741472,13.4798035930613
1760514704.5038884,-6.1099769599031,-0.041460594818081946,0.9079730069373094,-0.3563285894772704,9.562766324007692,6.958204590596785,13.372810145089288
1760514704.5140162,-5.835988838936126,-0.034686240747915174,0.9081464803553083,-0.36123010151131374,9.861965938503642,7.338849553533543,13.357566942770434
1760514704.5239608,-5.552313807367377,-0.02543985007202345,0.9071872257520736,-0.3638031272075886,10.180626256371635,7.62502209166439,13.438076583621065
1760514704.5338771,-5.255754389684898,-0.014131633572530736,0.904629342684236,-0.36406634289603823,10.482439598101536,7.859730275067944,13.606453948488456
1760514704.5439034,-4.9447165936050945,-0.0013718050313078984,0.9000937426078919,-0.3622688984841495,10.735782304788248,8.072350953624605,13.843057399442253
1760514704.553885,-4.619498743290113,0.012065201545152763,0.8933705263123548,-0.3588760596852298,10.916308501478158,8.277871842460673,14.117810927755704
1760514704.5638752,-4.282430214020162,0.025283585586463923,0.8845014058442269,-0.35455090849588405,11.00843467976329,8.478335550468291,14.392593320986556
1760514704.5738797,-3.9378475196614313,0.03731601127114972,0.8738445127160216,-0.35012865517751246,11.005650797924948,8.66584454298712,14.624480214276465
1760514704.5838838,-3.591906699131434,0.04718171441484021,0.8621016290672021,-0.3465754809052388,10.909721861807995,8.826415954494932,14.769552793975263
1760514704.5938864,-3.252240023987575,0.05395517327853261,0.8502902223978267,-0.3449225468609423,10.729012942530423,8.944021815354922,14.78693348364966
1760514704.6038852,-2.927472486639651,0.05684676962445516,0.8396496099970656,-0.34616878011997376,10.476299670216767,9.004225780640141,14.642674045478154
1760514704.613997,-2.626621118669677,0.055293629421580844,0.831480917091486,-0.3511526927457282,10.166409204656546,8.99687695052365,14.313114082629486
1760514704.6239846,-2.358409138847419,0.04905319660071034,0.82693507535837,-0.36040410704926296,9.81389050718099,8.917405084784527,13.787366858042327
1760514704.6338856,-2.1305392422938207,0.038283584840416655,0.8267846628905904,-0.37400261807140595,9.43081468440161,8.76651158624023,13.0686854841992
1760514704.6439364,-1.9489880180314687,0.02358560711412882,0.8312385825383791,-0.3914860801205812,9.024900058340048,8.548492174788747,12.174596279090618
1760514704.6538918,-1.8174019416664116,0.005980244151491949,0.8398631434258387,-0.41185324013142727,8.59835306100722,8.268875721686523,11.13581256708354
1760514704.6639094,-1.736680811812359,-0.013189486472388195,0.8516420603825706,-0.43367735438962707,8.147863735277399,7.9322610460212095,9.994031299110711
1760514704.6738906,-1.70481531495696,-0.03241717232552748,0.865155465221268,-0.45530545377620885,7.66595321614193,7.541082040863471,8.7987806350394
1760514704.6838946,-1.7170063047094382,-0.05021758709436746,0.8788205907184682,-0.47509075013278357,7.143459643464761,7.095659414192023,7.603561020823249
1760514704.6939254,-1.7660516965262816,-0.06530071670109987,0.8911326847395077,-0.4916067746872588,6.572613822053998,6.595509392228997,6.461608332489997
1760514704.7038825,-1.842955948921307,-0.07670931472620791,0.9008618520139294,-0.503809560371186,5.9500416769757445,6.041597490413573,5.421677427700196
1760514704.714041,-1.9376981151289614,-0.08390639805989847,0.9071818521592099,-0.5111327312933428,5.279115112743532,5.439062188302979,4.524269414317902
1760514704.723975,-2.040082355421261,-0.08680794534840952,0.9097239057823419,-0.5135133465010002,4.571259534536403,4.79985416679496,3.7986920475296095
1760514704.7341,-2.140586913136749,-0.08576210492097718,0.9085626817764402,-0.5113542891016509,3.8460357332311528,4.144714146832785,3.261247594886487
1760514704.7438817,-2.2311260592174174,-0.08148139197360782,0.9041521260977584,-0.5054344569953123,3.129999571503268,3.5039485561815313,2.9146917925074587
1760514704.7539005,-2.305648398937959,-0.074939143088233,0.8972333024154847,-0.4967826868707792,2.4544779561892525,2.9165784115986666,2.7489195563127384
1760514704.7639241,-2.3605156591303764,-0.0672450397225226,0.8887342844813562,-0.486534740895062,1.8524810160297807,2.4276419608180886,2.7426500251455193
1760514704.7738855,-2.3946348604281877,-0.05951560854784123,0.8796756029371199,-0.47579330217791344,1.3550207996200812,2.0837000918244355,2.8657620181965004
1760514704.7838893,-2.40934557450119,-0.052753637559395265,0.8710873081037481,-0.4655083727666567,0.987154077616619,1.9268744083761533,3.081908680336934
1760514704.793913,-2.408085387126621,-0.04774627257719911,0.8639382796932821,-0.4563910272745779,0.7641252830885643,1.9879974775559783,3.3511122001821154
1760514704.8039143,-2.3958691327303203,-0.04498739637982014,0.8590762708472399,-0.44886862177394427,0.6880509241283902,2.279655096762575,3.632167072835381
1760514704.8139153,-2.378625302894703,-0.04462768806322648,0.8571775101274597,-0.4430843275795942,0.7456349500926605,2.7900489956526604,3.8848140180242305
1760514704.8240874,-2.3624420320229595,-0.04645573601492057,0.8587055535116191,-0.43893737707921116,0.9073962545519388,3.4786993137769433,4.071744003141402
1760514704.834155,-2.3527876587770558,-0.0499143414508965,0.8638793334971524,-0.4361532116045088,1.1287886147227073,4.275017719067863,4.160524291933671
1760514704.843883,-2.3537843870589334,-0.0541557657429439,0.8726502869497466,-0.43436757328905623,1.353389642906739,5.080670711732046,4.125495750936392
1760514704.8539479,-2.3676220823904846,-0.05813687838113878,0.8846887398173265,-0.43320831870267595,1.5180502034637526,5.776361233744227,3.9495873697498873
1760514704.8639328,-2.394197455231628,-0.060750122651146495,0.899380675367934,-0.43236360346200414,1.5595693157714148,6.233139997159653,3.6258702895107198
1760514704.8739324,-2.4310493866728073,-0.06098003210849371,0.9158375806457992,-0.431632182786887,1.4221377680256295,6.327614626724789,3.1585835449451882
1760514704.8839736,-2.4736330264751554,-0.058068541924847575,0.9329239968035142,-0.4309566841160199,1.0645268036306244,5.959522513556168,2.5633541610942183
1760514704.8940508,-2.5159326237733097,-0.051666001896501,0.9493092093951117,-0.4304413003642659,0.46584542736338475,5.069227000033024,1.866423647678572
1760514704.9039037,-2.551356589282764,-0.041939669187200886,0.9635503802507137,-0.4303521757378249,-0.37127918216576683,3.65202828016259,1.1028605775848452
1760514704.9138908,-2.573793941747535,-0.029609890328111968,0.9742129770092135,-0.4310948123222953,-1.420957197032164,1.766035733761506,0.3139350338342336
1760514704.9238987,-2.5786527605157947,-0.01588968767343816,0.9800290279549679,-0.4331612687132605,-2.6379900695132,-0.4690286365564114,-0.45600307691657005
1760514704.934131,-2.5636700146724927,-0.002319395986991026,0.980083268668515,-0.4370426282982376,-3.964891767185225,-2.8832368660388283,-1.1627196572447827
1760514704.9438992,-2.529301156376975,0.009486008532633379,0.9740017513195892,-0.4431092754395488,-5.340372794292519,-5.2770493645541485,-1.7650001379900337
1760514704.953891,-2.4785772914917805,0.0181308716434194,0.9621016422050475,-0.45147188574102376,-6.7071453884040535,-7.447830557046259,-2.227109955439634
1760514704.9640024,-2.416441916129686,0.02270985685002573,0.9454550016318389,-0.4618480854163969,-8.0173129599469,-9.217497747474757,-2.5209687870402306
1760514704.9738955,-2.348709767928715,0.022992468713394495,0.9258317156084079,-0.47346976503055704,-9.234848751624675,-10.456225794844347,-2.628418632129454
1760514704.9838953,-2.280884262404474,0.019477660306954168,0.9055154532899587,-0.4850679193534879,-10.335970444497697,-11.098025764771503,-2.543908931527501
1760514704.9938893,-2.217098551123991,0.013307495589479265,0.8870201546552335,-0.4949613024971719,-11.308830433553558,-11.145723791354976,-2.2775455491016756
1760514705.0040019,-2.1594051902816047,0.006061819061418259,0.8727593654856585,-0.5012533560316002,-12.153720041256648,-10.664968454790797,-1.8579254157843383
1760514705.0140872,-2.1075512906116276,-0.0005220005649377129,0.86472780898232,-0.5021142652559983,-12.884261545850174,-9.7689624362187,-1.3337756974049542
1760514705.0239162,-2.0592691413188247,-0.004852447124034602,0.8642448619243043,-0.4960989800019614,-13.529242050521392,-8.597225420715397,-0.7733499723691286
1760514705.033999,-2.0110107069716503,-0.0057609907410872225,0.8717918297320719,-0.4824358136883761,-14.1341135938683,-7.292538743147476,-0.2608630200707499
1760514705.043984,-1.9589750549336717,-0.0027117800508604083,0.8869573804291535,-0.4612202006830031,-14.7609070430817,-5.980178839647111,0.11013275183982134
1760514705.0541298,-1.9002314847467874,0.004085617061733034,0.9084914620741322,-0.43346517232994936,-15.485442534517174,-4.752723891720729,0.2458051680461369
1760514705.0639129,-1.8337301148546963,0.01367675840078187,0.9344573316036244,-0.4009891216595751,-16.391219059097267,-3.662406881338241,0.06228432613680758
1760514705.0739067,-1.7610125303461106,0.024478628174063686,0.9624625096864353,-0.3661551670145811,-17.560106224723278,-2.7215153991916132,-0.5045474366944177
1760514705.0839117,-1.6864860178302667,0.03449796893519261,0.9899411037959283,-0.3315081354973311,-19.06079677815041,-1.9099574082263029,-1.4914239079905818
1760514705.0939195,-1.6172045439695515,0.04161909293416436,1.0144524844525546,-0.29937862357088624,-20.93675593159053,-1.1880289622263707,-2.903669629990199
1760514705.1039038,-1.562197398983781,0.04391218048886475,1.0339577837260456,-0.2715326008247859,-23.195946763494632,-0.5118162061118828,-4.715672660988685
1760514705.1141326,-1.5314785382380134,0.03990715226319809,1.0470393449988864,-0.24893565776645496,-25.80473919567933,0.15139997956920662,-6.875965129691041
1760514705.1239023,-1.5349283943586067,0.02878732268453886,1.0530391037895779,-0.23167472247066195,-28.687995522205508,0.8100364319510693,-9.316151000617346
1760514705.1339161,-1.5812486828409609,0.010477771980669884,1.0521058926408147,-0.21904413206238751,-31.73635491566086,1.4392171777159757,-11.962158185660694
1760514705.1439247,-1.6771524490722114,-0.014373490173541646,1.0451537344284583,-0.20976730432351456,-34.820362969903606,1.977239318370547,-14.745830072050312
1760514705.1540124,-1.826885533014086,-0.04450645471749021,1.0337406176427548,-0.20229879220016675,-37.80962853021643,2.3283152152890207,-17.614836969938057
1760514705.1639373,-2.0321057773753943,-0.07822887260480851,1.0198809033672402,-0.19513949819962273,-40.59402683905868,2.3717300040093083,-20.539294460197347
1760514705.1739235,-2.2920901361780763,-0.11363962765093161,1.0058081385721007,-0.18710127516503894,-43.1033977177896,1.9766563790713507,-23.514192369107025
1760514705.1841526,-2.6042036738978878,-0.1488701298452452,0.9937117741602449,-0.17747376031635126,-45.32230485130421,1.0208476413654997,-26.55753893740253
1760514705.1941364,-2.964545764227595,-0.1823158915220009,0.9854783794880518,-0.16607169449565687,-47.29713855654411,-0.5894807587487587,-29.704802133831578
1760514705.2040813,-3.3686813961836375,-0.2128264694515061,0.9824684433038625,-0.15316919737529286,-49.13397835625705,-2.901775223494212,-33.00067306055632
1760514705.2140088,-3.812364178657066,-0.23982118024619575,0.9853522129893093,-0.13935185525772636,-50.98700024967833,-5.904345659526054,-36.489373916410855
1760514705.2241282,-4.292160725157934,-0.26330661153674295,0.9940188302177171,-0.12533219295533835,-53.038634284650165,-9.520945672577678,-40.20473094657034
1760514705.2341535,-4.805895238928266,-0.2837909648823103,1.0075675502613157,-0.11177567254390584,-55.473924413099574,-13.613790141059896,-44.161089795679814
1760514705.2444236,-5.352851092325101,-0.3021136788646261,1.0243861192718404,-0.09917304682828411,-58.45239235989709,-17.99465096764084,-48.34593107827878
1760514705.2540212,-5.9336941910975805,-0.3192271989409035,1.04231503623828,-0.08777454135068194,-62.0810584824024,-22.442408537293197,-52.714830908468066
1760514705.263927,-6.5501190706168435,-0.3359747372105286,1.0588863003937776,-0.07757944279191442,-66.39215783520555,-26.72457154017009,-57.18927489711878
1760514705.2739108,-7.20425896984272,-0.35290622652990217,1.0716142549556418,-0.06836311790853303,-71.32855461735505,-30.619815843868533,-61.65776430195704
1760514705.2839377,-7.8979406235808804,-0.3701703073531608,1.0783075859636018,-0.05972917103985162,-76.73891866283677,-33.938446696763215,-65.98056694321959
1760514705.294001,-8.631896284462089,-0.3875062323565954,1.0773636659834664,-0.05118419265852434,-82.38352769982,-36.53802835380249,-69.9982754377797
1760514705.303916,-9.405060654281982,-0.4043278619485719,1.0679967337748908,-0.04222656913437877,-87.95040170649139,-38.33247537564638,-73.54394149558847
1760514705.3139956,-10.214073495995017,-0.41986299353005424,1.0503494307633068,-0.032427090822830656,-93.0804906632317,-39.29436695622786,-76.45789267510332
1760514705.3239284,-11.053081274120899,-0.433312716600474,1.0254584304200423,-0.021483427024004353,-97.39963377678659,-39.45149263965976,-78.60355632763907
1760514705.3339136,-11.913887178695752,-0.4440121633199643,0.99508470575188,-0.00925045029280827,-100.55393517671084,-38.87932944340316,-79.88204369644362
1760514705.3441396,-12.786442144071284,-0.4515729637055848,0.961451679029951,0.004242499810504944,-102.24447584352403,-37.691258088477305,-80.2431159454769
1760514705.3541598,-13.659609035508941,-0.4559763413798148,0.9269444372538672,0.018783859417151216,-102.2573208152166,-36.02785289746656,-79.69051643427152
1760514705.3639178,-14.522082657953115,-0.4575908086735935,0.8938180231589036,0.033987267297424247,-100.48545439408484,-34.045734276530105,-78.28049893548435
1760514705.3740332,-15.363321634635552,-0.45710778620222864,0.8639540739235423,0.049323531758094875,-96.94016866702007,-31.905766437741278,-76.11360191423113
1760514705.3839848,-16.174349552556393,-0.4554061401307547,0.8386939387389162,0.06418482155998602,-91.75044256964877,-29.760273228932373,-73.32102312011128
1760514705.393953,-16.9483117417083,-0.4533709588238686,0.8187603768593422,0.07797983292748317,-85.15019746832955,-27.73954671869037,-70.04797262148752
1760514705.4039106,-17.680725014047972,-0.45170588330157485,0.8042619763623869,0.09024446479615494,-77.45500412779398,-25.93900339448948,-66.43689778122084
1760514705.4139202,-18.369418843760993,-0.45078615273062017,0.7947617188994927,0.10074152683002145,-69.03137965046511,-24.409364528418884,-62.61344200266489
1760514705.4241185,-19.014222376228325,-0.45059291400653007,0.7893881522838339,0.10952229842867293,-60.262686514549706,-23.152546294116526,-58.677451948341904
1760514705.4340205,-19.616488506552376,-0.4507470260295541,0.7869723906621765,0.11693250136387037,-51.51567703816927,-22.125169163776814,-54.7003186948437
1760514705.4439013,-20.178556954771008,-0.4506301117932151,0.7862004603394057,0.1235601436385189,-43.11121285660899,-21.2498906473538,-50.728559989978756
1760514705.4539068,-20.70324449104964,-0.44955406799044434,0.7857732580181305,0.13013635637170093,-35.30196574336414,-20.432675983217447,-46.79213728528174
1760514705.4639146,-21.19342092363725,-0.44692795794259615,0.7845642860905786,0.13740890422961896,-28.25906465009088,-19.582302289345503,-42.91494948487543
1760514705.4739225,-21.65169587901506,-0.44237723751412666,0.781759773038999,0.14601140340289692,-22.068638161014572,-18.627440813058858,-39.12455587430896
1760514705.4839275,-22.08021472880638,-0.4357914136525435,0.7769598873523287,0.15635123466825787,-16.737981375707886,-17.527021504694765,-35.45854823518939
1760514705.4939134,-22.48054912255756,-0.4273036056836358,0.7702188896166192,0.16853579548608652,-12.209735952480818,-16.271361104538197,-31.966002554087428
1760514705.5040307,-22.853668896595096,-0.41722770060301373,0.7620110527498053,0.1823484001412601,-8.381288461600374,-14.874295111131678,-28.703826458587255
1760514705.5139587,-23.199991797877487,-0.4059871649398025,0.7531259215167737,0.19727306844008474,-5.125968106405455,-13.359347508444122,-25.729215410259147
1760514705.523937,-23.519516273706717,-0.3940626711842982,0.7445122378552259,0.21255738909467217,-2.312802051984938,-11.744739176278825,-23.09044109553211
1760514705.5339212,-23.812041906637408,-0.381969439648559,0.7370982554140036,0.22729913587981257,0.17756133927347112,-10.032131781584372,-20.818503280392424
1760514705.5439994,-24.07746795876846,-0.37025846140602964,0.7316179718341898,0.24054430922197298,2.4420068294040584,-8.202490736721176,-18.92169991752667
1760514705.553955,-24.31613690312758,-0.3595258017178562,0.728471366018098,0.2513874871302186,4.549372739106115,-6.219999041485538,-17.384136840917353
1760514705.5639293,-24.5291673364616,-0.3504138321774505,0.727643359589457,0.2590662523531234,6.53958321918815,-4.042465060403605,-16.16803150377282
1760514705.5739965,-24.71870930545739,-0.3435945807658065,0.7286995786876186,0.2630399035784965,8.426558744791887,-1.6348825028327256,-15.218760440822393
1760514705.5840123,-24.88805832552205,-0.33973223126728125,0.7308647418727562,0.263042250295806,10.203863545339916,1.017887228843932,-14.471176376596272
1760514705.5939074,-25.041580590514688,-0.3394259287006162,0.7331727008376098,0.2591015820418779,11.852080175651105,3.9028808822984127,-13.85579937107609
1760514705.6039097,-25.184428785057044,-0.3431373295279693,0.7346616584994062,0.25152554701670227,13.346987797940686,6.977434140301594,-13.303929214041863
1760514705.6141374,-25.322063147514335,-0.35111178204389387,0.7345785837619163,0.24085163037200322,14.66771390141966,10.174509477530016,-12.751304301573814
1760514705.6239252,-25.459630994979726,-0.36330634039551357,0.7325533758247119,0.22776635627397174,15.804090623529977,13.41333598759562,-12.140418243615091
1760514705.6339195,-25.60129187564893,-0.37934023693708485,0.7287058410078237,0.2130010639957105,16.762485489051322,16.61231419094359,-11.42185627503462
1760514705.6439903,-25.74959676972634,-0.39848388292274095,0.7236591642634022,0.19721918714269762,17.569456167445587,19.700588693245788,-10.555003548580222
1760514705.6539235,-25.905031700622093,-0.4196994425366094,0.7184519864456138,0.18091672483544727,18.272746352484415,22.62523122882771,-9.508285319684266
1760514705.663987,-26.065813177067522,-0.4417354639673149,0.7143623436569996,0.16436041017438469,18.939388950013814,25.3524652840436,-8.258864954346198
1760514705.6739345,-26.227974119260292,-0.46326029456444257,0.71267450997149,0.14758321536805297,19.651002175990023,27.863289357574402,-6.791590032783805
1760514705.6839821,-26.385715837031963,-0.48300415485272397,0.7144307630531456,0.1304424775353163,20.496747680700206,30.145526719324433,-5.097030882591111
1760514705.6939156,-26.531947529179117,-0.4998790765898004,0.7202133196953869,0.11272581768244246,21.564806438814422,32.185177914158075,-3.1687179625901907
1760514705.7039435,-26.65890955109625,-0.5130586578786691,0.7299970757781137,0.09427331125960542,22.933504271042285,33.959807375092126,-1.0000757232417687
1760514705.7139306,-26.75878274826864,-0.5220142836072521,0.7431017451409083,0.07507935112718497,24.66330762154095,35.435846335841966,1.418107314311375
1760514705.7239397,-26.824211132098167,-0.5265122490151464,0.7582548806285897,0.055345901633721856,26.790810005875162,36.57064256687734,4.098736948134468
1760514705.7339218,-26.848694881886402,-0.5265776288188717,0.7737593063764122,0.03547549824055509,29.325565897313126,37.31919623240446,7.0573134491225264
1760514705.7439477,-26.826837192233462,-0.5224314014547032,0.7877432229298869,0.016010092177111936,32.2502271394325,37.644869821260265,10.308522105271887
1760514705.754107,-26.754450387440652,-0.5144117690273029,0.7984607220310889,-0.00246513856795771,35.52394190785417,37.532829326839696,13.861000958036962
1760514705.763966,-26.62854516846982,-0.5028982806708463,0.8046055372691591,-0.019427955188621112,39.08845488690736,37.00442408149119,17.711282931147384
1760514705.7740688,-26.447241696602184,-0.48826252355578115,0.805599285063283,-0.03451112359104358,42.87587984713272,36.13015827528139,21.838119423509404
1760514705.783949,-26.20965008153661,-0.4708656193442455,0.8018128849709126,-0.04756286241963667,46.816786081601855,35.038527623431705,26.1982606407872
1760514705.7939737,-25.915768259033662,-0.45110906901134323,0.7946763722663439,-0.058667333211199844,50.847091599228506,33.91795765988993,30.724374913186132
1760514705.8040607,-25.56643642784443,-0.4295255009133983,0.7866346271393272,-0.06812457963861923,54.912272728144316,33.00944281866758,35.32528582084917
1760514705.8140588,-25.163370261868973,-0.4068772130194133,0.7809215941221588,-0.07639369557538433,58.96759345212898,32.588287851167074,39.88827711115239
1760514705.8239236,-24.70927293793274,-0.38422164813900733,0.781154204115845,-0.08400568335199983,62.973531477774955,32.93468079562084,44.28301206661444
1760514705.8339622,-24.20800315517884,-0.3629084888861556,0.7907842880266447,-0.09145625545026348,66.88642885567783,34.29471375731804,48.36665289555345
1760514705.8439775,-23.664758021647792,-0.3444904906576559,0.8124850910756047,-0.09909499022688648,70.64557110240327,36.83576030040231,51.98992745243264
1760514705.8539534,-23.08622086929288,-0.3305543552172706,0.8475815540414673,-0.10703544027134182,74.15916453133931,40.602403828593566,55.004043513734246
1760514705.8639278,-22.480627488412374,-0.322503511750833,0.8956496479924929,-0.1151179887308674,77.29268880446708,45.48074340586358,57.26844824860736
1760514705.8739486,-21.857717293104677,-0.3213418041905173,0.9543919973560643,-0.12295499081948898,79.86351413292641,51.179179477617105,58.65947230591297
1760514705.8839352,-21.228550387177197,-0.3275044353906446,1.0198347513822756,-0.1300674207146457,81.64527183633832,57.23226671062926,59.07983701994984
1760514705.8939726,-20.605180706550232,-0.3407614065201117,1.0868049429774393,-0.13608793977697933,82.38416997393821,63.03098958578896,58.46874780916754
1760514705.904095,-20.00018082819673,-0.3601951557085506,1.1495811441848502,-0.14097381515718266,81.82728126473623,67.8783970545693,56.81181327693692
1760514705.9141483,-19.42602251318386,-0.38424138435668814,1.202590219964612,-0.14515871650294992,79.76002255967963,71.0647296774157,54.14942306422075
1760514705.9239469,-18.894332943039913,-0.41077972809786806,1.2410444898099002,-0.14958030218993124,76.04717839069218,71.95204514090524,50.58172782004061
1760514705.9340274,-18.4150687205213,-0.43726327279123317,1.261453966686183,-0.15555230807319526,70.6697999787901,70.05609609695635,46.2682869491344
1760514705.943915,-17.995674277820058,-0.4608826711058929,1.2619835022052612,-0.16450047469206308,63.749970838100666,65.11360910845936,41.42100416888357
1760514705.9539278,-17.640314725031736,-0.47877328347825704,1.24264017193851,-0.17762964227433337,55.55709492768938,57.12585137818286,36.290165160945506
1760514705.9639204,-17.349290291453894,-0.48828203122586866,1.2052762109228432,-0.19560695066717332,46.49268882239601,46.373146530983924,31.14493779532168
1760514705.9739325,-17.118741381845208,-0.4872941727435483,1.1533970171591246,-0.2183292240273326,37.054787540890224,33.398525015510565,26.251075301135817
1760514705.9839573,-16.940729798134697,-0.4745748035815035,1.0917862441389155,-0.24481739519967555,27.786969608273346,18.96180893624601,21.849278892833173
1760514705.9939249,-16.803730548261374,-0.4500354311946501,1.0259906513969452,-0.27326651035009797,19.219798564925416,3.9688444022444145,18.137480726730075
1760514706.0039384,-16.693502476144527,-0.4148347698962322,0.9617260210476514,-0.3012634163802731,11.81364086710191,-10.615693428306026,15.259233229337301
1760514706.0139368,-16.594246794465164,-0.3712744805113643,0.9042700858217294,-0.32614855959343914,5.9112459600862834,-23.86082444505413,13.298751739329525
1760514706.0239625,-16.489926578034297,-0.32251763342337625,0.8579111974457092,-0.34545489193987294,1.7064764016056184,-34.95564351092547,12.281570588311794
1760514706.0339365,-16.3656088200382,-0.2721966702883002,0.8255234951355543,-0.35733206755558056,-0.7672697244216753,-43.27984534525843,12.178910053258914
1760514706.0439527,-16.20869607726244,-0.22398087543460293,0.8083288569566625,-0.36086864353568443,-1.62851252668485,-48.45152249825785,12.913978557873214
1760514706.053935,-16.00993017919451,-0.18116203007651696,0.8058773609994211,-0.35625008209232306,-1.1215017816669985,-50.348533041514294,14.369222890869057
1760514706.0641704,-15.76407448836603,-0.14630909693977143,0.8162399206058327,-0.3447237153162834,0.42278260664767786,-49.103063576645475,16.394365772257796
1760514706.0739546,-15.470215001310388,-0.12103769265857606,0.8363724657701008,-0.32837789798718453,2.6321264038343455,-45.072329565498976,18.81548227108011
1760514706.0839417,-15.131662365434096,-0.10592621726719997,0.8625880989476722,-0.30977951076110366,5.138344524923719,-38.79108963134463,21.445296913953257
1760514706.0939655,-14.755479468424973,-0.10058240654503423,0.8910632384301531,-0.29154533525465665,7.616259247494456,-30.913135582742854,24.09451863452973
1760514706.1039612,-14.351693522631763,-0.10382926139076837,0.9183051915913711,-0.27593599537424973,9.811902113513057,-22.148923910922466,26.583587259008958
1760514706.113943,-13.932273371694324,-0.1139529356052425,0.941520949004482,-0.2645485482527984,11.55754804294835,-13.205376864782957,28.753849012491735
1760514706.1240082,-13.509966839383942,-0.1289513793830639,0.9588480005065174,-0.2581533167045662,12.773443016796039,-4.732240210312838,30.47704204046553
1760514706.1341786,-13.097106557986487,-0.14674341783051048,0.9694338216627665,-0.2566880196569751,13.458114596041883,2.7221559426494992,31.662122213108695
1760514706.1440372,-12.704504112839354,-0.16532811784450135,0.9733760955970631,-0.2593952663759223,13.670616705169307,8.743985061685931,32.25884063458144
1760514706.153949,-12.340551576603813,-0.18290483182153286,0.9715546897471705,-0.2650664427356496,13.508740163491765,13.07474588748207,32.257948648521804
1760514706.163975,-12.010630926217798,-0.1979699782595397,0.9653954224482084,-0.27233691255209486,13.087098847586962,15.619055227325392,31.688304391845268
1760514706.173976,-11.716897215795498,-0.20940178524232078,0.9566066166623736,-0.2799706742146714,12.51823666941804,16.438983600141924,30.611421453011012
1760514706.1841984,-11.458452826388616,-0.21653204680867577,0.9469264577454142,-0.28708089501028977,11.898751136960257,15.735124264255008,29.114156608218146
1760514706.194146,-11.231871911529804,-0.21919016978076034,0.9379128131350903,-0.29325239015821225,11.301181376323456,13.81573156617366,27.30031523982019
1760514706.2041326,-11.03197973358421,-0.21770001737773467,0.9307953128407513,-0.29855515296331453,10.771324549037997,11.056871201535492,25.28196068372044
1760514706.2139487,-10.852757351440035,-0.21281855032840377,0.9263937342714142,-0.30345817163655664,10.32990867318667,7.858104583938265,23.171143129925486
1760514706.223955,-10.688234671620146,-0.20561984649580725,0.9250934106452903,-0.3086681078542942,9.977219586813462,4.599147220862519,21.07263366019782
1760514706.23403,-10.533249301998156,-0.19733962043696932,0.9268625388401377,-0.31492814002751407,9.699289354190087,1.6028304598866208,19.078085869218825
1760514706.2439282,-10.383976794565958,-0.18920106439378231,0.9312977089135178,-0.32281756233214454,9.47447352380107,-0.8913987609228416,17.261874497694677
1760514706.2539616,-10.23817465188812,-0.18224480446808855,0.9376890265058835,-0.3325912411229144,9.279547865406393,-2.740977599739195,15.678699790637882
1760514706.2639506,-10.095125225071397,-0.17718600661370348,0.9451012703696892,-0.344089690503952,9.09474619142454,-3.900325622262757,14.362906997401383
1760514706.2739599,-9.955307264706716,-0.17431977483550842,0.9524707971112606,-0.3567366766230924,8.907382996441378,-4.409109303920686,13.329342846041362
1760514706.2839503,-9.819866094294271,-0.17349068731647652,0.9587184942817116,-0.36962429593855495,8.71384648491108,-4.371778975716946,12.575448623881913
1760514706.2942395,-9.689982065283955,-0.17413346650544884,0.9628761276838429,-0.3816686555394723,8.51984393113553,-3.9323570753936927,12.08419209708864
1760514706.3039525,-9.566251617149854,-0.17538005296669615,0.9642163598162344,-0.3918053401930843,8.338896415288593,-3.2485740243417007,11.827402955883286
1760514706.3139386,-9.448191592999526,-0.1762146482210135,0.9623663480823361,-0.39918379941317533,8.18927735338114,-2.4688835507618476,11.769121113831556
1760514706.3239717,-9.333954081474513,-0.17564565199911655,0.9573760077873952,-0.4033156402195456,8.089890922044153,-1.7148517067422435,11.86868868583955
1760514706.3339689,-9.220298814536907,-0.17285851491747806,0.9497144672521602,-0.40413977071419793,8.055916181305577,-1.070189322642465,12.083479016004723
1760514706.3440137,-9.102820984400282,-0.16732150320304134,0.9401877282675793,-0.40199161590380156,8.095208982431421,-0.5765757418515266,12.371297580407711
1760514706.354024,-8.976385336528004,-0.15883328309102968,0.9297976833983451,-0.3974954459012216,8.206278233920303,-0.23559993684329097,12.692549617874484
1760514706.3641403,-8.835683422265856,-0.1475168043860542,0.9195795346792168,-0.39142035409740855,8.378172660760072,-0.015648507197344768,13.012232164598492
1760514706.3739495,-8.67581696606351,-0.13377222140933626,0.910453857020091,-0.3845420677293776,8.592086331203237,0.1377125884352414,13.301714138208663
1760514706.3839757,-8.492817021370271,-0.11820390573774535,0.9031178056256075,-0.3775398036568088,8.824158287766851,0.28949034939459567,13.540179197132838
1760514706.393951,-8.284030830267616,-0.10153607240536264,0.8979861806323464,-0.37094017805202967,9.048853532827511,0.5028592047825382,13.715563254613278
1760514706.4039555,-8.04833820919631,-0.08452941013886052,0.8951815412455039,-0.36510567270195765,9.242377059222042,0.8282458491193623,13.824828083836486
1760514706.4139533,-7.7861891267668515,-0.06790774426834259,0.8945648341714965,-0.36025607791600756,9.38568696307853,1.295311407866862,13.87346118689312
1760514706.423992,-7.499478993729546,-0.052300146174107685,0.8957942155274725,-0.3565078546097552,9.466785895537232,1.90880949443242,13.874167352234549
1760514706.434152,-7.191297402007244,-0.03820149401020281,0.8983988995948325,-0.35391737686609165,9.482073438679766,2.6487169814853457,13.844812502464979
1760514706.4439523,-6.865600690569609,-0.025953608783368543,0.9018559169034723,-0.35251785140936226,9.436641466671265,3.4743693709683545,13.805786365931917
1760514706.453984,-6.526867134554265,-0.01574810167436445,0.9056599345558292,-0.35234429674902124,9.343494016932473,4.3316893183257035,13.777047425341536
1760514706.4639726,-6.179791336282716,-0.007649166782992903,0.9093789427073565,-0.3534444718546838,9.221769447959245,5.16210373502298,13.775175244676948
1760514706.4739604,-5.82905908184118,-0.0016300935357665175,0.9126910978161725,-0.3558755938337173,9.09412864904535,5.911513145879032,13.81076332227556
1760514706.4839559,-5.479218718785657,0.002386340444483778,0.91540077624115,-0.3596879917623923,8.983545010602366,6.537753653596999,13.886441546281649
1760514706.4939687,-5.134638245600387,0.004493852384050062,0.9174350622107572,-0.36489859891429316,8.909792793116441,7.015353877683485,13.99574073770745
1760514706.5039604,-4.799517991764218,0.004782041569600387,0.9188241799335669,-0.37145961224437024,8.885985974365193,7.336962178744992,14.122927333147764
1760514706.5140913,-4.477921828969411,0.0033311950400848967,0.9196699766288631,-0.3792298939810285,8.915569363612613,7.511486099195892,14.24385970087217
1760514706.523968,-4.173793093448808,0.00022049683137185147,0.9201067880674553,-0.38795746372785794,8.990196781635891,7.5596048320174285,14.327848714182256
1760514706.5339708,-3.890929063699523,-0.004454097526326663,0.9202603172522504,-0.39728010411488796,9.088927334410766,7.507764951950626,14.340431837420887
1760514706.5439873,-3.6328968505072954,-0.010556535182858595,0.9202118915508842,-0.4067480022322872,9.179105204430625,7.381981644852166,14.246880105292362
1760514706.5539608,-3.402885529827816,-0.01788713936675457,0.9199757923829988,-0.4158680247708408,9.219134387792916,7.2027279494943635,14.016150530255143
1760514706.5639718,-3.2035063279070193,-0.0261658985107252,0.9194951501822477,-0.4241642426788572,9.16310092658956,6.9819248406728125,13.624887963191057
1760514706.5740063,-3.036571538475529,-0.03503004691519423,0.9186574203345241,-0.4312448069864995,8.966850435222913,6.722593593008789,13.06099943070879
1760514706.5839713,-2.9028951671524594,-0.04405042614581583,0.9173251822381273,-0.4368627993700577,8.594767493661674,6.421173401973642,12.326305303411349
1760514706.5940301,-2.802156789209461,-0.05276517741158525,0.9153741151358786,-0.4409591005309808,8.026221353440453,6.071933887656304,11.437839198062214
1760514706.6040497,-2.732855114131062,-0.06072358990110696,0.9127291392714222,-0.44367790707109067,7.260517956472017,5.672417359331302,10.427519569305403
1760514706.6140072,-2.6923566340456135,-0.06753033694953055,0.9093916422251319,-0.44534865034102306,6.319274738146876,5.228520482941519,9.340122519199003
1760514706.6241612,-2.677025969378863,-0.07288124796863471,0.9054535035881398,-0.44643115047106935,5.245428419875306,4.7577612536911555,8.229709276043033
1760514706.6342092,-2.68241293313368,-0.07658451825446062,0.9010955126526374,-0.44742539238988244,4.098594745409678,4.289555192254062,7.1548671636951635
1760514706.6439548,-2.703467543364149,-0.07856415075728777,0.8965689928997582,-0.4487559393527777,2.9471993766893227,3.8619814317101415,6.173285314749318
1760514706.654023,-2.7347579230290173,-0.0788456692302993,0.8921621704898764,-0.4506550276951246,1.8586172017354823,3.51550096277756,5.336296408205275
1760514706.6640015,-2.7706787150328274,-0.0775294410524356,0.888158202861304,-0.4530827043353204,0.8892904646935595,3.285162795622501,4.684058144667576
1760514706.6739647,-2.8056581019296623,-0.0747632057486195,0.8847965789167589,-0.4557219862741357,0.07707784816075355,3.193535732439159,4.241981001474264
1760514706.6840436,-2.8343890615638188,-0.07072689960388195,0.8822483777212217,-0.4580606194588058,-0.5624029212752234,3.2464687825404783,4.018801027385859
1760514706.694021,-2.8521107593041943,-0.06563607298609032,0.8806083852299196,-0.45953218045657845,-1.03484515587334,3.4327986892684845,4.006395948180762
1760514706.704177,-2.854946194150864,-0.0597598512110444,0.8798996560232722,-0.45966723256024455,-1.3624468174001414,3.7278282737866517,4.181164358059456
1760514706.7139642,-2.840274075136017,-0.05344298884719958,0.8800838979591954,-0.45821125703201154,-1.5768115070830302,4.099414361919632,4.506618629875878
1760514706.7239544,-2.8070900666239202,-0.047121163183240014,0.8810731574756325,-0.4551863025454604,-1.7113767671054323,4.515077427683327,4.936788843368632
1760514706.7339704,-2.756301244699359,-0.041321560999592936,0.8827412562846709,-0.4508918547999155,-1.7949219058391772,4.948576815540988,5.420056672456828
1760514706.743965,-2.690897877478164,-0.036644486926238166,0.8849352896505287,-0.4458526433752502,-1.8471780458127494,5.384691251500815,5.9030955879201725
1760514706.7541103,-2.6159561165056067,-0.03372517273746711,0.887487971652453,-0.4407282607730936,-1.8769728130939485,5.82136443475608,6.334661428126355
1760514706.7640874,-2.5384409563350205,-0.03317792971800714,0.8902311198686786,-0.4362029266072508,-1.882817631682688,6.268847834638962,6.669035640230514
1760514706.7739644,-2.4667986104995223,-0.03552735634111635,0.8930096321615805,-0.43287436555841646,-1.8554543252038926,6.745960638438427,6.868958804644862
1760514706.7841403,-2.4103499951131444,-0.04113368232748367,0.8956944658977227,-0.431159470277368,-1.7816474311519033,7.274056221231292,6.907906662103267
1760514706.7940795,-2.3785207727268403,-0.05012125614072657,0.8981928288205615,-0.431231568309042,-1.6484369946176889,7.869684723735308,6.7715744326659175
1760514706.803967,-2.379965360537346,-0.06231999270545582,0.9004540056409859,-0.43299931923236856,-1.4471253584801376,8.53720556940146,6.458471597332876
1760514706.81395,-2.421658719628146,-0.07722886936978132,0.9024696278964855,-0.4361302933760533,-1.1764150909841817,9.262672891625517,5.9795981791988435
1760514706.8239613,-2.508038411212947,-0.0940086381408611,0.9042677321591788,-0.44011408879632963,-0.8442970294376625,10.01016890878181,5.357262329740591
1760514706.8339646,-2.6402808116640726,-0.11150859642654457,0.9059009521424078,-0.4443525900161986,-0.4684762532414792,10.721422520652586,4.623181687519947
1760514706.8439558,-2.8157911737248056,-0.12832985249804157,0.9074306085783227,-0.44826078099083316,-0.0753104414798049,11.319086281100018,3.816065015433226
1760514706.8539515,-3.0279780987515426,-0.14292472298020625,0.9089097213491378,-0.45136117620449234,0.3025764537329447,11.713529727122673,2.9788874338278353
1760514706.8639615,-3.266368936410372,-0.1537286105473531,0.9103684042025677,-0.4533579035589766,0.6296536510171276,11.812509589354725,2.1560558636970404
1760514706.8739665,-3.51710375974754,-0.1593171511571998,0.9118043325386396,-0.45418163981247156,0.8712970305839631,11.532652349339743,1.3906210278384576
1760514706.884134,-3.763820544816536,-0.15857720765610697,0.9131791415249539,-0.4540023212780773,0.9974283210775309,10.811370035488531,0.7216446888724843
1760514706.8941147,-3.98890939657919,-0.15087479396329087,0.9144194853870045,-0.4532109292675797,0.9853386823602674,9.61765065751665,0.1817991716344341
1760514706.9040325,-4.17506628548487,-0.13619694807875385,0.9154202178161671,-0.45237363600415265,0.8211695059169465,7.960145745656363,-0.20472010866202786
1760514706.9140477,-4.307018791815476,-0.11524025739961637,0.9160478459113796,-0.4521616013104428,0.4997808239105021,5.891155988133747,-0.42385087011465516
1760514706.9239717,-4.373236573026007,-0.08941908903824135,0.9161456189742769,-0.45325922773218014,0.0231122868223779,3.5055141943112056,-0.47272673051398034
1760514706.9340298,-4.367393706819449,-0.060774084435344065,0.9155461889553552,-0.4562546578840516,-0.6024722147374322,0.9339398647073495,-0.3599799817932957
1760514706.94413,-4.289339680470811,-0.031776898142044825,0.914099895089333,-0.46151998379412856,-1.3691264963767975,-1.6689052748625697,-0.10519417395093282
1760514706.9539733,-4.145378397372544,-0.0050481840885730715,0.9117220063309889,-0.46909452410881664,-2.270029055547193,-4.140743621807256,0.26242728992635084
1760514706.963979,-3.947753198882666,0.01697279656070728,0.9084509288722689,-0.4785907349913821,-3.300944900875275,-6.330705861809759,0.7059304659583727
1760514706.9739778,-3.7133716874107154,0.03235352444176388,0.9044983402764039,-0.48914623143213015,-4.460621506198745,-8.118534827523488,1.1826561243575342
1760514706.9839761,-3.4619411892510876,0.039931982213264466,0.9002696953059428,-0.49944366132543755,-5.750079099445908,-9.430799950952304,1.646122818464772
1760514706.9939737,-3.2137875565406637,0.039472438390589726,0.8963416466355663,-0.5078108224730182,-7.17109522793297,-10.250890802118517,2.0475912912271776
1760514707.0039797,-2.987676027002336,0.03168633260251481,0.8933963536221103,-0.5123989105428427,-8.724342009137239,-10.620346360789013,2.337423562699929
1760514707.0139723,-2.7989415456211337,0.01811407231848807,0.8921245857979647,-0.5114221494071537,-10.407657044422583,-10.630649025210632,2.466577126212871
1760514707.023995,-2.658176205502842,0.0008855738283256226,0.8931168534082826,-0.5034295577890767,-12.214798681708203,-10.406617701057844,2.3886426902364817
1760514707.0339828,-2.570624977829143,-0.0176032686824776,0.8967646187096565,-0.48756871431320964,-14.134805875281915,-10.084451256435091,2.0626980431069595
1760514707.04397,-2.5363232689092174,-0.035047007907009896,0.9031921485349969,-0.46379378213925165,-16.15185853607406,-9.788745336932468,1.4569416627680032
1760514707.0540714,-2.550892873493232,-0.04956350408963117,0.9122333465996159,-0.4329707486997198,-18.245423129946218,-9.613051446831287,0.5526750756270293
1760514707.064004,-2.6068190991712052,-0.059951242819382994,0.923457749891099,-0.39684530474549284,-20.39051767445326,-9.607735646044958,-0.6521521796376968
1760514707.0740714,-2.694975465989257,-0.0658312129024403,0.9362387499604269,-0.3578614135606751,-22.558106924473144,-9.777299307372452,-2.1408078264092674
1760514707.0839875,-2.806147354883912,-0.06765051543672666,0.9498484981694832,-0.3188464360436298,-24.71585652361032,-10.087337262257291,-3.877962944397735
1760514707.093973,-2.9323309991993147,-0.066546131843995,0.9635597286945309,-0.28260675165787424,-26.829633385968403,-10.479316645738413,-5.8127982664218765
1760514707.1039662,-3.0676455938166813,-0.06409201214764826,0.9767351121697976,-0.2515014041956276,-28.866151003882187,-10.889741630498749,-7.885130118362881
1760514707.1139789,-3.2087838073061863,-0.06197658104626441,0.9888894722314635,-0.22707360709524985,-30.79698033626658,-11.269394108713435,-10.034048171730756
1760514707.1239793,-3.3550197366772454,-0.06167348405396949,0.9997183771424637,-0.20981404700379627,-32.60380970031101,-11.598480584581127,-12.207937799794736
1760514707.1339843,-3.507870177085709,-0.06417075481253497,1.0090959480293824,-0.19910539767955618,-34.28442670840149,-11.894679130636758,-14.374245117436367
1760514707.1439903,-3.6705489338391377,-0.06981238145936507,1.017051319902025,-0.19336155520507717,-35.85850322190826,-12.212900024702433,-16.5270638520541
1760514707.1539729,-3.847359590215234,-0.07828322694114774,1.023733647661153,-0.19033634245254233,-37.37197217416577,-12.637439085587884,-18.690707933256288
1760514707.164202,-4.043143722693712,-0.08873646007688084,1.029371466517014,-0.18754203437387326,-38.898680032657204,-13.268582385848045,-20.917958541402673
1760514707.173985,-4.262851530487524,-0.1000299394091258,1.0342296513738405,-0.1826964998552247,-40.538157396176274,-14.206374951523767,-23.28258892009257
1760514707.1840096,-4.5112485018334905,-0.11101507147393581,1.0385679338953542,-0.1741154502040817,-42.40880415026098,-15.534220582881552,-25.866882034755633
1760514707.1939902,-4.792731415476215,-0.12081446971338777,1.0426041621061255,-0.16098176195072494,-44.63650032406189,-17.30443876449494,-28.745909524469656
1760514707.2040803,-5.111207256005893,-0.12903193367963925,1.0464816649126425,-0.14345052906932954,-47.33950831534802,-19.527195069082488,-31.971107427588027
1760514707.214127,-5.469988202764218,-0.13585522855224966,1.050238287193385,-0.12258019751108457,-50.61132565616992,-22.163679323314685,-35.55600044666336
1760514707.2240062,-5.871668742994286,-0.14203408638522244,1.0537779525298199,-0.10011052704485929,-54.50369049701796,-25.124197861767506,-39.4667014118106
1760514707.2340102,-6.317970357444621,-0.14873879225753542,1.0568507486818761,-0.07813092682650567,-59.012153657901216,-28.27186990326983,-43.61906376143371
1760514707.2439902,-6.809559416232506,-0.15732605779838071,1.0590502216233135,-0.058695968317803784,-64.06650769560049,-31.432541357009608,-47.88323912278846
1760514707.254069,-7.34586048272976,-0.1690561427973781,1.059835662465704,-0.04345102678857477,-69.52788194536392,-34.41095299861511,-52.095112991177324
1760514707.2639844,-7.924896680446826,-0.18481451081622044,1.0585837944311287,-0.03333156757836515,-75.19344625161757,-37.01192748659466,-56.072884664346525
1760514707.2739818,-8.543189291475606,-0.20488998947558518,1.054669641144638,-0.028392688790366907,-80.80851239880164,-39.063635571539336,-59.636135546813854
1760514707.2839797,-9.195741737230348,-0.2288516034816434,1.047570373000603,-0.027807871352243354,-86.08466773563069,-40.438592703630796,-62.62430363072051
1760514707.2940714,-9.876123216877293,-0.2555526837819864,1.0369777085637757,-0.03004529258693268,-90.72177713505273,-41.06776431373383,-64.9117057674231
1760514707.3041165,-10.576659143558198,-0.28327335729803504,1.0228953257991085,-0.03318783292201418,-94.43146752199226,-40.94451658893833,-66.41710979299839
1760514707.314148,-11.288729484051014,-0.30998482929494503,1.0056928889545467,-0.03531882448760271,-96.96003382935245,-40.11794125852765,-67.10711193180111
1760514707.3239937,-12.00316829008843,-0.33368233866893815,0.9860938373930472,-0.03487210293357697,-98.10927473467189,-38.67824444785393,-66.99380245880386
1760514707.3340724,-12.710744915959653,-0.3527087604053748,0.9650912372282826,-0.030863935683720273,-97.75408731967276,-36.73885737763186,-66.1280113559887
1760514707.34419,-13.402691074261721,-0.36599842035467256,0.9438075990984833,-0.02297767327857238,-95.85538823640455,-34.41975339243051,-64.5897051990004
1760514707.3539793,-14.071222883002665,-0.3732035525336048,0.9233294054812927,-0.011520005042350697,-92.46633636089283,-31.834660171008142,-62.47706174671205
1760514707.364232,-14.709998857197148,-0.37469837553316127,0.904549711823835,0.0027158862628465386,-87.72967964097481,-29.08286681820471,-59.89563065921866
1760514707.3740015,-15.31445735969679,-0.37147560568667265,0.8880464881505993,0.018647133613607276,-81.8650081343398,-26.245200549042885,-56.9488601726456
1760514707.3839993,-15.88199069419347,-0.3649616394476591,0.874016262728316,0.03512294234200961,-75.14671883649952,-23.383587242809142,-53.73103850463262
1760514707.3941064,-16.41193395355649,-0.35678418199575485,0.8622731034584245,0.0511297188085651,-67.87574794505153,-20.543850310403233,-50.32328036192939
1760514707.4042432,-16.90536958041027,-0.34852988928996864,0.8523110790976877,0.06593937433596689,-60.349566379056384,-17.761395671705,-46.79262238063721
1760514707.4139988,-17.36476973837682,-0.34152886737491495,0.8434167302387666,0.07917547360525178,-52.83506976767678,-15.068921178131585,-43.193738243013094
1760514707.424019,-17.79351671769527,-0.3366968188910508,0.8348112877688321,0.09079502413132322,-45.54804551402853,-12.50451486287211,-39.57239879140428
1760514707.4340062,-18.195356037179085,-0.33445403574930105,0.8258012862130003,0.1010056669711843,-38.64142141722877,-10.117916450925263,-35.96962311403346
1760514707.44398,-18.573846599344886,-0.334725614389846,0.8159170313181031,0.11015126840998589,-32.202981125451196,-7.972652369803526,-32.42545765774392
1760514707.4541564,-18.931876337686987,-0.3370138647112081,0.8050172680841203,0.11860080759112383,-26.261912005783834,-6.142352968984448,-28.981458321736802
1760514707.4640553,-19.27130948753499,-0.34052553191461515,0.7933368702953093,0.12666798481096386,-20.802452968880083,-4.700801279457507,-25.681238364926244
1760514707.4740891,-19.59282063688869,-0.34433258466187133,0.7814594968722884,0.1345758689320246,-15.782026861982684,-3.706977807586077,-22.56888436226169
1760514707.4840016,-19.89594780095055,-0.3475428391908014,0.7702137331894654,0.14246537817610755,-11.150665856343265,-3.188128204654552,-19.68558618987891
1760514707.4939837,-20.179361974854938,-0.34945492906671793,0.7605133777710733,0.1504318836885031,-6.868405434219568,-3.124980062058672,-17.065332477485484
1760514707.5042813,-20.4413102578817,-0.349673684364567,0.7531775754691288,0.15856586731839084,-2.917732453869608,-3.4430579031802004,-14.73078833285366
1760514707.5139832,-20.680153956832616,-0.3481686762774842,0.7487678526588785,0.1669756215860996,0.69085963548692,-4.012612117121116,-12.690378495951121
1760514707.5239902,-20.894902052162294,-0.34526955057243425,0.7474708528648908,0.175780919632104,3.920777552920318,-4.657666461847216,-10.937216770134292
1760514707.5341747,-21.08564018291857,-0.341604019547446,0.7490450446917849,0.18507951745422388,6.717815508055522,-5.172868012064746,-9.450042473071361
1760514707.544156,-21.253775365112393,-0.3379943003806422,0.752840020820455,0.19489743140570392,9.023192445824808,-5.345564413637692,-8.195905451272761
1760514707.553988,-21.40205076952379,-0.33533263211583536,0.7578870269130857,0.20513796673694001,10.788466546942791,-4.979847529025509,-7.134053677265986
1760514707.5639834,-21.534325819313818,-0.33445657166469017,0.7630477644738483,0.21554439735116834,11.989532567991938,-3.9191302042176037,-6.220338246325296
1760514707.574006,-21.6551587018767,-0.3360420354600702,0.7671967151083304,0.22568755421933936,12.637238990753437,-2.064146333847847,-5.411447902053306
1760514707.5839858,-21.76926425036198,-0.34052728077374794,0.7694038522029729,0.23498334740568427,12.78286179259723,0.6159669013408611,-4.668390135182449
1760514707.593976,-21.880941695697928,-0.34807429165259524,0.7690833823521951,0.2427385397318953,12.5176277910134,4.080746829716718,-3.958815586578501
1760514707.6039755,-21.993568515609365,-0.3585669189404533,0.76608144793628,0.24821784440677652,11.966530272687278,8.223594336534394,-3.2580035436436985
1760514707.6139903,-22.109239065741544,-0.37163971270339774,0.760689150229539,0.2507223313007317,11.277606759294548,12.883720491325857,-2.548554271779877
1760514707.6240728,-22.22859478670418,-0.38672808223941074,0.7535823680813014,0.2496679053278379,10.60844945372092,17.86244275470055,-1.8190377388144308
1760514707.634007,-22.35085346951429,-0.40312877135916403,0.745703043356015,0.2446526513639088,10.111909162866649,22.9409150224469,-1.0620019816201156
1760514707.644208,-22.474007365034595,-0.42006046433302574,0.7381058993138678,0.23550285712429467,9.922799208918189,27.896590040823277,-0.27182446735854754
1760514707.654237,-22.595134345048233,-0.4367190172271547,0.7317983018266931,0.22228977983711362,10.147052473010532,32.516567508954026,0.5571234505535423
1760514707.6641254,-22.710759802641387,-0.4523287758458828,0.7275980330670082,0.2053131163575215,10.854371729562608,36.60714539878248,1.4316483074392456
1760514707.6739938,-22.817216524215223,-0.46619507743959215,0.7260260241276149,0.1850528978331728,12.075019692020945,39.99997640817246,2.3601128787203387
1760514707.68401,-22.91096426856099,-0.47775938673008733,0.7272435619320452,0.16209805518643947,13.801021949400566,42.55597686202682,3.3521638139271293
1760514707.6940775,-22.988842063744336,-0.4866511855022769,0.7310396055232532,0.13706406418631878,15.99165850806213,44.168413990870945,4.4181717498846576
1760514707.7039878,-23.04823473139629,-0.4927262022133775,0.7368720549645924,0.11051232912463169,18.5826613584031,44.76635809000555,5.568818490413946
1760514707.7140164,-23.087143326721844,-0.4960796287454719,0.7439629530973129,0.08288370080576271,21.498023526628472,44.31900916281048,6.815168485303439
1760514707.724001,-23.10415603771843,-0.4970232094398591,0.7514401997860369,0.054460852696846675,24.662828027728473,42.840559042392314,8.169354343188987
1760514707.7341304,-23.098321621029275,-0.496018769635131,0.7585101438787463,0.02537519241046999,28.015147981897478,40.39457678790752,9.645766148356717
1760514707.7440252,-23.068935936176494,-0.49357175584297314,0.7646393729871959,-0.004332704636725611,31.514987154754557,37.096631084333154,11.262411230825109
1760514707.7540534,-23.015266143782803,-0.49010313129589184,0.7697201159863273,-0.03460360636615561,35.14850668497972,33.11397974255386,13.041929190915724
1760514707.764227,-22.936252529796494,-0.48582760118605595,0.774190958004347,-0.06521909056790275,38.92640829499398,28.661510799230093,15.011634980938917
1760514707.77401,-22.830238318836656,-0.48066616420817093,0.7790844308719151,-0.09565743008485209,42.87621504992754,23.993562497117512,17.201964724371468
1760514707.7841115,-22.6947805826501,-0.4742133380484857,0.7859782762804369,-0.12497875192004121,47.02917121575087,19.391681548290368,19.64286045109227
1760514707.7942512,-22.526591204531364,-0.4657679136291747,0.7968389302504808,-0.15177396579383345,51.403444389122086,15.148754773963448,22.357965277156676
1760514707.8040648,-22.321647067171067,-0.45442459595946294,0.813762694789954,-0.17420877213539673,55.98610973599638,11.550283579657982,25.356959041390713
1760514707.8139937,-22.07549341084962,-0.4392150079063109,0.8386391698808443,-0.1901841026000395,60.71685970599144,8.8539040077689,28.626843436290386
1760514707.8240302,-21.783742752524095,-0.41927987445064174,0.8727788493730341,-0.19761576967738873,65.47640734654227,7.268609824960325,32.123387526332216
1760514707.8340778,-21.442743519334254,-0.3940486390439818,0.9165585766261748,-0.19480972265207133,70.08216566465985,6.935509395119656,35.764212937809276
1760514707.8441043,-21.050360293597567,-0.36339963428156746,0.9691432337589494,-0.18088057335295182,74.29309888946997,7.912288693780526,39.425104096256646
1760514707.8540103,-20.60677688246339,-0.3277756297304208,1.0283403140146288,-0.15613829750622513,77.82472354144154,10.163719244315145,42.94104304223557
1760514707.8641245,-20.11521031110279,-0.2882365983752355,1.090635446236178,-0.12235817898740776,80.37406359584182,13.560296717958549,46.11315915122812
1760514707.87406,-19.58241307873957,-0.24644185477177047,1.1514371503754277,-0.08285434878825743,81.6528708083234,17.886171089804982,48.72222368911874
1760514707.8840258,-19.01884632008072,-0.20456334265769321,1.205525387851732,-0.0422963182514862,81.42563791949584,22.855866401424418,50.54847105009106
1760514707.8942523,-18.438430234559736,-0.16513633638534758,1.2476585414610513,-0.00624161945421379,79.54714722971798,28.13723506626353,51.39637745917454
1760514707.9040036,-17.857820222820152,-0.13085171851697736,1.2732605742890883,0.019588774588334197,75.99311728717102,33.376528650828526,51.121685472161786
1760514707.914047,-17.295214748331656,-0.10428935355443182,1.2790889586142762,0.03019375208448179,70.8776548636295,38.2214883755495,49.65674706512993
1760514707.9241056,-16.768768671044946,-0.08759301696341651,1.2637727481084204,0.022168523977079076,64.45305457707907,42.34036097391384,47.02962639846212
1760514707.9340208,-16.294756448875972,-0.08210333631184034,1.2281159577100043,-0.0056171190800704636,57.09062597693215,45.437693628373275,43.37274190255051
1760514707.9439962,-15.885694981298792,-0.08800267470439832,1.175097140669493,-0.05169712907229976,49.24466121742827,47.26971711069372,38.91823405596861
1760514707.9540098,-15.548685927781086,-0.10407465989391687,1.1095575981360286,-0.11212694647243515,41.40445039931852,47.66173279627116,33.97944728218844
1760514707.9640045,-15.28425660350742,-0.12770242315821184,1.0376308607863742,-0.18103118844450108,34.041044291832435,46.52733876236772,28.92037248588439
1760514707.9740002,-15.08594710382847,-0.15518087348945186,0.9660018002038429,-0.2514797564417385,27.55626565657149,43.88598430986237,24.117028252525955
1760514707.9840858,-14.940796806324471,-0.182306033490677,0.901098920558826,-0.3165209391634306,22.241236566044215,39.87307465824392,19.916143241502787
1760514707.9940045,-14.83073513717192,-0.20509384275302717,0.8483319548731364,-0.3701775307568599,18.250292772537353,34.737029242407594,16.59694752853491
1760514708.0040925,-14.734711641688953,-0.2204378562939125,0.8114854255834575,-0.40823802123351866,15.593666183834802,28.820474387608474,14.341368050859023
1760514708.0140846,-14.631252640541076,-0.226552888042221,0.7923550052001066,-0.42872757904525216,14.149182988282769,22.526907687729466,13.216577921429174
1760514708.024044,-14.501046058343485,-0.22313408154696346,0.7906689578849391,-0.4320062190802386,13.690172281631552,16.27790418625654,13.171951472824132
1760514708.0340226,-14.329154202091622,-0.21124213934642883,0.8042859971919727,-0.4205081334513681,13.9244708160854,10.467977779058486,14.050396395631763
1760514708.0440397,-14.106532473416172,-0.19297938911992643,0.8296172096960253,-0.3981963935816953,14.53817388015051,5.424333319042524,15.612099273229251
1760514708.0540156,-13.830666415296815,-0.17104595963955876,0.8621914759496314,-0.3698479451462105,15.237637765232478,1.3773757557984774,17.567143131144057
1760514708.06403,-13.505298191169194,-0.14826871548877296,0.897273911013276,-0.34030006758356846,15.784059375290685,-1.5544579343037566,19.612362757428983
1760514708.074017,-13.139363658939319,-0.12718374105797484,0.9304528732134054,-0.3137833638248312,16.01653609348852,-3.364659507166749,21.46732307288663
1760514708.0840156,-12.745374184368085,-0.10972979116213744,0.9581271443314296,-0.293439967178662,15.861528294060916,-4.145021895021648,22.904584300365247
1760514708.0940177,-12.337536376851357,-0.09708096078631331,0.9778446068852139,-0.28108181372211555,15.328738978500859,-4.061927554674245,23.770504113332187
1760514708.1040208,-11.929905024467793,-0.08961853283741493,0.9884634952903242,-0.27719056110931883,14.49530798139536,-3.3271217228649763,23.994542232143
1760514708.1140115,-11.534817137246653,-0.08701924898863646,0.9901278083466892,-0.2811119472847266,13.481758624305039,-2.167773021573625,23.586999892352743
1760514708.1240191,-11.161773769440302,-0.0884233858989806,0.9840731952491063,-0.29136867235256103,12.424241645042207,-0.8000893738856649,22.62692339678123
1760514708.1340125,-10.816842200805999,-0.09264251842016442,0.9723082779595906,-0.3060146509662634,11.448079454100206,0.5904320119171912,21.243183276230685
1760514708.1440086,-10.502563372120905,-0.09837082547550997,0.9572386557762863,-0.3229708553515118,10.647113619099027,1.8606469312884315,19.592313791889495
1760514708.1540377,-10.218280440991508,-0.10437024349426886,0.9413029987219778,-0.3403025378787345,10.071826815342254,2.9134711363147487,17.836568013923813
1760514708.16414,-9.960761389183757,-0.10960766102903435,0.9266715849178042,-0.356413056451611,9.727082945581616,3.6951448468800243,16.124989114472246
1760514708.174245,-9.724976306786111,-0.11333367359766011,0.9150312111563167,-0.3701453298666493,9.578338446589399,4.188328404272278,14.579357044414333
1760514708.1840076,-9.504906246935345,-0.11510583675773157,0.9074600458407821,-0.38079959809839803,9.56385796689477,4.403484527064297,13.285854446802674
1760514708.1940136,-9.294294779725561,-0.1147698304940544,0.904385009742161,-0.38809007219235897,9.609926919000566,4.370630369959072,12.292369882719134
1760514708.2040048,-9.087291073784948,-0.11241595109264925,0.9056101688613649,-0.39206838814938305,9.646125459967195,4.132758542225591,11.610630640125718
1760514708.2140195,-8.878962732958577,-0.10832623021422547,0.9104045657995948,-0.3930388404790214,9.61819210981406,3.741266270723214,11.221891881623682
1760514708.224013,-8.665672609481216,-0.10292197632580255,0.9176391539497679,-0.3914824957249798,9.496686684682624,3.252871178139615,11.084719369861999
1760514708.2339995,-8.445318352764636,-0.09671572334729475,0.925962045752428,-0.38799787807143643,9.280451034084036,2.7269702099011512,11.143462801744855
1760514708.243992,-8.217432422192905,-0.09026730857462394,0.9339969240945135,-0.38325722273737683,8.994701013863018,2.222363386952781,11.336266935377548
1760514708.2540126,-7.98313888616605,-0.08414120166710598,0.9405410636842445,-0.3779709575703269,8.684428355683574,1.792738354867188,11.601837231907572
1760514708.2640066,-7.744964680541702,-0.07886133178348835,0.9447305185608091,-0.3728513228796346,8.404593720518648,1.4811554841704968,11.884592532419644
1760514708.2740412,-7.506510496868958,-0.07486198129518905,0.9461386843867521,-0.3685702763443445,8.209204701395015,1.3146471698972029,12.138210733933406
1760514708.284059,-7.272002738317695,-0.07243902963438449,0.9447880951121918,-0.3657138683546169,8.141529195921976,1.3004734955601212,12.327799679744748
1760514708.2940552,-7.045769406080091,-0.07171089839857964,0.9410807476562185,-0.36473876729835353,8.227201407845229,1.4252477033612811,12.430950509559016
1760514708.304025,-6.83169977485743,-0.07259845592129463,0.9356747144778755,-0.3659350206592769,8.470989708568222,1.6572326598024576,12.43782688491023
1760514708.3142114,-6.63275305800765,-0.07482850370032426,0.9293422274229528,-0.3693972536032277,8.856980784719102,1.951155378005234,12.350355972557681
1760514708.3240206,-6.4505749003147095,-0.07796031500430495,0.922838194983037,-0.37500729934399557,9.35129992113028,2.254322917529213,12.18059379878891
1760514708.3340566,-6.28526619867966,-0.08143129359727966,0.9167970312368697,-0.38243253941779676,9.906322994183084,2.512729655536351,11.948409962645718
1760514708.3440814,-6.135329859242317,-0.08461594970589395,0.9116655752518883,-0.39114371824210115,10.465497628902117,2.676099793072591,11.67871598586173
1760514708.3540478,-5.997800092453234,-0.0868914177651028,0.9076722394624547,-0.4004539020060345,10.96819278302553,2.7012665111432725,11.398515665072363
1760514708.3640919,-5.868537635041568,-0.08770240542615598,0.9048276752302382,-0.40957745771730736,11.354304332432124,2.5538232554267557,11.134075442544463
1760514708.3740218,-5.742654584954746,-0.08661871603136215,0.9029504665768384,-0.4177050405936986,11.568583816029674,2.208467206082151,10.908495878681403
1760514708.3840594,-5.615016436796259,-0.0833794247253634,0.9017120856792474,-0.4240882558828357,11.564790148474323,1.6487719399905196,10.739910374186197
1760514708.3940513,-5.480759366804552,-0.0779195945318563,0.9006967488854529,-0.428126267326464,11.30977099847806,0.8671953511981323,10.640444958610626
1760514708.404088,-5.335761088867017,-0.07037810573937406,0.8994718633533425,-0.4294458432810418,10.787457982424286,-0.13406129138948938,10.615952408495598
1760514708.4141378,-5.177015060020062,-0.06108813016137298,0.8976628620456352,-0.4279657287593301,10.0025278862616,-1.3411180868525958,10.666405442089989
1760514708.4240355,-5.002877643558997,-0.05055371928558829,0.8950236788355076,-0.42393589683791866,8.983193227668616,-2.725674680180177,10.786724131134825
1760514708.4340134,-4.813179394809496,-0.03941578040338589,0.891492620652038,-0.41794262346802047,7.782321496011795,-4.242225474915773,10.967750002346934
1760514708.44402,-4.609207963335736,-0.028408530718771842,0.887223452804419,-0.41087178657255463,6.475944113586983,-5.8263790105112925,11.197085502596511
1760514708.4540222,-4.3935778496680005,-0.018304907256382386,0.8825826737227571,-0.40382552476855865,5.158312198304486,-7.395578131821156,11.459599541300001
1760514708.4641027,-4.170002755528461,-0.009848389575462939,0.8781061824574385,-0.39799200981028815,3.933088712012841,-8.85330547266074,11.737548136988716
1760514708.4740353,-3.942983993586922,-0.003670927895521003,0.8744130737679711,-0.39447646098516925,2.901098903786982,-10.097186818075278,12.010452693041936
1760514708.4840627,-3.7174298249643605,-0.0002038528963834581,0.8720840924630004,-0.39411676591944145,2.146226477155919,-11.030282769513688,12.255077446469853
1760514708.494028,-3.498231885607229,0.00039950122512306713,0.8715288495439553,-0.3973270652967918,1.7221852432379101,-11.573571879277896,12.445967089439804
1760514708.5042372,-3.289844233263857,-0.0016978671305006166,0.8728808686571174,-0.4040208038907769,1.6433575373271865,-11.676815414112223,12.556925433213742
1760514708.5142448,-3.0959234124420605,-0.0060376502288445365,0.8759566282298695,-0.413642110744223,1.8821458276606096,-11.325268626184698,12.563495691228653
1760514708.5242164,-2.919079174670606,-0.011944133457056647,0.8802903109576721,-0.4252900877578901,2.3735223013035394,-10.541011080479574,12.44608676030533
1760514708.5341566,-2.7607569221941,-0.018634629363910866,0.8852275987534477,-0.4378888666589615,3.025541142422635,-9.37923737219293,12.193108322220175
1760514708.5440516,-2.621241387221369,-0.025331762279329026,0.8900477137033687,-0.45035546054860776,3.7333161113900184,-7.920900957662927,11.803441203267163
1760514708.5540862,-2.499751260534709,-0.03135458123802997,0.8940842019107252,-0.4617349653324774,4.393619070310538,-6.2634175726949834,11.287725164868363
1760514708.5641818,-2.3945901175668296,-0.036177579018622,0.8968233769062924,-0.4712903651116124,4.917626248811428,-4.510937398692849,10.66818996074714
1760514708.5742002,-2.3033263442513126,-0.0394570659150862,0.8979687576591822,-0.47854600142041176,5.240109804169298,-2.765290559084847,9.977009345589806
1760514708.5840337,-2.2229878900879627,-0.041031180048666356,0.897467609243372,-0.4832909938885435,5.324276475662135,-1.118296425072834,9.253376414872452
1760514708.5940247,-2.150270281014175,-0.040902811279574125,0.8955009632974135,-0.4855529472822206,5.162295570687998,0.35420802152051734,8.539662338942616
1760514708.6040735,-2.081763214495153,-0.0392143087309054,0.8924420307598563,-0.48555346294291,4.772197658228217,1.5965057061974626,7.877124339123601
1760514708.6144643,-2.014200160458082,-0.036220350517696565,0.8887909640582046,-0.4836557851730986,4.192200959800011,2.5753510190363107,7.301670616898054
1760514708.6243234,-1.9447284542539176,-0.03226246126549907,0.8850964866607965,-0.48031243210834956,3.473650875625783,3.2806833597396845,6.840171144881261
1760514708.6341345,-1.8711881523910403,-0.027746464272402398,0.8818760866524811,-0.476017755736053,2.6737003102439094,3.724886978976545,6.507732962789803
1760514708.6440818,-1.792379314984182,-0.023122680524225364,0.8795459275686609,-0.47126738815065083,1.8486773374496106,3.9407646819688384,6.3062498238497655
1760514708.6541994,-1.70829058568043,-0.018867543542003328,0.8783697487916274,-0.46652402383958735,1.0488279968030432,3.9783564445802897,6.2243975406045635
1760514708.6641695,-1.6202581204656799,-0.015464587538756893,0.8784331726496785,-0.4621879494583593,0.31482088206172015,3.9007172581295597,6.239083311485077
1760514708.6740367,-1.5310247205138476,-0.013382832511664803,0.879646103509497,-0.45857151240456806,-0.32390640619958694,3.778794770352946,6.318181161713287
1760514708.6841266,-1.444675316432834,-0.013051390836767273,0.8817714397117409,-0.4558785394518875,-0.8491524561185816,3.685616660136382,6.424220330393329
1760514708.6940284,-1.366436447793697,-0.014830418916655293,0.8844737720101934,-0.4541915169720398,-1.2527093482981821,3.6900938482870833,6.5185681295138185
1760514708.7040446,-1.3023426799230828,-0.018979998420221002,0.8873783290517366,-0.45347021261386355,-1.5343869757294504,3.850842814998502,6.565588147053743
1760514708.7140925,-1.2587888198857318,-0.025629503858858708,0.8901292084187603,-0.4535644917192152,-1.6998294029340173,4.2104995132150025,6.5362746513550585
1760514708.7243152,-1.2419994953833409,-0.03475014122545881,0.892437117638566,-0.4542413279034111,-1.7585640854495947,4.791016578809753,6.410966112258615
1760514708.7342436,-1.2574553478704744,-0.04613312608991104,0.8941100317111882,-0.45522276197199824,-1.7225752014327973,5.5903965484057165,6.180904914591788
1760514708.7441058,-1.3093182515693391,-0.05937595263145209,0.8950646757611045,-0.45622927247126643,-1.6055146575669972,6.581219925805476,5.848598551791243
1760514708.7540889,-1.399897233583488,-0.07387915311413094,0.8953214091118482,-0.4570219344978633,-1.4224959490060212,7.711190494961205,5.42710622481714
1760514708.764037,-1.5291924837878907,-0.08885545203825768,0.8949883123700275,-0.45743649541596443,-1.1902891038777714,8.905764786392341,4.93848713696788
1760514708.77407,-1.6945487822589993,-0.10335258063602586,0.8942409318652524,-0.4574032327168624,-0.9276694720818773,10.072786642402143,4.411684570377013
1760514708.7840455,-1.8904453846088953,-0.11629093139935226,0.8933023875610769,-0.4569486505696354,-0.6556704014555421,11.108930552135062,3.880090522343194
1760514708.794239,-2.108449857689805,-0.1265178059423171,0.892425504812659,-0.4561786480373805,-0.3975331281905235,11.907673542917848,3.3789670921925294
1760514708.8040469,-2.3373681938208732,-0.13288042977823106,0.8918754865377023,-0.4552470044109775,-0.17821406186595457,12.368453396427316,2.942827866350586
1760514708.8140326,-2.563628214861336,-0.13431899016898932,0.8919095332028013,-0.4543169405445822,-0.023387110492091853,12.40659523736185,2.6028378382825053
1760514708.824049,-2.7719305640053187,-0.12997789489585498,0.8927498048555623,-0.45352625702557203,0.04203303120122403,11.963450664002123,2.384295949491572
1760514708.834031,-2.946184526936358,-0.1193282341654144,0.8945485685181963,-0.45296712604262385,-0.004281386918966052,11.015970215809281,2.3043205685713546
1760514708.8441772,-3.0707107515935563,-0.10228779964425308,0.8973485090795423,-0.45268889467452855,-0.18012891132901676,9.584652312013857,2.3699395813105335
1760514708.8540452,-3.131641059202047,-0.07931849746695929,0.901045590992351,-0.4527256391428836,-0.49704926691189794,7.738564593783871,2.576852361195017
1760514708.8640254,-3.1183855457002396,-0.051477169650291775,0.9053652562474545,-0.45314070826041103,-0.9591655860398282,5.59603252371096,2.9091423734918957
1760514708.874057,-3.0249854633737994,-0.02039780313222925,0.9098640116249627,-0.45407129875066093,-1.562883770175044,3.3197505323102576,3.340151782536447
1760514708.8840506,-2.851146382845322,0.011807709584099596,0.9139661467410504,-0.45575146861818316,-2.297536004431971,1.1055760073549532,3.8345776954492696
1760514708.894045,-2.6027624539030776,0.0427287505729675,0.9170381317565177,-0.45849475444241106,-3.1467905335615014,-0.834870106646584,4.351637538740684
1760514708.9040473,-2.29179813014611,0.06989846476831499,0.9184920418106812,-0.4626274978054118,-4.09044710142924,-2.296543573661416,4.848935270431842
1760514708.9140573,-1.9354766576774918,0.09107059332874373,0.9178983082847616,-0.4683786131389022,-5.106208658670351,-3.105818228050432,5.286508353611126
1760514708.9240594,-1.5548205245139142,0.10449367226038671,0.9150825654297643,-0.475747716885818,-6.171167634671479,-3.144424440905348,5.63049466093775
1760514708.9343152,-1.1726850801825717,0.10914268000592917,0.9101842348210898,-0.4843873783027004,-7.262967408596981,-2.3686339652547828,5.855941913920029
1760514708.9440227,-0.8115099121912782,0.10487129542048028,0.903664240661835,-0.49354101618680224,-8.360775500374046,-0.8201387794587092,5.948470194186057
1760514708.9540398,-0.4910691210765806,0.09245732794336865,0.8962611413680635,-0.5020699217371382,-9.446263382567619,1.3738198299481694,5.9047383318656586
1760514708.964029,-0.22651809052979388,0.0735285313186492,0.888904498755718,-0.5085801940005954,-10.50471646000948,4.011762996579578,5.731881794964643
1760514708.9740984,-0.02700271713834787,0.05037402555545962,0.8825999958593985,-0.5116301609382755,-11.526227770404942,6.839414611760118,5.446211371768519
1760514708.9840474,0.10498251450762637,0.025665913707272194,0.8783036570214859,-0.50997336125402,-12.506731177184461,9.578214284737774,5.07145520216448
1760514708.9941742,0.1734189539710683,0.0021333546833427865,0.8768033895634124,-0.502781400930591,-13.448502309726605,11.9567841377416,4.636715532098039
1760514709.0040872,0.18783613961516535,-0.017758091018884755,0.8786246398803012,-0.4897972511793537,-14.35977805706023,13.741014894057468,4.174165514714768
1760514709.0140386,0.16181526656100778,-0.03207157838195516,0.8839729351093771,-0.47138811696337,-15.253331687815928,14.758975522517824,3.7164087290319467
1760514709.024073,0.11117684931998464,-0.0395747842876994,0.8927201150405546,-0.448490845989134,-16.14412841565402,14.917897035918031,3.2934154998759397
1760514709.0340376,0.05211490717068099,-0.0398158424710803,0.9044343031836811,-0.4224658430946089,-17.046471737827208,14.211742135415287,2.9290443295885797
1760514709.0440855,-0.0005007424843514368,-0.03310888782942492,0.9184471208536131,-0.39489276412347335,-17.97124163608352,12.719107021167154,2.6373261783401887
1760514709.0540829,-0.034500542219814814,-0.020450177008425004,0.9339461685837382,-0.36734938228725744,-18.923869637968195,10.592268169686008,2.418884208139891
1760514709.0640318,-0.04138915606202998,-0.0033884899009869697,0.9500772491126794,-0.3412131851179691,-19.903576772109847,8.039017701544616,2.258025483019322
1760514709.074049,-0.01689825892659156,0.016130482427568205,0.9660398350957599,-0.3175161078351724,-20.904133468403536,5.299504041792063,2.121123247278716
1760514709.0840628,0.038860613398496655,0.035933746429643525,0.9811612483041848,-0.29687018741301535,-21.916042523447018,2.6206258578916004,1.9568717605738493
1760514709.094235,0.12160318386776248,0.05379998929999247,0.9949399958431933,-0.27946823536924936,-22.929701229722784,0.23064368529709273,1.6988215716015893
1760514709.1040387,0.22339454222472965,0.06764635550917726,1.0070558085667058,-0.2651497846478293,-23.938881612260186,-1.6834192581897938,1.270296489543875
1760514709.114211,0.3334377519614708,0.07571796456558723,1.0173508708950152,-0.253509714270698,-24.943840612333148,-2.993348675757645,0.59138921815428
1760514709.124064,0.43906935991712426,0.07676712246794538,1.0257913377200918,-0.24401785479898586,-25.95351645787135,-3.640670147026509,-0.41270250255517893
1760514709.1340556,0.5268831473619818,0.07020179785063438,1.0324201429324247,-0.23611662867815736,-26.98651277436358,-3.640223757427021,-1.8031083065925266
1760514709.1440582,0.5838833601582819,0.05618019208448887,1.0373120340955198,-0.22927296495783128,-28.070831938603376,-3.0766450728067065,-3.619794855149928
1760514709.1541812,0.5985566745674227,0.035630972090612986,1.0405396292993903,-0.2229778958273267,-29.242517346173983,-2.094793233009821,-5.876409210825809
1760514709.1642199,0.5617549594792104,0.01018555508500422,1.0421548290014804,-0.21670582291210377,-30.543466427589475,-0.8855856355635126,-8.55839652753159
1760514709.174116,0.4672985399901291,-0.01798259873825048,1.042184958365411,-0.20985981589446406,-32.01870506508892,0.33120030365637587,-11.624814874305596
1760514709.18406,0.31223725906909217,-0.04640673127675232,1.040640363901681,-0.2017363859142399,-33.71341249511182,1.3256812415185197,-15.01364951896335
1760514709.1941624,0.09674232907448238,-0.07264371348010774,1.037529970206251,-0.19153978285236878,-35.66996372791818,1.876850634898921,-18.649817115367114
1760514709.2041657,-0.17635174484234548,-0.09461814960718555,1.0328813478338732,-0.1784604378412632,-37.92518585306297,1.7905951529241808,-22.4545731544972
1760514709.2140536,-0.5022822538208942,-0.11093374619716825,1.0267613738695798,-0.1618099299957546,-40.507885536074454,0.9156226049628468,-26.3548048841352
1760514709.2240424,-0.8752515342756112,-0.12108968889677488,1.019293666927098,-0.14118589497809647,-43.43652784287996,-0.8437818736383672,-30.29073795063615
1760514709.234093,-1.2893388893903064,-0.1255599603099492,1.0106703750438228,-0.1166311733412271,-46.71681025288429,-3.519161810784723,-34.22085509240951
1760514709.2440424,-1.7393022907568418,-0.12572673101984733,1.0011582478835268,-0.08875149625161374,-50.338873714851104,-7.074208514869502,-38.12325285006482
1760514709.2541342,-2.2211738888866317,-0.12368848458613678,0.9911009064415781,-0.058760990172289224,-54.27409089595705,-11.406335972452124,-41.993210020801556
1760514709.2641633,-2.7325939083190547,-0.1219787018670315,0.9809187738423681,-0.028432237330620638,-58.47175977344323,-16.35335003008309,-45.83736107462663
1760514709.274055,-3.2728652856944582,-0.12323272527266652,0.9711044480081602,6.145438764950117e-05,-62.856479488301034,-21.70457527306407,-49.6654596811194
1760514709.284154,-3.842743667260989,-0.12983773701385368,0.9622064352114699,0.024406796274017255,-67.32727519750871,-27.215477999680733,-53.48116960019738
1760514709.2941427,-4.4440056629714295,-0.14360112268913405,0.9547917381911496,0.04248601951248472,-71.75946569576975,-32.62470862148634,-57.27355724229791
1760514709.3042066,-5.078862853739312,-0.16547524363883306,0.9493809166925118,0.052734649397160514,-76.00977068519884,-37.67252849225697,-61.01093402800151
1760514709.3141758,-5.7493064525409885,-0.19537556119054258,0.9463588168993995,0.05445352952846864,-79.92439219155644,-42.119636545822566,-64.63837086189156
1760514709.3240507,-6.4564727949398595,-0.23212051165635733,0.9458768900670979,0.04800733426867694,-83.34908171132928,-45.765306791433794,-68.0795796621013
1760514709.3340523,-7.200111020429371,-0.2735086693594232,0.9477723313309713,0.034858310993145576,-86.13976045830131,-48.46339618812369,-71.24299213124549
1760514709.3440535,-7.978214567775789,-0.31653699353746567,0.951530511090185,0.01741190653179506,-88.17214581121803,-50.13427214631273,-74.03092377121438
1760514709.3541284,-8.786853904170773,-0.35775277760653074,0.9563100290182301,-0.0013147046068600063,-89.34902562901445,-50.77042094569696,-76.34996591439396
1760514709.3641305,-9.620224510011235,-0.39371162309040586,0.9610349923476331,-0.01815137777383587,-89.60436603547736,-50.43404550969438,-78.12052745651474
1760514709.3740656,-10.470902161035506,-0.42147677274393214,0.9645383871762895,-0.030272463044597596,-88.9043827060195,-49.24669431974099,-79.28390580892304
1760514709.3840647,-11.330274794235873,-0.43905772756633815,0.9657217045260619,-0.03562277023427477,-87.24676125721645,-47.37324405104027,-79.80614484127419
1760514709.3940737,-12.189097738485751,-0.4456852537476757,0.9636920710363923,-0.033179338765919365,-84.65967167967342,-45.00387207661666,-79.67871229479971
1760514709.404055,-13.03810270058606,-0.441868928215739,0.9578524202702123,-0.02301017904062952,-81.20152555747744,-42.33703543179592,-78.91641704315252
1760514709.4140897,-13.868585507082908,-0.42924806044385977,0.9479408000168799,-0.006147972373955254,-76.96089870952146,-39.56460798380439,-77.5531332091773
1760514709.4241426,-14.672903003182519,-0.4102875130829077,0.9340279385633827,0.015670252259955043,-72.05482250508362,-36.858798652190266,-75.63602778628446
1760514709.4342058,-15.444823502448697,-0.38788355412460546,0.9164846363413003,0.040334250221931815,-66.6236784343103,-34.36019042231611,-73.2191281321424
1760514709.444082,-16.179696994354423,-0.36494847374472106,0.8959275791701427,0.06569680455735943,-60.82211948427202,-32.16694277613792,-70.357150191658
1760514709.4542992,-16.87443948876597,-0.34404142589240144,0.8731498640422488,0.08985679378451039,-54.80691328136842,-30.326123545602474,-67.10050609936559
1760514709.4640648,-17.527354769439977,-0.3270998582454219,0.849044018952641,0.11135064056553201,-48.72360961409238,-28.828723177800736,-63.492279552911576
1760514709.4740891,-18.13783821482661,-0.31529902759826395,0.824529001088247,0.1292406374705749,-42.694308010188564,-27.609940136089435,-59.56763601054356
1760514709.4840672,-18.706016122474182,-0.30903568289272615,0.8004935802439267,0.14311319976506223,-36.80868543779669,-26.555765881640305,-55.35564483028601
1760514709.4940658,-19.232371462513765,-0.3080086000169393,0.7777628939364188,0.1530151971456142,-31.119962281498605,-25.515833598886008,-50.88298554424904
1760514709.504075,-19.717398810820228,-0.31135984838129355,0.7570843046077973,0.15935970021619678,-25.64666511115859,-24.32122013755703,-46.17866489781681
1760514709.514062,-20.161322852996072,-0.3178444840485798,0.7391197282013618,0.1628253406602066,-20.379919180198645,-22.80482160149134,-41.27876798051339
1760514709.5240662,-20.563908619511952,-0.32600570740796636,0.7244308010070877,0.16426086755011277,-15.294744725792121,-20.82139399768395,-36.23038207369765
1760514709.5340674,-20.92438633847876,-0.33434111287069235,0.71345042262272,0.16459521708584018,-10.362801986862596,-18.26447309464446,-31.094055301816176
1760514709.544056,-21.24150649043925,-0.34145167103322854,0.7064438407813527,0.1647486982978718,-5.563652131697728,-15.078069780655166,-25.94435529877447
1760514709.5540586,-21.513728608107304,-0.34616928035494443,0.7034701004407133,0.16554290946635344,-0.8921245122499665,-11.262079101706064,-20.868251263878992
1760514709.5640657,-21.739529745476442,-0.34766096706005867,0.704358196962428,0.1676126672064532,3.639303260349783,-6.871491639427728,-15.961251948055237
1760514709.574075,-21.91779752276561,-0.345507415130328,0.7087099119589642,0.17132979448883143,8.00259396800145,-2.0104736782410577,-11.321566680253143
1760514709.5840533,-22.04825346640502,-0.33975144100611426,0.7159336782476609,0.17675317620769457,12.158963284720832,3.177072244423544,-7.042949895436991
1760514709.5940604,-22.131841052978057,-0.33091031742803617,0.725304756703505,0.1836185807172816,16.064311784312533,8.518874322836389,-3.2071852103546656
1760514709.6040542,-22.171012893147765,-0.31994560598668453,0.7360402410275882,0.19137479109072633,19.673683680621686,13.826477051133551,0.12274465958708204
1760514709.614059,-22.169862613795047,-0.3081859605976615,0.7473746296549255,0.1992628920061503,22.94414461174512,18.907780615915076,2.9078774644451197
1760514709.6240664,-22.134067406105267,-0.2972035039236702,0.7586233206636035,0.20642612241273853,25.836431979272227,23.579941105432965,5.136233975445789
1760514709.634057,-22.070635025409775,-0.28865315252317636,0.7692265287407366,0.21202963603498912,28.316315251316265,27.682719703704855,6.823223890306036
1760514709.6440525,-21.987480324851532,-0.28409307456844823,0.7787721779738963,0.2153651796591417,30.356695834428375,31.092016964648447,8.009519937491074
1760514709.6541579,-21.892883642614972,-0.28480759050754717,0.7870001347470789,0.21591882432023626,31.941160925458984,33.73267670341028,8.756683463654587
1760514709.664152,-21.79489890178863,-0.29164989591108015,0.7937907545318202,0.21339038427522622,33.069130647930436,35.588937497341945,9.141033563079626
1760514709.6740856,-21.70078070934507,-0.3049164810720744,0.79914019996694,0.20766542433718732,33.76202204469387,36.71041762813598,9.246453255601544
1760514709.6840718,-21.61649056512232,-0.3242644615697694,0.8031256560969746,0.1987496482769905,34.069135282989464,37.21148975837242,9.157042404075181
1760514709.694071,-21.546327820901844,-0.34868734418288705,0.8058657736900954,0.18668157589576204,34.0714844223387,37.262523530665185,8.950720131732435
1760514709.7040734,-21.49271431613859,-0.3765675035515747,0.8074847956747555,0.17144555952813798,33.88183170117773,37.072796785188764,8.694949034473344
1760514709.7140925,-21.4561428183789,-0.405817914064076,0.8080919059395192,0.15291111034639235,33.639883110890885,36.866696907674786,8.445580819858248
1760514709.724075,-21.435278163202117,-0.43411065916150005,0.8077881635466235,0.13081957183309495,33.50280666328659,36.856642660349316,8.249328416687398
1760514709.7341166,-21.42717809915876,-0.45917077151662106,0.8067094444228692,0.10482410454645186,33.63249633020502,37.217265104057816,8.149563996534916
1760514709.7443404,-21.427582453796802,-0.4790958678971141,0.8051047355473422,0.07457334127684165,34.181780320453356,38.06525408147066,8.194169744216685
1760514709.754249,-21.43120931144373,-0.4926454780856622,0.8034362269631515,0.03982509500841589,35.28171294175821,39.44783668551985,8.443298442473072
1760514709.7640548,-21.432000710986955,-0.49943322334881596,0.8024730409086139,0.0005841509449840784,37.031260498793635,41.34059999998009,8.974441796275972
1760514709.7744074,-21.423282569868785,-0.4999643320588807,0.8033403608152576,-0.04273759164683679,39.48954491862076,43.6531466507213,9.882379824363714
1760514709.7840564,-21.397842445054035,-0.49549922921399103,0.8074895764837097,-0.08915272306598629,42.66990379038273,46.239680714476954,11.272444724291836
1760514709.794065,-21.34797185321507,-0.48777537533066895,0.8165742582882252,-0.1369592851769823,46.5347378679151,48.91148374441778,13.246919701276816
1760514709.8041258,-21.265550188316485,-0.4786559753926032,0.832240472032748,-0.183686296818026,50.99053038818186,51.44926976683556,15.88598319467262
1760514709.8141017,-21.142254011273046,-0.46978234298787525,0.8558575123172821,-0.22617966418240076,55.88335902795172,53.61507550648017,19.226031232804065
1760514709.824306,-20.96995660868472,-0.4622920659125634,0.888225801912091,-0.26086595157057707,60.9963258128592,55.16488542000663,23.239176913522194
1760514709.8340635,-20.741342003417,-0.4566398570087771,0.9293061247969292,-0.28419596907039774,66.05121474538586,55.8639356255425,27.818079041083383
1760514709.844081,-20.45070422648867,-0.45253498971531186,0.9780185189902525,-0.29322356684583084,70.71704672215566,55.5062678171266,32.76992433351816
1760514709.8541298,-20.094850627860747,-0.44899661543871877,1.03215594525485,-0.2862283398234962,74.62781064080531,53.93868700018029,37.82234168256392
1760514709.864071,-19.673990784444015,-0.4445228485755562,1.0884446239691836,-0.26325642750543854,77.41036172124278,51.08713362046393,42.64227845533041
1760514709.8740716,-19.192476895492106,-0.43736165450563497,1.1427635040162916,-0.22644310933833603,78.72134488465724,46.98107715680612,46.866616087212606
1760514709.8840637,-18.65926648741133,-0.4258568976813918,1.1905161692585824,-0.18000384358180016,78.28939154692353,41.76956010084543,50.14100471406949
1760514709.8941073,-18.087999025278695,-0.40882483065410147,1.2271297407448398,-0.1298387089791876,75.95642311346353,35.72193288480984,52.161626648102526
1760514709.9041011,-17.496609729391178,-0.38589964605651994,1.2486316415915155,-0.08278049249861724,71.71051153696256,29.208094127483136,52.7137778567558
1760514709.9142005,-16.906442202689497,-0.357774202831494,1.2522263201691075,-0.045608752351919524,65.7031359775641,22.65749397336009,51.70145501935085
1760514709.9241729,-16.34086262186824,-0.3262574401240777,1.2367705279298076,-0.024018313419523644,58.24604765446809,16.502272467673922,49.16351781141174
1760514709.934065,-15.823420925538278,-0.294082815967419,1.2030437818649093,-0.021740532810309902,49.78668757530393,11.11548683827022,45.27420759947866
1760514709.944082,-15.375652959672632,-0.2644467383094076,1.1537419489579623,-0.03996977800613303,40.86499987197852,6.758083443913486,40.32833616758473
1760514709.9543285,-15.014682167847287,-0.24033809766555708,1.0931807898375128,-0.07717791033073218,32.05752415208889,3.5468717131412397,34.71365949297389
1760514709.9643142,-14.750868655673148,-0.2238166045142202,1.0267588026321608,-0.12933380076070167,23.916454326108816,1.4506423157085933,28.874279861769086
1760514709.9740765,-14.585856007408148,-0.2154549655986255,0.9602716193909903,-0.19048554877780982,16.911993789967422,0.3143357148012521,23.26923060785619
1760514709.9840872,-14.511434593200997,-0.2141286052937543,0.8991874357918016,-0.25360713231671134,11.38589606816726,-0.09591378580366283,18.330073758360832
1760514709.9941053,-14.509605118498419,-0.2172208062405874,0.8479904696655057,-0.3115692682113753,7.522462074210288,-0.03860289083478351,14.42101156666918
1760514710.0041015,-14.554049140143782,-0.22117404099510446,0.8096836933540444,-0.3580799320460072,5.340450142234795,0.25399050988106436,11.805000409948827
1760514710.0141897,-14.612928346149884,-0.2222280349174727,0.785517124870203,-0.3884547164660746,4.705784147679785,0.6135345705254694,10.619403678374093
1760514710.0241206,-14.652634483868425,-0.21716446302705278,0.7749762176898782,-0.4001143031122663,5.361530518885201,0.9547657268619993,10.864279625207649
1760514710.0340636,-14.641896182466215,-0.2039089824691235,0.7760272505424675,-0.39275944727741957,6.969245239673215,1.2749437891385325,12.40513717893394
1760514710.044091,-14.55557963046209,-0.18189631198545658,0.7855751604518273,-0.3682341131250674,9.154853436845716,1.6363412554422876,14.990067098203019
1760514710.0543242,-14.377605256779578,-0.15216365113167382,0.8000509294643334,-0.3301397072055435,11.552579230363781,2.1372439744161777,18.27909632334565
1760514710.0640857,-14.102601930908595,-0.11718930766254267,0.8160210731980899,-0.28329310444910133,13.841709736693534,2.878427010688754,21.88196486488409
1760514710.074078,-13.736165714067832,-0.08052794506457875,0.8307092714506741,-0.23312304769452158,15.772752123040114,3.932047857355754,25.399592084114857
1760514710.0840714,-13.293811212078905,-0.046306103009097675,0.8423409069445307,-0.18507947326024232,17.18147111987467,5.318492897663507,28.464336364899577
1760514710.0940819,-12.798851383399935,-0.018636131787473736,0.8502595706604419,-0.14410161006301977,17.99107246105643,6.994497872027918,30.774668843358885
1760514710.1040757,-12.279510338470937,-0.0010020495949059538,0.8548112654794766,-0.11416788669024153,18.204199646059667,8.853612471506187,32.12090913400631
1760514710.1140878,-11.765598582483976,0.004313151792847074,0.8570387745970982,-0.09794326468238668,17.887341178338456,10.73824692214495,32.39997325915446
1760514710.1241045,-11.285103573360887,-0.0033434049855047645,0.8582706972985983,-0.09654823753739071,17.150744171100957,12.461036405972298,31.618409954807507
1760514710.1342235,-10.86107977213444,-0.022825480704242226,0.8597194877155528,-0.10948837857924308,16.127078716691035,13.831891269688569,29.88419381692138
1760514710.144055,-10.509228630848323,-0.05135384636868804,0.8622007540024589,-0.13478297580772114,14.951880120282594,14.686089616850461,27.38878102384972
1760514710.1540673,-10.23649457265414,-0.0849979944286913,0.866035573442361,-0.16929763365192585,13.748114342874645,14.908610861085236,24.381826234063663
1760514710.1640952,-10.040854308593175,-0.1193566210307838,0.8711193300892428,-0.20922837864298446,12.616100013479613,14.450787606203772,21.141638188540387
1760514710.174351,-9.912278772571394,-0.15027332712527208,0.8770848903747765,-0.2506404964460219,11.62879068945508,13.336949456755034,17.944792402574958
1760514710.1841574,-9.834656801948501,-0.17443881555166046,0.883481363776411,-0.2899612751494479,10.831483590332091,11.660575554207362,15.038243872143221
1760514710.194201,-9.78833248690734,-0.18978246442413305,0.8899147103735334,-0.32435550869163615,10.244578400917822,9.571218016984055,12.616811317179323
1760514710.2042325,-9.75284501604686,-0.1956164525075092,0.8961254460770659,-0.3519511652981002,9.867993797923617,7.2548255740196295,10.808132572859588
1760514710.214198,-9.70947240022626,-0.1925481316902687,0.9020009032816177,-0.37191250313141294,9.686085760608968,4.910824237586235,9.666225258719091
1760514710.224095,-9.643255657593532,-0.1822133640561966,0.9075352172625369,-0.384375985594627,9.672256808776387,2.7293108387682805,9.17371961298102
1760514710.2340887,-9.544294556298746,-0.1669022183481195,0.9127596952168876,-0.3902746679598831,9.792806177660298,0.8711588528081367,9.251777288275798
1760514710.244083,-9.408233169432433,-0.14915011616020088,0.9176686349755154,-0.39108339957730315,10.009884486654997,-0.5469835916138475,9.775826896234312
1760514710.254122,-9.235971700504418,-0.13135727945511866,0.9221615647718959,-0.388522116519821,10.283644321602717,-1.4616838119630444,10.594673954334024
1760514710.2641,-9.032737446421933,-0.11548329589264557,0.9260148754957888,-0.38425767683450324,10.573813630724022,-1.8653710749647459,11.550348903834898
1760514710.2740862,-8.806715647326726,-0.10284604429253438,0.9288872567718972,-0.3796448987427862,10.840979979842748,-1.802970707917379,12.496236287893304
1760514710.284083,-8.567476195224428,-0.09403694882835431,0.9303566386997951,-0.37554304646915676,11.047879670000203,-1.3633749087770004,13.311519567637138
1760514710.294083,-8.324432766271729,-0.08894831706580998,0.9299819806828363,-0.37223383881163363,11.160942268654214,-0.6669752155260713,13.910682743908547
1760514710.304112,-8.085538444086316,-0.08689419514094725,0.9273803598653718,-0.3694516107463937,11.152246753838297,0.14927504637192074,14.24761345062201
1760514710.314109,-7.85636279805022,-0.08679524183537857,0.9223077143357092,-0.36651802123185784,11.001902436136795,0.9476824430926778,14.314619772424354
1760514710.3242002,-7.639621724964728,-0.08739265955934382,0.9147306017335364,-0.36255617831638,10.700686827331918,1.6049353745872095,14.137280100672958
1760514710.334165,-7.435158440856563,-0.08745748561930541,0.9048771260246156,-0.35674524184644435,10.252575127028368,2.025051704207294,13.76641331316466
1760514710.3442047,-7.240314985940611,-0.08596848383046532,0.8932578020792004,-0.34856845423396504,9.67661720036556,2.1488770530864167,13.268570896466704
1760514710.3541179,-7.050595151150344,-0.08224147989957163,0.880650682395242,-0.3380066116073659,9.007506807587262,1.9591434045399705,12.716347195311345
1760514710.3641067,-6.860501652227035,-0.07600215216455922,0.868048593402195,-0.32563609715787317,8.294198908417965,1.4804790608869587,12.179542059705787
1760514710.3752627,-6.664428269325828,-0.06740130006258874,0.8565697563222945,-0.3126054135719995,7.596111293475996,0.7742454934389138,11.717877956799935
1760514710.38478,-6.457496173878296,-0.056976401741080915,0.8473372727703186,-0.30048551608594365,6.976829421864164,-0.07134511315308771,11.375665366625244
1760514710.3941276,-6.236239124148328,-0.04556705500348358,0.8413393511550986,-0.291016560333411,6.495825523114946,-0.9547139943591741,11.178594986858027
1760514710.4041154,-5.999064671348021,-0.03419644866243506,0.8392916505188696,-0.28580529780155195,6.199433329221522,-1.7761642510403608,11.132721128698302
1760514710.4141262,-5.746450641678194,-0.023936628293416733,0.8415323349112475,-0.2860523924068371,6.112946630196355,-2.452441143148304,11.225618025154247
1760514710.4242573,-5.4808769866960745,-0.01577868823820325,0.8479793807670403,-0.29238483091734446,6.2358384463688035,-2.9279907130776226,11.429530754290107
1760514710.4342053,-5.206532847145667,-0.010525652299805024,0.8581611217816087,-0.30482427626751063,6.541458704448091,-3.1809098304149854,11.706066985596438
1760514710.4441056,-4.928863828415733,-0.008716163996449922,0.8713038268010126,-0.32286357157604545,6.981348830305935,-3.22285336947611,12.011690999134032
