timestamp,angle,linear_acceleration_x,linear_acceleration_y,linear_acceleration_z,angular_velocity_x,angular_velocity_y,angular_velocity_z
1761285233.8343842,-26.844198841468337,-0.1233799437972949,0.6382136590581838,0.032676567917980424,55.86433152890032,-77.35550094692105,25.51686733879524
1761285233.8444283,-26.47122984408184,-0.15217783107230973,0.6855280492435699,0.03221650307732417,63.308850666923185,-67.38114006135731,28.37277729706747
1761285233.8545542,-26.080625026597904,-0.20596157394822157,0.7518851534867664,0.02843728666623715,70.12964499585168,-55.47743740524358,30.3985154653235
1761285233.8649704,-25.684187681596605,-0.2793867664548915,0.8356497077609641,0.021757013978455184,75.88400028572902,-42.65089568624638,31.706864281154072
1761285233.8744228,-25.289962427325772,-0.36394502478303975,0.933272384355569,0.012794814267336137,80.16993533310654,-30.014668377435758,32.465163713069046
1761285233.8846796,-24.90145765904456,-0.44856102734605907,1.039309704284198,0.002251894617579967,82.66175944160308,-18.673643414397738,32.88265143767747
1761285233.894414,-24.517304465538494,-0.5206687576970752,1.1466995307371508,-0.009263162190718264,83.14111983730191,-9.599474405445076,33.19383177639508
1761285233.9048004,-24.131442464164326,-0.5677615939835082,1.2473361777900576,-0.021451248765729285,81.52129453022323,-3.5093651681273976,33.63910512105612
1761285233.9145415,-23.733881320399654,-0.5792841021387474,1.332952399572413,-0.03453252858538057,77.8627183265434,-0.7655343305997656,34.443715092647516
1761285233.9243963,-23.312011185907046,-0.5485719625113548,1.3962399690165106,-0.049360439498603,72.37745676976402,-1.3135703220341663,35.79605552869778
1761285233.9344501,-22.852335906522654,-0.4744154359884452,1.4320272568391912,-0.06734047469701139,65.41973967535186,-4.675476439579435,37.8267782791448
1761285233.9443984,-22.3424065053088,-0.36180033473786155,1.4382230964233553,-0.09010580029150199,57.45968965282129,-10.005806412196552,40.59088604014062
1761285233.9543912,-21.77266947258644,-0.2215162488094959,1.416214561403756,-0.11900873850977475,49.03933090275081,-16.207401459218495,44.055729981011694
1761285233.9649656,-21.13793616025572,-0.06859866285090285,1.3705374955281606,-0.15458991738255948,40.71420911422531,-22.08966320774598,48.09804971961795
1761285233.974395,-20.438235832156494,0.0800958779796817,1.3078879462812645,-0.19621596432297256,32.98902818237337,-26.541449692342812,52.51235727041025
1761285233.984388,-19.678930820048123,0.20862555266654045,1.2357769950725117,-0.2420139312616546,26.259045436828252,-28.686680487247337,57.03087682948183
1761285233.9943836,-18.87012116871696,0.30438589310474773,1.1612236817119903,-0.2891195470831322,20.768731999636834,-27.995119978954865,61.35246668614653
1761285234.004454,-18.02550441820657,0.3597342681055704,1.089803561347587,-0.33415565908192013,16.595399676705057,-24.33170749520943,65.1756334224107
1761285234.0144753,-17.160944836588083,0.3725904168741267,1.0251956999301164,-0.3738012527597888,13.659608086159343,-17.941324287710888,68.2298867303251
1761285234.024414,-16.293029669695542,0.3460465889520817,0.9691989436360694,-0.40530758580575527,11.758210021854484,-9.37824531600675,70.30047783968406
1761285234.034431,-15.437853612786066,0.2872055810082027,0.9220812557492554,-0.4268567206407293,10.611590972610875,0.6017219863873497,71.24356275038927
1761285234.0445063,-14.610191829761195,0.20556208747670818,0.8830927500845468,-0.4377183695047861,9.914943831072897,11.164192868646358,70.99134351547202
1761285234.0544,-13.823113742121324,0.11127102502055955,0.8509937066407413,-0.4382189537741524,9.384313507909246,21.51218064133954,69.54903074742093
1761285234.0643866,-13.087975187872269,0.013622260021150962,0.824496875641524,-0.4295739566613299,8.790941826585462,30.97685220815233,66.98685830823703
1761285234.0744085,-12.414631581020076,-0.08003290601205423,0.8025748632184592,-0.41364463952305996,7.981037614441597,39.071501405114915,63.430488075507206
1761285234.0844204,-11.811666307738777,-0.16477876333883182,0.7846228117587418,-0.392668310080838,6.8813708472598805,45.505502443498415,59.05209759615523
1761285234.0943897,-11.286442787604818,-0.23807474138973939,0.7704900413600458,-0.3689911802637287,5.493275908812947,50.16329962964603,54.062806785410935
1761285234.104406,-10.84486066171559,-0.29928086413708777,0.7604060271656501,-0.34481852864412954,3.8785579083304613,53.05995571401457,48.70556558894454
1761285234.114418,-10.49080209132028,-0.348978773932806,0.7548317916461468,-0.3219945486176584,2.1407497453964535,54.2880446871778,43.246733952899675
1761285234.125669,-10.225360677054184,-0.3882937346266455,0.7542706300069426,-0.30183032656368736,0.4046839505818221,53.9701718268265,37.96459151496221
1761285234.1344588,-10.04602530724054,-0.41836602343267276,0.7590721480426917,-0.2850040618443065,-1.2031897027915013,52.227546973389586,33.133869430742
1761285234.1444051,-9.94602823689956,-0.44004315826571505,0.7692600982627172,-0.2715547107254916,-2.571766827772721,49.169091163842225,29.006795861259064
1761285234.1544247,-9.91405659900963,-0.4537950600203019,0.7844082498127977,-0.26097553291889497,-3.61800139058144,44.899253929913954,25.79262959807507
1761285234.1644802,-9.934473653838516,-0.45980495254488674,0.8035818150510323,-0.25239164142514764,-4.294366823470384,39.53775150928889,23.63874991371506
1761285234.1744392,-9.988110104486923,-0.45816085408835444,0.8253562686860254,-0.24478522405119912,-4.590709773489674,33.241959222843526,22.61670577202463
1761285234.1844249,-10.053580141534079,-0.44906398617006815,0.8479195382043716,-0.23722257139346076,-4.530869353106079,26.223005144577716,22.716045874754478
1761285234.1945112,-10.108968652203501,-0.4329789577001921,0.8692543798391454,-0.22904107925618628,-4.165143774611207,18.749200847939523,23.84739657888373
1761285234.204482,-10.133647243844907,-0.4106733135156059,0.8873838109347533,-0.21996845848409036,-3.560233123555874,11.134321052701962,25.85451644775335
1761285234.2144241,-10.109932787188997,-0.3831282225564199,0.900646894835838,-0.21016437980483196,-2.788547956021653,3.7123612070490157,28.533374096792045
1761285234.2244263,-10.024324084780769,-0.35134408452992144,0.9079609352738162,-0.2001911861888629,-1.9187021681534475,-3.1961008365917345,31.65502114601882
1761285234.2344306,-9.86814511045642,-0.3161070648951908,0.9090235474355796,-0.19093217901289436,-1.0086343824799795,-9.318587545596985,34.98839801672522
1761285234.244432,-9.637567248131772,-0.2778107858741751,0.9044154729437897,-0.18348256519871298,-0.10218479057723259,-14.458635820697953,38.31933892574429
1761285234.2544365,-9.333132943495142,-0.2364224980065796,0.895582397382061,-0.17903796053677656,0.7708265806216442,-18.510693728926213,41.46294768936919
1761285234.2643983,-8.95900397631964,-0.19163467354350883,0.8846987471603182,-0.17879599832676196,1.591769016175013,-21.45909399208355,44.268073370907345
1761285234.2744317,-8.522172747800438,-0.14316737447551764,0.874439808652363,-0.18386968158069225,2.3489255373118914,-23.362314020349334,46.61449977078995
1761285234.2844353,-8.031808377838276,-0.09112278982407794,0.8676995023399181,-0.19519509255133008,3.0331529475137144,-24.32713606089332,48.40517277498949
1761285234.2944124,-7.498800693556614,-0.03627354569657854,0.8672866507953004,-0.21341133943781504,3.6343909614064667,-24.4788929150428,49.556815915082915
1761285234.3044066,-6.935465149529572,0.0198051096936038,0.8756212170200226,-0.2387014074353942,4.139194022932407,-23.933628710602523,49.99232903457629
1761285234.314453,-6.355315807859109,0.07479333472765735,0.8944462169121951,-0.2706040300300626,4.528905792493002,-22.77650162878887,49.637464148139294
1761285234.3245063,-5.772808810194654,0.12585446264857145,0.9245766443197126,-0.3078296376062354,4.7780508411886355,-21.049050123906536,48.4227682868555
1761285234.3344147,-5.202989786869303,0.16997818057172434,0.965719048681131,-0.348130867215381,4.8529267500603925,-18.74653044491062,46.29016439503081
1761285234.3444505,-4.661023425914373,0.20437429944313823,1.0164030856774857,-0.38828606530111853,4.710902464922458,-15.825344280163742,43.20225322533799
1761285234.3544767,-4.161625556076078,0.22685550772523685,1.0740590439038407,-0.4242486297047862,4.301224638192206,-12.219318764731742,39.1517399198667
1761285234.364424,-3.718449133784594,0.2361540842549433,1.1352499941820664,-0.45149171477892813,3.5680404982963645,-7.86219821776762,34.16841030593607
1761285234.37442,-3.3434924251115437,0.2321247447376949,1.1960322177749334,-0.4655369064329621,2.4558876361238573,-2.712457555332279,28.321747200233343
1761285234.3844326,-3.0466002808225268,0.21579751914559023,1.2523893514191267,-0.4626056716202656,0.9172487110931099,3.2240814089459824,21.718395767888595
1761285234.3944275,-2.8351191961472284,0.1892646907509078,1.3006744363825078,-0.44028922225974865,-1.0788266734373937,9.878054537482129,14.494937681647416
1761285234.4045212,-2.7137460500909736,0.15541315914262913,1.3379950719393683,-0.39810961571210807,-3.538380693064805,17.10979814597317,6.807464899725587
1761285234.4154408,-2.684581627430506,0.11754238216143606,1.3624823960301398,-0.3378476232533726,-6.4359362813306955,24.71321001786434,-1.1799698824366838
1761285234.4244266,-2.7473673904332805,0.0789317623565156,1.3733986821103736,-0.2635408106005133,-9.711045400588429,32.42939722529391,-9.305873447736724
1761285234.4344475,-2.8998541282122763,0.04243402758718983,1.3710699411936593,-0.18110737676248037,-13.269316701198536,39.96760603612003,-17.419052192009534
1761285234.4444406,-3.138231544103142,0.010167035461141302,1.35667380989578,-0.09762294012919061,-16.988860529062137,47.02998252824223,-25.38259534807697
1761285234.4544704,-3.4575439989838683,-0.01664670431403422,1.331948036035597,-0.020355899685252237,-20.73218919700436,53.33661373170913,-33.07411429413208
1761285234.4644284,-3.8520309294358266,-0.03767914068176772,1.298894100472583,0.04426761610981277,-24.36220872501868,58.647856655862576,-40.38325331709812
1761285234.4744353,-4.315357364593534,-0.053355984487878524,1.2595351035134064,0.091568355063198,-27.759469913044864,62.78177222277688,-47.20822490560406
1761285234.4844558,-4.840733039823681,-0.06462233486261851,1.2157589502104882,0.11920891663552168,-30.836974673591428,65.62522859883033,-53.453344325676284
1761285234.4944289,-5.420949580482911,-0.07267203051846231,1.16924865981092,0.1273707789718026,-33.54902959114204,67.1379430563898,-59.029190462259166
1761285234.5044188,-6.048387278411122,-0.07869726318626932,1.1214803120992116,0.11850298439137638,-35.8918908555005,67.34959316990901,-63.856230280000254
1761285234.5144064,-6.715051018921793,-0.08370313291374655,1.0737606523332568,0.09672673300668047,-37.895843167463866,66.35116959500114,-67.87168484603185
1761285234.5244849,-7.412686141857809,-0.0884115262795167,1.0272776642150332,0.06704539065731072,-39.61036601510907,64.2826708391449,-71.03829703919642
1761285234.5344164,-8.13300069996833,-0.09325517741079382,0.9831410415276794,0.03453081967002204,-41.085648819323396,61.319613837869,-73.35279862325906
1761285234.5444152,-8.86798686619578,-0.09844145346906868,0.9423934973227125,0.0036348883371300172,-42.35447959569662,57.66038957945321,-74.85159716724598
1761285234.5544393,-9.610300704709038,-0.10405086381953624,0.9059827146888304,-0.022277553243093492,-43.41823729507432,53.51540853180305,-75.6116592249388
1761285234.5644176,-10.353636369269763,-0.11013237261571449,0.8746987221682866,-0.04114141033397525,-44.23954759064717,49.097822850876405,-75.74563388547715
1761285234.5744581,-11.093025606495122,-0.1167683978333821,0.8490965963178281,-0.05217190415001622,-44.74261581007545,44.61496672315759,-75.39162415545773
1761285234.5844738,-11.825007883088752,-0.12410158220062924,0.8294322213636445,-0.05567013471459483,-44.82083921355695,40.25974878629334,-74.69927578600321
1761285234.5944836,-12.54764528942707,-0.1323331100169182,0.8156355720811235,-0.052725800195954874,-44.350288574373984,36.20183267224135,-73.81465339436517
1761285234.604475,-13.26039007455868,-0.14171125106905075,0.8073327344081767,-0.04488878416715309,-43.207043918625025,32.57909623443246,-72.86651771331003
1761285234.6144254,-13.963841214490797,-0.15252662273567183,0.8039105063509077,-0.03386898445495995,-41.286066730498504,29.490204014659277,-71.9561366720743
1761285234.6244583,-14.65944203383747,-0.1651191263695051,0.8046039055524365,-0.02130338600107376,-38.51920097371026,26.989045188908353,-71.1518490024541
1761285234.6344404,-15.349170106223701,-0.17988665437363893,0.8085829594340859,-0.008607216762311406,-34.889991447973884,25.081389674404427,-70.48850601656814
1761285234.6444511,-16.035255405729806,-0.19727562229434045,0.8150212782966654,0.003092710708181095,-30.44332321577335,23.723661708747994,-69.97090786539148
1761285234.6544626,-16.719939484663563,-0.21773330883537248,0.8231401167358481,0.012958580229618426,-25.288469760835717,22.823512588429445,-69.57965678489423
1761285234.6644156,-17.405265670790318,-0.2416115977997578,0.8322307063340771,0.020402347702747604,-19.59497525159095,22.24202601627763,-69.2776084529824
1761285234.6744277,-18.092875054731778,-0.2690270243627593,0.8416608461551379,0.025037382408328764,-13.581750727829045,21.79780121198871,-69.01531416579378
1761285234.684467,-18.783779344151245,-0.29969806632570484,0.8508708435359956,0.026647382869978944,-7.500631820585378,21.273568011575392,-68.73440036083367
1761285234.6944501,-19.478090048436083,-0.3327933454569173,0.8593624886618687,0.025186115117746145,-1.6162700565996744,20.426149672435752,-68.36856729645507
1761285234.704461,-20.1747019270644,-0.3668313823071459,0.8666845926193886,0.02080460999816124,3.815466760819781,19.000390806767477,-67.84264354318636
1761285234.7144277,-20.87095337257403,-0.39967220103997003,0.8724195653670317,0.013888195306911478,8.568438921221814,16.74714133444445,-67.07076783215173
1761285234.724466,-21.56231187937565,-0.4286314860723913,0.876176224958779,0.005079655459993822,12.464667135473183,13.444652352413069,-65.95516885726587
1761285234.7344592,-22.24215196106454,-0.4507274673424452,0.8775928400420105,-0.004731252100461898,15.38882078067343,8.921944907075417,-64.38708013473506
1761285234.7444508,-22.901698939346655,-0.4630410320176343,0.8763510772795033,-0.014460595830477914,17.297794906414584,3.082008359864902,-62.251011845217626
1761285234.7544885,-23.530201099265586,-0.4631382199333043,0.8721976827094396,-0.02292166093119837,18.224854130054805,-4.077790060449033,-59.432955064792786
1761285234.7645242,-24.11536612674544,-0.4494819756166817,0.8649679737326663,-0.028942512863259395,18.278191724870624,-12.450848297274444,-55.832265824120405
1761285234.7744186,-24.644061543141536,-0.42175569807552604,0.8546041640205656,-0.03149369820764001,17.634016698915094,-21.81454900297485,-51.37615020422833
1761285234.7844253,-25.103240984771368,-0.3810377264772559,0.8411627114283982,-0.029809941545412093,16.524459202384485,-31.833422916239655,-46.035005604225645
1761285234.794516,-25.481025353802334,-0.32979788196231535,0.8248085344612095,-0.023491080641666485,15.220736643999587,-42.07305799678858,-39.836478932818146
1761285234.8044534,-25.767843561009137,-0.2717218028315878,0.805798859792091,-0.012569553034770198,14.012238350710703,-52.02421689691579,-32.876015091019156
1761285234.8144863,-25.957521960434942,-0.21139375209846456,0.7844635686724413,0.0024650431104148176,13.182544526015404,-61.13533722560858,-25.3218339101281
1761285234.8244343,-26.048203608455225,-0.15388008069881237,0.7611908686632803,0.020688879487256926,12.98390792727025,-68.85072261833307,-17.4126275220595
1761285234.8344572,-26.04297872790893,-0.10425808338556869,0.7364264934400168,0.04081268734529135,13.612309446895386,-74.65141581866693,-9.446837067305912
1761285234.8444276,-25.950119043566726,-0.06713458895192248,0.7106920234992329,0.06128861012108824,15.185694599798698,-78.09580183097842,-1.7632042892372317
1761285234.854499,-25.782834404590165,-0.04619873210854805,0.6846250883006745,0.08044270538488513,17.72824640536293,-78.85717608725776,5.286619377497123
1761285234.8644583,-25.558512508914088,-0.04385470660030714,0.6590420983218201,0.09661856164229778,21.16344301013881,-76.75570676016075,11.37137919515687
1761285234.8744645,-25.29746073047923,-0.06098030918932444,0.6350213527397821,0.10831763013540115,25.318104167185133,-71.78241161355481,16.21615250691428
1761285234.8844562,-25.021237316708984,-0.09684997230798512,0.6139986098668274,0.11432327662523883,29.938541320668467,-64.11298235051122,19.63655175473516
1761285234.8944366,-24.75072713714495,-0.1492419464248878,0.5978568523788127,0.11379740734797725,34.71821958349286,-54.10953857006465,21.566180916317613
1761285234.9044926,-24.504171882027276,-0.21471929304325726,0.5889770250995104,0.10634057275869804,39.33416268929832,-42.30874234222691,22.072372418791463
1761285234.9144564,-24.295393591813976,-0.28903983864027966,0.5902016223205796,0.09201042723583833,43.487147020111124,-29.395348775066964,21.356229889147542
1761285234.9244623,-24.132443997496914,-0.3676192721928216,0.6046582410408736,0.07130294566218573,46.93917359288031,-16.161433545114313,19.73502068813243
1761285234.934447,-24.01686649002395,-0.44595231942079133,0.6354052010166568,0.045115216558872136,49.5413130615979,-3.453207475306466,17.607725993088096
1761285234.944442,-23.943676944244558,-0.5198986045964517,0.6848984352464014,0.014717087151126663,51.2460891762245,7.890906264689491,15.407553647532726
1761285234.9544392,-23.902066893334503,-0.5857705317227768,0.7543321469038295,-0.018253604527147547,52.101211904354315,17.10599370684548,13.54789124829012
1761285234.9644485,-23.876726016299507,-0.6402211794579504,0.8429634092995321,-0.051793761777310675,52.22552588355833,23.564798218176765,12.37001725619677
1761285234.974436,-23.849590138581764,-0.6800082683899225,0.9475779108239001,-0.08359661153565473,51.772693827860536,26.83509260372822,12.101437315660649
1761285234.9844277,-23.801763749747757,-0.7017785900893067,1.0622747269978092,-0.11124107874914685,50.89182018555302,26.725375651177607,12.832551129497578
1761285234.9944232,-23.715355595741176,-0.7020438818548692,1.1787276116176624,-0.13253518855153013,49.69529783765807,23.314232125141416,14.516287317128878
1761285235.0044441,-23.57500605895172,-0.6774838235508488,1.2870065381368,-0.14596258081297817,48.241980110006836,16.958988519091175,16.99076095813975
1761285235.0145428,-23.36896611222242,-0.6256143953329545,1.3769129533306375,-0.15111253706674557,46.539099637277175,8.279865501043778,20.019986907238295
1761285235.02444,-23.089686934185636,-0.5457174508650388,1.4396164634444943,-0.1489521603337007,44.56082157210615,-1.8829708874411701,23.3435798445416
1761285235.034445,-22.733968050565682,-0.4397776223579208,1.4692358229408977,-0.14183270957795457,42.27665605927986,-12.539687808660569,26.724329983193623
1761285235.0445495,-22.302766604543276,-0.313079564450713,1.46395747209837,-0.13318939510188202,39.680437049588505,-22.644711496281907,29.98326391281123
1761285235.0544577,-21.800782292080623,-0.17415235595399778,1.4263761574379192,-0.12696959106246983,36.81080424675574,-31.20546683344401,33.01536827729179
1761285235.0645373,-21.235909326812013,-0.03393151761422156,1.362955252810844,-0.12689581571594322,33.75698333861903,-37.39197606903497,35.784722893854706
1761285235.0744524,-20.618606682562305,0.09572422369007882,1.2827594372523714,-0.135727004378492,30.648329686576144,-40.63029191474293,38.30359693154401
1761285235.0844383,-19.96120083907427,0.20380333734552847,1.1958058929101956,-0.15470252205260845,27.631159643544915,-40.66358894199967,40.60409578658163
1761285235.0944328,-19.27711709659948,0.28176638282019856,1.1114397769753994,-0.18331472230016047,24.840163548842288,-37.57005946601909,42.71185844090968
1761285235.1044774,-18.58004421726584,0.3246733159127669,1.037065721445197,-0.21946121307787525,22.37292474929961,-31.73526452002301,44.62901575997376
1761285235.1145742,-17.88306870465123,0.33163380501389134,0.977419821226784,-0.25991598608175664,20.274515963419994,-23.785639967327864,46.32935064424756
1761285235.124468,-17.19785131475497,0.30558743024797796,0.9344135220156791,-0.3009759127520182,18.53557939106893,-14.496671146177711,47.76426085314614
1761285235.1344929,-16.533936345823633,0.2525608275056216,0.9074625746097529,-0.3391109287825974,17.103064005925255,-4.69214038885142,48.875321537482115
1761285235.144468,-15.898273382008888,0.180614967511455,0.8941446323077109,-0.3714721322510355,15.899282156350505,4.850202108172201,49.608547456683134
1761285235.154466,-15.29499979161611,0.09869350202856392,0.8910048108010007,-0.3961751711310462,14.843154465942975,13.474953603140293,49.92641964525244
1761285235.1644685,-14.725495712992894,0.015539209618741485,0.8943387401603984,-0.4123511031067157,13.86777710097179,20.700620317531786,49.815489546613236
1761285235.17449,-14.188690525718993,-0.06120979852112534,0.900818841239279,-0.4200178444071624,12.930421154303767,26.244300002887606,49.28911706616132
1761285235.1845696,-13.681572231909545,-0.1256777503383249,0.9078857341445502,-0.4198557585551752,12.013899535174133,30.021002235126442,48.38613124441353
1761285235.1944396,-13.199828410640082,-0.1741265459888336,0.9138913695318444,-0.4129678515317026,11.120879008909043,32.121660404178776,47.16672910589709
1761285235.204444,-12.738532001067668,-0.20503812231388496,0.9180365331487128,-0.40067841123454373,10.264366113907458,32.77552130413998,45.7068600265482
1761285235.2144527,-12.292782049591809,-0.21892555858981866,0.9201789157434771,-0.3843903679770591,9.457934421741712,32.303493300803204,44.09198844944564
1761285235.224453,-11.858221964809212,-0.21793114294399737,0.920594475914647,-0.3654955204909327,8.708471445097054,31.06919649428056,42.41078804940023
1761285235.2344701,-11.43138418706891,-0.20529706300269937,0.919758581949113,-0.34531951607856115,8.01281883433349,29.433835931028202,40.749130219719426
1761285235.2444458,-11.00984481820983,-0.1848030031002455,0.9181843403524705,-0.3250834766313084,7.358239183250833,27.719667177016287,39.18466469084225
1761285235.2544658,-10.592207786684302,-0.16025527352633048,0.9163258795349695,-0.30587044918323186,6.725602576308182,26.184971287782112,37.78227660813988
1761285235.2644367,-10.1779691361262,-0.13509065864360123,0.9145341063954351,-0.2885918574795923,6.093748343298463,25.01142913351047,36.590690711742546
1761285235.2745025,-9.767331595509104,-0.11213052348810856,0.9130452500507025,-0.27395452825836064,5.4436155409297315,24.30289381994754,35.640450988522566
1761285235.2847261,-9.361041184447656,-0.09348970376230539,0.9119856142532936,-0.26243276847314506,4.761246418899436,24.093066756973887,34.94341764965033
1761285235.2944763,-8.960297725477576,-0.08061379252281785,0.9113833878442322,-0.2542522793960247,4.039370210388463,24.35870122404463,34.49379040898682
1761285235.3045542,-8.566753777477347,-0.07439433890315872,0.9111843561996849,-0.2493923401858393,3.27773884410834,25.03480093892393,34.27050619122914
1761285235.314498,-8.182573480111405,-0.07530144885721936,0.9112700026254109,-0.24760899796766447,2.4826118336103034,26.028806830510163,34.24071337806493
1761285235.3245156,-7.81048838112495,-0.08348012518748532,0.9114748714720123,-0.24847603690672032,1.6657952419056734,27.231791873898786,34.36393892940496
1761285235.334478,-7.453772248466493,-0.098777423934618,0.9115988471547353,-0.2514351886217611,0.8435100311827904,28.525964824063074,34.59654907074429
1761285235.344479,-7.116066061829158,-0.12069600750285892,0.9114121378509185,-0.2558455206311399,0.03519444285572084,29.789052652641498,34.89612397507278
1761285235.3544815,-6.8010170516549335,-0.14829881365589237,0.9106559554049019,-0.26102509630706255,-0.7377832312903564,30.897116058416096,35.225373901346245
1761285235.3644888,-6.5117454423051395,-0.18011189028519956,0.9090468249563964,-0.26628388496619215,-1.453562605521418,31.72780344022891,35.55519623578051
1761285235.3744926,-6.250208339730021,-0.21408183506262785,0.9062935803915734,-0.2709526055874439,-2.0913764564022252,32.165800857651135,35.86643204819655
1761285235.3844578,-6.016577836154837,-0.2476370281044718,0.9021325763934712,-0.27441560700976597,-2.6331352421500953,32.11127915361401,36.149893957203716
1761285235.3945007,-5.80877370889707,-0.27787576344228426,0.896380807021675,-0.27615560657336574,-3.0647108690342644,31.49068594506125,36.40440438808938
1761285235.404467,-5.62227552827748,-0.30186202873708745,0.8890018119504927,-0.2758131295408453,-3.376582050981182,30.26774427957702,36.632983589891005
1761285235.4144983,-5.450282243476813,-0.3169662208657135,0.8801768164396616,-0.27325458476793874,-3.563671832737861,28.451633084560033,36.8379075748487
1761285235.424447,-5.284207588174646,-0.3211679413036796,0.8703715508328502,-0.2686342707384872,-3.6245404990707026,26.099547147910084,37.01587951600965
1761285235.4344652,-5.114428016495468,-0.3132552976198332,0.8603852293042531,-0.2624331612504034,-3.5604099574541994,23.312198860255858,37.154719439135164
1761285235.444518,-4.9311614907236905,-0.2928996412130881,0.8513634814492841,-0.25546297391002304,-3.374576155218891,20.22279638935605,37.232615647501426
1761285235.4544709,-4.725356493253785,-0.2606296485657639,0.8447560006724435,-0.24883248529229318,-3.072538024765469,16.981809850014404,37.220194659862486
1761285235.4644706,-4.489498692612257,-0.2177505286358319,0.8422055102210694,-0.2438771503189825,-2.6627763757866103,13.74076684742152,37.08475523178992
1761285235.4744468,-4.218276916897682,-0.16624680141386858,0.8453674376078072,-0.24205135942843503,-2.1578088892210334,10.638169969908477,36.79532460149263
1761285235.484464,-3.909074102433421,-0.10868193485652523,0.8556774146833798,-0.2447800252303534,-1.5750898979945769,7.789633304030625,36.32697208185124
1761285235.4944634,-3.562258644819459,-0.04808317948449081,0.8741023768413215,-0.25326906440649194,-0.9374869576962266,5.283018412504431,35.6631007027909
1761285235.5044537,-3.1812547825854085,0.01221108830045315,0.9009241795817549,-0.26828623099030724,-0.27330303428687774,3.1782324924700958,34.79507910303905
1761285235.5144644,-2.7723795271175677,0.06875721092085714,0.9356058111825556,-0.2899420424857181,0.38402269235867276,1.5107039772249715,33.71930910784136
1761285235.5244606,-2.344455751375353,0.11826164149453412,0.9767769484475585,-0.3175160817383418,0.9963858259031673,0.29734270323291867,32.43241091815602
1761285235.5344954,-1.9082435326561564,0.15786119778301486,1.0223502817482149,-0.3493765082253416,1.521624099076622,-0.45618985259704087,30.925536048307062
1761285235.5447128,-1.4757626465127343,0.18538934681785565,1.069748979756831,-0.3830264788310376,1.914383462432015,-0.7480384703545104,29.17890312333048
1761285235.5544784,-1.0595938723139635,0.19958622219993014,1.1161987430512148,-0.41528595049862,2.127461132316743,-0.5736975937480473,27.157573964776795
1761285235.5644648,-0.6722381951779538,0.20021806582019772,1.1590266322793723,-0.4425916055269602,2.113800956909018,0.07829964416004791,24.809334495191216
1761285235.5761645,-0.3255864762079317,0.18808919460568851,1.1959188916645125,-0.461379056025399,1.829124457207553,1.2275309053009231,22.065360686510395
1761285235.5845172,-0.030521349069832344,0.16494976890018573,1.2251140959131401,-0.4685006981478422,1.2349191714160594,2.8990435597049866,18.844111770590235
1761285235.5944989,0.2033511894651562,0.13331683103194714,1.2455296032410255,-0.46162775508565546,0.30131276138334473,5.116944793388576,15.058544597261523
1761285235.6044896,0.3678578131042203,0.09623013005046716,1.2568263092930037,-0.4395866523892371,-0.9906592203302937,7.89509244738495,10.626249205747367
1761285235.6144972,0.4563250535089051,0.05696194987043159,1.2594109980148829,-0.4025877828948949,-2.647736920555696,11.226611969744425,5.481504851828713
1761285235.6245718,0.4635807394283815,0.01869987260722083,1.2543685804503115,-0.35231518146704927,-4.664197551509908,15.074521575300924,-0.4123091392063755
1761285235.634558,0.3859099266321919,-0.015770944372791793,1.243317892021433,-0.2918550915934668,-7.022632176635764,19.36570837362052,-7.051835622593822
1761285235.6444921,0.22098513101826656,-0.04434622485108326,1.2281967807513972,-0.22545076210460832,-9.695559717350582,23.989787553175404,-14.386206937018057
1761285235.6545112,-0.03220682206365694,-0.06579411249578586,1.210999662159087,-0.1580847959030074,-12.647648505445712,28.803246293039937,-22.314184258095054
1761285235.6644948,-0.37341815426966074,-0.0798208695544984,1.193504390386754,-0.09491440225975231,-15.838295188744617,33.63815867282212,-30.686526259532705
1761285235.6757517,-0.8011558813862458,-0.08699849896174694,1.1770301511472698,-0.04062055851740624,-19.224269435069164,38.3139978250225,-39.31328874240907
1761285235.6844714,-1.3126544384516026,-0.08857495055032813,1.1622666575042835,0.0012284942491910457,-22.762034141447177,42.65077430237539,-47.97506958333405
1761285235.6944995,-1.9038167399536374,-0.08621133258418846,1.1492100325637011,0.02867456859326249,-26.40923441002275,46.481834076089065,-56.436926959944834
1761285235.7045345,-2.5691539007068562,-0.08169904521912695,1.1372284621657882,0.04161347804780816,-30.1248220630014,49.66502459524312,-64.46381934832795
1761285235.714537,-3.3017693524242886,-0.0767072008629123,1.1252557464245436,0.041721975296618106,-33.86743709009852,52.091428060063926,-71.83665097691866
1761285235.7249935,-4.093439145479157,-0.07260204058897704,1.112077233086371,0.03207770289792003,-37.592021239568915,53.69131436882558,-78.36801426632302
1761285235.7345161,-4.9348320652788304,-0.07036555925070898,1.0966440374335211,0.016553202992987036,-41.245138777474324,54.43724849064183,-83.91641470211945
1761285235.744484,-5.8158903135738615,-0.07061945269706128,1.0783415219501875,-0.0008862541794667065,-44.760007161014855,54.34432737847082,-88.39736375873254
1761285235.7563558,-6.7263573602868725,-0.07373559603188028,1.05715102053523,-0.016835130078437524,-48.05261909455801,53.46738121735625,-91.78956305317885
1761285235.764717,-7.656400750212848,-0.07999183466224359,1.033673844814115,-0.02892363285806581,-51.02038713326213,51.8948361150771,-94.13469343286023
1761285235.7746108,-8.597244284519135,-0.08971872230712322,1.0090225474015218,-0.03603947421595427,-53.544381197194156,49.738987969272394,-95.53009593213443
1761285235.7844813,-9.541707054478554,-0.10338401415650238,0.9846148358404703,-0.03828230219884744,-55.495533454980794,47.122778394385186,-96.11477311621692
1761285235.7972388,-10.484551362319907,-0.1215790978090275,0.9619224167382759,-0.03669959458359282,-56.74434836436224,44.16380049609895,-96.0504091887268
1761285235.8047202,-11.422565823715777,-0.14490137082225613,0.9422286646267559,-0.03289433364794348,-57.172906301325554,40.957112239238896,-95.50017441910047
1761285235.8145273,-12.354351429008899,-0.173758280059052,0.9264388410501643,-0.02860639367345616,-56.68747402338648,37.55927831625242,-94.60863273581543
1761285235.8244991,-13.279833232468786,-0.20814046173681564,0.9149690342294857,-0.025353650230117365,-55.22993226840662,33.976565087419324,-93.4859300474983
1761285235.8345606,-14.199575906944643,-0.24741876445549782,0.9077195011467641,-0.02418753692332969,-52.786485501620454,30.16010527567401,-92.1986142370224
1761285235.8445065,-15.114019203476065,-0.29021596078451817,0.9041206253758826,-0.025584466698251828,-49.39260355101015,26.010067080621734,-90.76812882604236
1761285235.8544939,-16.022758712511532,-0.33439104861849805,0.9032302793064351,-0.029466549733346073,-45.133676785127776,21.389522609391953,-89.17655324614829
1761285235.8644972,-16.92398017200605,-0.37715210003506755,0.9038604365445204,-0.035323962382473165,-40.14131918695199,16.14702835252521,-87.37785699747447
1761285235.8744826,-17.81412003401881,-0.41528581768115386,0.9047147792406828,-0.04239692529512846,-34.58561238462465,10.145208870705606,-85.31203883499981
1761285235.8845973,-18.687780169367358,-0.4454663405708157,0.9045236148874755,-0.049868105118647005,-28.66388349542419,3.29123453086319,-82.9191837966202
1761285235.8944995,-19.53788018763835,-0.46459162015733363,0.9021658996076752,-0.05701858063423666,-22.586861847691324,-4.435660337287974,-80.15074127775155
1761285235.9044783,-20.35599700607796,-0.47009944105888324,0.8967712253885224,-0.06331443011833754,-16.56326119176814,-12.964334358944535,-76.97615758224563
1761285235.9144695,-21.132825786943766,-0.4602349877187981,0.8877975367547473,-0.06841385701686316,-10.784002556833448,-22.12323022650283,-73.38422838301888
1761285235.9244893,-21.858700665916633,-0.4342641449126655,0.8750814730079715,-0.07210816744531948,-5.4074403542204905,-31.64510478368834,-69.37988978478322
1761285235.9345074,-22.52413142176072,-0.392635482885459,0.8588569502909384,-0.07422628454950767,-0.5470251185076862,-41.184878303993294,-64.97827155195688
1761285235.944479,-23.120332358239253,-0.3370849640863969,0.8397366436182774,-0.07453977635457709,3.73726946825943,-50.348626413631685,-60.198374908294454
1761285235.9544904,-23.639732496549243,-0.27066028038464346,0.8186533181280684,-0.07270317991538415,7.442732454116817,-58.730301466119464,-55.05860520076829
1761285235.9645274,-24.076457392373044,-0.19762933989848908,0.7967628892589573,-0.06825158485376248,10.62229935136601,-65.95180499357024,-49.575714049064054
1761285235.9744968,-24.426764124107745,-0.12323844990767344,0.7753162699422169,-0.060657411589752415,13.377333578569726,-71.7014912740549,-43.76774852490189
1761285235.98447,-24.689398799966042,-0.05330462017855812,0.7555116542237496,-0.049430957271677727,15.845047538859717,-75.76602668753321,-37.66065221724932
1761285235.994512,-24.865839264503414,0.006336847415316341,0.738343423702181,-0.03424251206228327,18.181380351361646,-78.05085475658471,-31.29741302133102
1761285236.0044842,-24.960390911229847,0.05046337053449448,0.7244679220101597,-0.015046190103926512,20.540902401049138,-78.5855301423737,-24.748164076421574
1761285236.0163417,-24.980119753374662,0.07507490356935076,0.7141080058221155,0.0078101655667373576,23.056114269261986,-77.51198638366208,-18.11938276296006
1761285236.0245507,-24.934626559508942,0.07787667489619199,0.7070163084360092,0.03350335218669718,25.819079153342503,-75.05627129620385,-11.560209608800044
1761285236.0345006,-24.835680021265905,0.05855110649315763,0.7025124620684943,0.06069728159496649,28.868410136190942,-71.48717103256887,-5.263827871642363
1761285236.044494,-24.696730642743336,0.018773661310689332,0.6996032807978614,0.08756684002461745,32.1840639068616,-67.06808484246956,0.5381548028109189
1761285236.0545673,-24.532321036116254,-0.03803052747054109,0.6971862625395094,0.11189802551219478,35.69116112394482,-62.01093268057078,5.590042238751921
1761285236.0644903,-24.3573981031944,-0.10715395843947656,0.6943237421758983,0.131269969172642,39.27236583523846,-56.44201250534258,9.635832106790861
1761285236.074497,-24.186526493260065,-0.18323020782541352,0.6905568828952546,0.1433088869846891,42.786622688479376,-50.38882995232025,12.451405517314175
1761285236.0844898,-24.033008479553082,-0.26091907249357127,0.6862077825543119,0.1459864275951287,46.0907398496032,-43.7936130036616,13.881729499080366
1761285236.0944877,-23.907936290231348,-0.33553977497062243,0.6826006514702869,0.13791959481662266,49.059757276300694,-36.55381551880107,13.877283523199207
1761285236.104544,-23.81923563770612,-0.4035331164000542,0.6821278215075769,0.11861988497829953,51.60236865215752,-28.583535966794948,12.522324684886835
1761285236.1149697,-23.770794401569546,-0.46265077218795353,0.6880993584286165,0.0886403929468144,53.6687530993155,-19.884046061261664,10.047634947313583
1761285236.1245134,-23.76179576440121,-0.5118162753368762,0.7043467350935868,0.049586507367158465,55.24970243294866,-10.608044299178918,6.822429530567154
1761285236.134531,-23.786378699056037,-0.5506744096728076,0.7345969655490396,0.003986850392370321,56.36750826151026,-1.101755108589519,3.3238589284869944
1761285236.144493,-23.83372289680742,-0.5789278805662693,0.7816868028900733,-0.044947338133025205,57.060455239346744,8.088191358946288,0.08715988925378249
1761285236.154492,-23.888601132435046,-0.5956298828031099,0.8467386260804385,-0.09363375073531949,57.36396933412304,16.25048506758276,-2.3561629578636767
1761285236.1644797,-23.932372653850386,-0.5986414408309622,0.9284605071757458,-0.1384751657091467,57.29257760918913,22.587352825744148,-3.541926267980842
1761285236.1744945,-23.94432743997268,-0.5844641648271403,1.0227521383674738,-0.17625748715701486,56.82763119583416,26.327193225651683,-3.1279705157205893
1761285236.184532,-23.903251075675673,-0.5486133440159882,1.1227860507601195,-0.20458769910802052,55.91556724155776,26.856310102682354,-0.9312871923911124
1761285236.1945317,-23.78906860305241,-0.4865914148124131,1.219677298742944,-0.2223295459574808,54.47959728885289,23.848671824433158,3.0574251539814603
1761285236.2044694,-23.584433704576703,-0.3953530358197337,1.3037373065081734,-0.22993231770995193,52.44398725587162,17.369235009871453,8.68237075174226
1761285236.214539,-23.27614063552056,-0.27493879434582696,1.3661267968370814,-0.2295112836938676,49.765513118063545,7.9267309922514535,15.650838583345058
1761285236.22454,-22.85624032483956,-0.1297631345017077,1.4005279841165097,-0.2245687850750231,46.46300732677603,-3.5425591908636473,23.574170859481306
1761285236.234592,-22.32274567038174,0.030997613775092275,1.4043550017205504,-0.2193477980989564,42.63485420456461,-15.767018949914902,32.01325804411894
1761285236.244604,-21.67983322422337,0.19424662533937215,1.3791168762083426,-0.21794748861219207,38.45677861523813,-27.298893367943812,40.52099844193904
1761285236.2545333,-20.937502141224254,0.34492625309984537,1.3298363053257465,-0.2234376096247634,34.15803250308243,-36.71475105806893,48.676751103023406
1761285236.2644973,-20.110729684418494,0.4685604368118505,1.2637662609712117,-0.23722633107737207,29.981292833290222,-42.81944026420786,56.1111234681324
1761285236.2744982,-19.21824247198875,0.5536686782092493,1.188850113002464,-0.25885138744061653,26.137258229221235,-44.81335924561206,62.522004920136
1761285236.2845268,-18.28107851381845,0.5934623613686825,1.1123591129067654,-0.2862204368560027,22.766585431112052,-42.39182559752527,67.68372952470443
1761285236.2945018,-17.32113232612752,0.5865313195584702,1.0399772060161148,-0.31619015417231283,19.919051760449243,-35.76243995415062,71.4507982624638
1761285236.3045094,-16.35985456766207,0.5365398038395687,0.9754090796744233,-0.3452941794715527,17.554278538305546,-25.585017899753925,73.75663349408454
1761285236.3147767,-15.41722967385091,0.4511698746783752,0.9204448087613019,-0.3704214479938457,15.56224094206321,-12.8529731071371,74.60736327662457
1761285236.324546,-14.511093899281462,0.3406432323425662,0.8753405365575719,-0.3892948730587915,13.796906808529863,1.2576156052742504,74.071061634289
1761285236.3345284,-13.656794100251044,0.21614127257461388,0.8393547719741414,-0.400680505929963,12.11376096221063,15.544195543769666,72.26390429288841
1761285236.3447843,-12.867132392500217,0.08837521867949696,0.8112963239394242,-0.4043421077873408,10.402060673319186,28.916032527434307,69.33566413436863
1761285236.3545146,-12.152497744961794,-0.03352345354089716,0.7899762691820581,-0.40082071797774393,8.605115951906633,40.498052197783196,65.45727271052186
1761285236.36503,-11.521056630450078,-0.14269707216657299,0.7745001946668187,-0.39114547799877897,6.725789447082405,49.691271677716266,60.81256836306543
1761285236.3748035,-10.978867947301005,-0.23481350191051403,0.7643829274545455,-0.3765675241930146,4.818505357066869,56.18830367258826,55.59499572812721
1761285236.3845198,-10.52981049350201,-0.3079154420334653,0.7595106409312313,-0.35836798725758096,2.972068982006275,59.94904702085186,50.008369606067866
1761285236.394518,-10.175266594834369,-0.3619673474024606,0.7600034186632951,-0.33774787567834214,1.2887308164362623,61.14695674958142,44.269420849262865
1761285236.4045386,-9.913584470590441,-0.3982386479686292,0.7660368714751982,-0.3157796226763522,-0.13572528748431956,60.09955399510006,38.60914796879275
1761285236.4145174,-9.739426561094499,-0.41866714305233954,0.7776687716588244,-0.2933917811610043,-1.2277004814110304,57.19750129457263,33.27020101646609
1761285236.4245896,-9.643180254630828,-0.4253216261545667,0.7946987256501364,-0.2713649106777086,-1.9457921343318187,52.8445153078862,28.49854811577068
1761285236.4345055,-9.610643360592348,-0.42004334039951186,0.8165746179411607,-0.25033027405388736,-2.284821746597846,47.41619166551358,24.529232797391725
1761285236.4445179,-9.623187764428451,-0.40430455499001394,0.8423494422977174,-0.23077538353739047,-2.2744176452900464,41.240571449950245,21.567689179804773
1761285236.4545467,-9.658546000101799,-0.37928104656326245,0.8706848629631678,-0.21306500665087433,-1.973228181566336,34.59820974327435,19.769383352772493
1761285236.4646883,-9.69225955592778,-0.3460912479483479,0.8998957409543734,-0.19748093887701404,-1.460160878569464,27.73561964286817,19.221192862048657
1761285236.4745042,-9.699689389378658,-0.30611422485728695,0.9280339310324035,-0.18427297026092937,-0.8241279996177131,20.883885299318933,19.927857251423745
1761285236.4845831,-9.65834880171603,-0.26127608852822104,0.9530139270775326,-0.1737048178724919,-0.1536655689583085,14.27419494695255,21.80612646852162
1761285236.494548,-9.550215662802191,-0.21420107736822758,0.9727799135675166,-0.16607791696079022,0.4724151065372535,8.143897484109035,24.688076001019596
1761285236.504541,-9.363646325664952,-0.1681574089288528,0.9855036003071885,-0.16172244359039,0.9924163174837104,2.729930371259084,28.333668855516652
1761285236.5147562,-9.094557793525663,-0.1267773973648723,0.9897919671367513,-0.16095433186473765,1.3665201867489352,-1.7497149240214211,32.45126802891593
1761285236.5245116,-8.74665696921328,-0.09358411976943543,0.9848794731224301,-0.16400568958009346,1.5785914550820928,-5.122396493129757,36.72368156545595
1761285236.5346134,-8.330652255923662,-0.07140454047571845,0.9707804459781395,-0.17094305734673892,1.635038902350265,-7.288771511024233,40.83663476105814
1761285236.5445504,-7.862553515083677,-0.061784286272679505,0.9483814487339343,-0.18159358733491907,1.5611075214366936,-8.245316474065046,44.50635528815896
1761285236.5545058,-7.361320302093256,-0.06453526064418996,0.9194584854645755,-0.19550254442431386,1.395263020127831,-8.095331085241096,47.50316558342751
1761285236.5645506,-6.846228823075611,-0.077539103524693,0.886609398547195,-0.2119444190024456,1.1825373067606157,-7.04449016622971,49.6685152506546
1761285236.5746932,-6.33437730868874,-0.09689378376433304,0.8530978246222707,-0.2300019091464279,0.9678157881106384,-5.379990819482404,50.92367368142146
1761285236.584501,-5.838727094096899,-0.11742449922632668,0.8226123572734007,-0.24871023169687811,0.790028358794645,-3.4356015982501127,51.26928963580942
1761285236.5945172,-5.366979443758552,-0.13349010204446818,0.7989539844841271,-0.26724003938650215,0.6779950409064829,-1.5478494319819747,50.77618367046714
1761285236.6045253,-4.92142764645808,-0.13992995898262964,0.7856757592429636,-0.2850688292387256,0.6482489500011541,-0.010552414121967441,49.56895407914325
1761285236.614547,-4.499733131717944,-0.13295137304642812,0.7857080566385123,-0.3020813472492386,0.704593457300969,0.9646400474661148,47.80497059217274
1761285236.6245291,-4.096400177869048,-0.1107735450951752,0.8010077436106351,-0.3185531239239607,0.8386460358100716,1.2753007570748742,45.65181320571427
1761285236.6345196,-3.704608708713443,-0.07390845909574993,0.8322706821372,-0.33500467921719895,1.0304411602117092,0.9390170401885712,43.266095293170196
1761285236.6445317,-3.3180326053626805,-0.025044246023821517,0.8787472549704786,-0.3519535695989927,1.2484925107494826,0.0870375959674202,40.77602320891111
1761285236.6545463,-2.932322794479344,0.03142221708824758,0.9381997560342328,-0.3696225700646269,1.4494639568596857,-1.0574407501553398,38.26920114055263
1761285236.6645284,-2.5460501476941877,0.09009544752031884,1.0070321546593808,-0.38767649930096415,1.5783733703029346,-2.212497706217546,35.786266486599054
1761285236.6745312,-2.161047978304826,0.14539291329965412,1.0806004082507288,-0.4050567255085407,1.5705855624777068,-3.0769599402183827,33.32008416181355
1761285236.6846957,-1.782226803770064,0.1923131707975089,1.153677564817989,-0.41996404210180655,1.3565182298364509,-3.3701394044732265,30.81958888552243
1761285236.6946826,-1.417020875349044,0.22703980410602306,1.221015181970281,-0.4300106271059884,0.8691261079763485,-2.8660187327868423,28.197059068611498
1761285236.7045574,-1.0746528359990812,0.24730456211074497,1.2779238825536143,-0.43252689749712103,0.05321502733234569,-1.4172091485912808,25.33764926759257
1761285236.7145915,-0.7653800803487739,0.2524835208155857,1.3207922790195459,-0.4249801661992049,-1.125148478772551,1.0339884459191984,22.110301892178793
1761285236.7245634,-0.49983643768912717,0.24344441316594093,1.34746826758157,-0.40544391043818256,-2.671193217891503,4.45763069849271,18.379534096272415
1761285236.7345963,-0.28852485035567205,0.2221988526733797,1.357439252462658,-0.37304335789556375,-4.557840673709019,8.749104843922668,14.017883998502908
1761285236.744519,-0.14146241206726648,0.19144126335475667,1.3517750726404152,-0.3282930692466663,-6.727189727654249,13.748999140228563,8.91888617845466
1761285236.7545302,-0.06793652760124808,0.15407194125469278,1.3328410824865211,-0.2732449206888963,-9.097401501847704,19.26496106321759,3.010263997816259
1761285236.7645307,-0.07630683294319962,0.11279675569436964,1.303839307000295,-0.21138817103730054,-11.574236161156731,25.090977816799025,-3.7334266719978477
1761285236.7745965,-0.17378575301315055,0.06986955219475371,1.2682755372694297,-0.14728538714163508,-14.065475938875403,31.021012058217035,-11.28005811342429
1761285236.7845316,-0.3661502066677923,0.027002893583830335,1.2294624904860196,-0.0859831016398819,-16.4956613981641,36.85611847362751,-19.53291065188432
1761285236.7945492,-0.6573723907691077,-0.014571527818726698,1.1901478258899179,-0.03229291626245941,-18.818181294381382,42.40636048638495,-28.329250699092494
1761285236.8046978,-1.0491999801998528,-0.053949433633600864,1.1523126344480206,0.009921435658480068,-21.022008080451577,47.49034750906155,-37.445945794525706
1761285236.8145354,-1.5407546508947436,-0.09038407727662416,1.117141465030791,0.03830835429751935,-23.13131726066228,51.935552473891214,-46.612677348085796
1761285236.8245351,-2.128241494871184,-0.1231694280637933,1.0851323748471806,0.05233004609000568,-25.197653085595785,55.581708877235236,-55.53216613970619
1761285236.8345215,-2.8048626633955305,-0.15161382005713006,1.0562960983870286,0.05324541272184234,-27.285829117964525,58.28798742816054,-63.905629751080575
1761285236.8446002,-3.561004616502074,-0.17510025996381612,1.030384829220186,0.04378911258667805,-29.456034512667724,59.94303111416268,-71.46064799220072
1761285236.8545413,-4.384724475745893,-0.193198984077982,1.007095384088293,0.027625335758809672,-31.745409158932414,60.47583451909425,-77.97786205615444
1761285236.8645215,-5.2625070485119645,-0.20578797145102526,0.9862100358768364,0.00869451609765321,-34.1525052577456,59.865072025350756,-83.31263008972857
1761285236.8745172,-6.180212389954085,-0.21314389468667058,0.9676629347295365,-0.00941783015830278,-36.62754804489021,58.14474016806202,-87.40813492646703
1761285236.884525,-7.124095180427203,-0.21597814873128848,0.9515389949360973,-0.023976114400142873,-39.07035970712078,55.40470195648378,-90.29761561884892
1761285236.894519,-8.081758631630965,-0.21540267215778355,0.9380220766559306,-0.033376088115008716,-41.33643805607237,51.78566099342222,-92.09519468978586
1761285236.9045618,-9.042910690042797,-0.21281996266101338,0.9273138601996055,-0.03718598940424208,-43.2502632563973,47.4690063915936,-92.9767656363048
1761285236.9145393,-9.999820302788809,-0.20974705166447372,0.9195458876866414,-0.03597454556748678,-44.62371747473494,42.662707357654995,-93.15411325055098
1761285236.924541,-10.947423569879696,-0.2076045871765571,0.9147046461392396,-0.030995729591459843,-45.2767612418957,37.58495926075293,-92.84650686557663
1761285236.9345162,-11.883093951844382,-0.20752011123326683,0.9125845077499437,-0.02382018712027456,-45.05734269227989,32.447571502405864,-92.25425900072055
1761285236.9446213,-12.806151739006745,-0.21019698866675474,0.912777260277076,-0.01599791339526594,-43.857923044231406,27.441068659172487,-91.5381663657052
1761285236.9545395,-13.717229827995528,-0.21588296458827583,0.9146997849838341,-0.008813005342444242,-41.626840976711534,22.723075139937336,-90.8074720035898
1761285236.964641,-14.617625442543611,-0.22444150723131123,0.9176534369343737,-0.0031588960255335545,-38.37376440982199,18.41080825854282,-90.1172659912372
1761285236.9746144,-15.508749447965002,-0.23549707818483318,0.9209018283145136,0.00047054658038359824,-34.16943645536708,14.577591353425118,-89.4744328021485
1761285236.9845982,-16.391742989608186,-0.24860360294916103,0.9237501417372227,0.0019055724010935485,-29.140632336168043,11.25246776400527,-88.84972213153034
1761285236.9945338,-17.267277380059447,-0.263380199960497,0.9256095847914714,0.001187067434750663,-23.46161511289802,8.421511127326834,-88.19256718014026
1761285237.0046046,-18.135501468698255,-0.27956966906469916,0.9260347745427114,-0.0015395169504127133,-17.343385965090572,6.029479200086418,-87.44508684775292
1761285237.0146744,-18.99606345867944,-0.29699817450846133,0.9247285318556715,-0.00609196550759258,-11.02172832634596,3.9810626133575457,-86.55230875195073
1761285237.0247605,-19.84811946083627,-0.31544261446552474,0.9215158295290029,-0.012270296589745256,-4.744612049437068,2.1419438187175257,-85.46685857180564
1761285237.0345995,-20.690252023357772,-0.3344401947012782,0.9162948617554871,-0.019833550127704856,1.2408421055959111,0.34085754359997683,-84.14783684731836
1761285237.0445275,-21.52025553955288,-0.35309719299525827,0.9089781602759489,-0.028450705332125795,6.701805803148677,-1.625559248682977,-82.55497547950608
1761285237.0545163,-22.334792729211422,-0.36996354760402006,0.899440464733132,-0.037645270813052766,11.433492720899167,-3.9833994710265554,-80.64015968334184
1761285237.064545,-23.128974339464264,-0.38303084776938284,0.8874916028804938,-0.04675256466219618,15.272831114772343,-6.966629650762903,-78.33889069195139
1761285237.074577,-23.895950504654643,-0.3898838717965376,0.8728902766154004,-0.05490658565858641,18.11128682619946,-10.797040585507805,-75.56424749083192
1761285237.0845563,-24.62661913366827,-0.3879975977334871,0.855407087502571,-0.06106952469412869,19.9057190079014,-15.660719069810732,-72.205460490959
1761285237.094668,-25.309552483204993,-0.3751341785701197,0.8349322384028464,-0.06411006030111745,20.685956917453186,-21.683879125565134,-68.13246500207165
1761285237.1047814,-25.93122097720058,-0.3497689277494866,0.8116078983867272,-0.06292745015126958,20.55777798463579,-28.911305002895936,-63.20691149079145
1761285237.1145499,-26.47655959513755,-0.31146781438837845,0.7859528578637865,-0.056609898368782365,19.7001679566312,-37.29017173938942,-57.29921517331521
1761285237.124554,-26.929883350141523,-0.261150897001816,0.758942609730133,-0.04460868159489551,18.356179158517943,-46.66078634843782,-50.31042248564841
1761285237.1345563,-27.276118670017016,-0.2011992310398029,0.7320125621908432,-0.026902771951015744,16.817332431479368,-56.754321802541234,-42.1969662356266
1761285237.144583,-27.502277643582172,-0.13538795364362957,0.7069640853749063,-0.00412314435904765,15.402204061918,-67.19653586972885,-32.99570477426177
1761285237.1546016,-27.599061734009286,-0.0686498014148666,0.6857698586494313,0.0223939428132005,14.430475273879617,-77.51625823995546,-22.84595768295552
1761285237.16455,-27.562442675378783,-0.006690156218727923,0.6702950099994442,0.05064665774097024,14.19427538264738,-87.15814591007549,-12.004686020432384
1761285237.1745856,-27.3950363179135,0.04451151833354925,0.661973898506689,0.07810707029315722,14.929174739583951,-95.50050797627794,-0.8507505454206447
1761285237.1845467,-27.1070678641259,0.0792662336748501,0.6615063413015894,0.10195047864846273,16.787681817293986,-101.88035553324247,10.125469084411412
1761285237.1945882,-26.71673249156023,0.09274702747682188,0.6686528510489442,0.1193507054520228,19.818456849200007,-105.62862975175642,20.349698098581694
1761285237.2045486,-26.249790318332625,0.08150302689931263,0.6822058685418505,0.12780907304451475,23.95449259232392,-106.11821370487561,29.209189009777045
1761285237.214552,-25.738301107066665,0.043857501065874695,0.7001879359451625,0.1254821327385969,29.01301881658622,-102.82545747138104,36.11355303172251
1761285237.2245536,-25.218498449386626,-0.01985059500160815,0.7202798069547908,0.11147142881349195,34.708653863323526,-95.40253925375974,40.56518986733638
1761285237.2345347,-24.727917080926996,-0.10719770431739718,0.7404194361343408,0.0860304914911121,40.67933988552244,-83.75358695616424,42.23034889246898
1761285237.2445529,-24.302008301333373,-0.21377295867945736,0.7594502509423211,0.05063154534360541,46.52227535557042,-68.10320816125962,40.99980656299217
1761285237.2545292,-23.970590797168214,-0.33342131470738395,0.7776508100973343,0.007834830544251345,51.835146191439506,-49.043305439005216,37.02796877972261
1761285237.2645562,-23.754566167763944,-0.45860963491913836,0.7969619931532906,-0.039060151356463534,56.2569817704812,-27.543921031076675,30.741367721666382
1761285237.274638,-23.663355754103588,-0.5808976539382338,0.8207519920085795,-0.08652811932171559,59.50289883799723,-4.916863303551678,22.8118786658177
1761285237.2846084,-23.693465402915095,-0.6914959435932613,0.8530419145755777,-0.13136826757789688,61.38777030764339,17.27315812445919,14.09572242274729
1761285237.2945561,-23.828446174728988,-0.7818768687074843,0.8972805198793561,-0.17114114352209078,61.83584258004996,37.34687756841181,5.545302385875498
1761285237.3045344,-24.040306318231913,-0.8443798336173023,0.9549757220450158,-0.20438855605212464,60.87662762357407,53.685759010303094,-1.8940048699221566
1761285237.3146675,-24.292191401043628,-0.8727498940700364,1.0246408072964497,-0.23061581943853535,58.63082321863895,64.9226402768898,-7.386964992900279
1761285237.3245392,-24.541951645048094,-0.8625895214640421,1.101475413074955,-0.2500982396979681,55.29169332305939,70.11996405535879,-10.296322915353636
1761285237.334671,-24.746111177656328,-0.8117607653983856,1.1779757793985046,-0.263629658350557,51.10644650161982,68.90660580168468,-10.243327884032661
1761285237.3445275,-24.863758778288908,-0.720791818501082,1.245358453908657,-0.27232347404314333,46.359472413282965,61.54886186012625,-7.134490169449072
1761285237.3545697,-24.859968516233415,-0.5932804318378107,1.2954064441082576,-0.2774956938137591,41.35630375118983,48.940656495510225,-1.1545898658769094
1761285237.3646789,-24.70848222991055,-0.4361653773693206,1.3222019165177743,-0.2805700705418699,36.40526227812951,32.51056760148712,7.268523809245492
1761285237.3746126,-24.3934998364477,-0.2596358547087044,1.3232505755761852,-0.28293270708817236,31.79408971461862,14.05678421538341,17.518792648704046
1761285237.3845406,-23.91051078332048,-0.07646817521973874,1.2997212551007642,-0.28573461602844474,27.761743767094234,-4.466407834008373,28.85780635180961
1761285237.3945432,-23.266171075942875,0.09924449269765412,1.2558320194303476,-0.2897174210379011,24.469600452581552,-21.178079083572857,40.49468812300065
1761285237.4045532,-22.477303709079735,0.253755360087022,1.1976773462518167,-0.29514561493367863,21.979199629467477,-34.480964382658684,51.65474331868659
1761285237.414566,-21.569178702116293,0.3753392677175419,1.1319045116772504,-0.3018709428428494,20.243724470504457,-43.222698508769454,61.642192140164674
1761285237.4245467,-20.573293485378112,0.45560840325755125,1.0645922888125472,-0.30948808218323315,19.117509199953684,-46.78928646284794,69.8921047666566
1761285237.4345646,-19.524902328044973,0.4902515612204816,1.0005283982768554,-0.3175094510616279,18.383216511214684,-45.125696191338456,76.00686725203573
1761285237.4445338,-18.460528546384868,0.4791690501094318,0.9429200076173785,-0.3254925972037457,17.791671475991436,-38.69058681229417,79.77394600919759
1761285237.4545753,-17.415647908361965,0.42610608946646317,0.8934633313603214,-0.3330806767989297,17.10620999563467,-28.36037294239571,81.16422349738629
1761285237.4645483,-16.422674722828713,0.3379370912953294,0.8526490966753758,-0.33995510425264264,16.142564906422223,-15.301371705042545,80.31297500043281
1761285237.4746597,-15.509327532148825,0.22374976722327747,0.8201724816246267,-0.34574010217617823,14.796745251561688,-0.8285509841292632,77.48785126958597
1761285237.484571,-14.697405734693131,0.09385635958637233,0.795335591736975,-0.3499232493152395,13.056502786275026,13.732972032634805,73.04952170855059
1761285237.4945397,-14.00197427003883,-0.0411650472755144,0.7773677151835977,-0.3518479857320818,10.995913628012595,27.17067361228109,67.41077449973965
1761285237.5045347,-13.430933024854902,-0.17132373407826626,0.7656304038352918,-0.3507971046570037,8.7561921596513,38.48195506249441,60.9989959762308
1761285237.514531,-12.984942916748624,-0.2879185341678906,0.7597078242039372,-0.3461425781640885,6.518072440284946,46.93998587564341,54.225376168078675
1761285237.5245242,-12.65768896837967,-0.3840666962848406,0.759401640106109,-0.3375091983927281,4.471535936560646,52.12573199765715,47.46236231822416
1761285237.5345345,-12.436472831033859,-0.4550472042286595,0.7646561087777367,-0.3248977089715765,2.7877386771137287,53.927440364539024,41.029282629042484
1761285237.5445373,-12.303131859334487,-0.49844820845708565,0.775439267464386,-0.30873363130790193,1.5965311159122864,52.51187963701588,35.18501456948405
1761285237.5545483,-12.235271726708625,-0.5141137206388865,0.7916051303734111,-0.2898373827999024,0.9716316150394909,48.27380596197893,30.12615689241239
1761285237.5645497,-12.20777375024317,-0.5039014813934289,0.8127616406940542,-0.2693342871142783,0.9244652523025574,41.77134964123306,25.989229662805627
1761285237.5745466,-12.19450001405177,-0.47128851455701043,0.838168967918554,-0.24853169505423872,1.4067092798732594,33.65542094721928,22.855696830724145
1761285237.5845592,-12.170076009486147,-0.42088233668715214,0.866690395410467,-0.22878712984253155,2.32053734595311,24.60095737257682,20.758852945992416
1761285237.594554,-12.111595179071074,-0.3579056371315456,0.8968114119928233,-0.21138391037671744,3.5345418437608185,15.246883153840782,19.691737535659374
1761285237.6045496,-12.000080235891582,-0.2877188462206411,0.926731193699066,-0.19742487378244428,4.90259661074413,6.149982181755071,19.61522662537986
1761285237.614618,-11.821562663451447,-0.21542983027321128,0.9545162163945333,-0.18775168929205213,6.282673845235653,-2.2443574634426744,20.4653597864868
1761285237.624546,-11.567698195235701,-0.14561605412365633,0.9782919263666687,-0.18289491443919773,7.552868371060779,-9.614033184717046,22.158915356832313
1761285237.6345446,-11.235904447117099,-0.08215816188665571,0.9964393330859218,-0.183056365288882,8.622536469117344,-15.756565800282129,24.59637786245496
1761285237.6446161,-10.829067548932679,-0.02816218046375093,1.0077619374602105,-0.1881204780786099,9.437414654528766,-20.573567068279935,27.66182999876619
1761285237.6545405,-10.354903338933031,0.014064808772803304,1.0115950986493425,-0.1976869906500487,9.97869728321539,-24.048223545090504,31.21995242374262
1761285237.664632,-9.825071326585686,0.043021339259580335,1.0078430893052137,-0.21111542618179163,10.257118319919385,-26.221027932393156,35.11117923536787
1761285237.674573,-9.25413123817836,0.058025866125002205,0.9969454935648031,-0.2275730115361153,10.303872325134211,-27.168356106503236,39.14707934517513
1761285237.6845496,-8.65840984614753,0.05924709305442523,0.979790052629826,-0.246080786139215,10.160547960807865,-26.986966470777386,43.10908944668972
1761285237.6945813,-8.054816839115318,0.04774200644794519,0.957598956201973,-0.26555642814891556,9.870089715472698,-25.785471088434136,46.754283868342625
1761285237.704574,-7.459625164474424,0.025480629857735297,0.9318164111749869,-0.28485639193644424,9.470243799899064,-23.68193554537249,49.83086376038462
1761285237.7145934,-6.88723215700681,-0.00467155197733883,0.9040169912762147,-0.30282434545062653,8.99016362915081,-20.805565239003947,52.102908679376156
1761285237.7245665,-6.348952515555146,-0.03904515507087699,0.875841230368274,-0.31835590057217183,8.450053988806957,-17.29997108919025,53.37995011340044
1761285237.7345679,-5.851950462063201,-0.07335952400642766,0.8489536775622756,-0.33048771686343265,7.863099603473929,-13.325432012108424,53.544519108739415
1761285237.7445836,-5.398469774152624,-0.10303152387154758,0.8250131060470718,-0.3385102759164701,7.238574119295377,-9.057744095753273,52.57114371999502
1761285237.7545602,-4.985542964533386,-0.12359735926660197,0.8056441470892679,-0.34209044729485927,6.585003793249086,-4.681884230265027,50.53251814905203
1761285237.764758,-4.605339128435881,-0.131220054735587,0.7924013199012923,-0.3413779418732299,5.912524470358118,-0.3800030797933782,47.59142851141419
1761285237.7748816,-4.246234365336383,-0.1232248071463661,0.7867179638010801,-0.33706385282217605,5.233989699025316,3.6849470979139842,43.97977401021719
1761285237.7845736,-3.8945584037349783,-0.09857220279865268,0.7898339943445246,-0.3303620537956719,4.564774244084369,7.3868475676706415,39.968340559515894
1761285237.7945502,-3.536804669719415,-0.05815946421324882,0.802699675855731,-0.32289508362857444,3.9214257553781975,10.651112448528353,35.83256426783885
1761285237.8045619,-3.1619352804275715,-0.004851865670571814,0.8258592690713171,-0.3164838257358652,3.319353291525405,13.462442164619954,31.820062603698794
1761285237.8145826,-2.7633328514891975,0.056801077620932255,0.8593273276406586,-0.3128626927879151,2.769757908938271,15.863185302308061,28.125049441007008
1761285237.824558,-2.339997983384223,0.12113162057756303,0.9024780561352979,-0.3133650671692223,2.276170175150966,17.942273666418895,24.87300558116126
1761285237.8345692,-1.896762877139835,0.18209674630627362,0.953971030958659,-0.3186403111686541,1.8312658043828076,19.817037881468384,22.116610040237628
1761285237.8445594,-1.443527770452204,0.2340558180102757,1.011733701031759,-0.3284666963176742,1.4148870989225224,21.611672051580612,19.841619097053265
1761285237.8545735,-0.9937439632689415,0.27244688297108044,1.0730146124235402,-0.34171125777068845,0.9941643702830788,23.436402641944838,17.979706378020282
1761285237.864851,-0.562501730538558,0.294262569058664,1.1345150119057912,-0.35645899181790985,0.5262338390295682,25.370787894970846,16.424564331861518
1761285237.874566,-0.16461240134890648,0.29827623599483244,1.192602168533616,-0.3702940463637809,-0.03658018371347802,27.453505737505235,15.047819177907067
1761285237.8845925,0.1869834244147273,0.28501812263379883,1.2436021070595047,-0.3806746988485524,-0.7398986914336494,29.679813500053893,13.712291832982228
1761285237.894608,0.4822627345233807,0.256540134114131,1.2841555366848194,-0.3853188769004313,-1.6200094386245845,32.00667592922336,12.281476907983155
1761285237.9045634,0.7145380894496031,0.21603011771554992,1.3115960334825836,-0.3825214649419655,-2.6976792110771686,34.3643693423428,10.625418339106457
1761285237.914553,0.880289375946269,0.1673425436597272,1.3242837601218735,-0.3713556714450139,-3.9744760926677034,36.67228085752788,8.62411267242388
1761285237.9245741,0.9785474577840529,0.11450986524371719,1.3218193072231346,-0.3517490365187112,-5.432609390172994,38.85583695124928,6.169981702898042
1761285237.934563,1.010020272059039,0.061293984849597256,1.30508197052673,-0.32445079955157075,-7.038589197363636,40.86121063268572,3.1708025488795464
1761285237.944598,0.9761616516033531,0.010830737681233226,1.27607957186037,-0.2909152635163954,-8.750147961097811,42.66478005972143,-0.44609517345805205
1761285237.954584,0.8783591390873557,-0.03459083340003338,1.237645534344489,-0.2531224168442204,-10.525100599196827,44.27527059960262,-4.728319263593837
1761285237.96469,0.7173709729548499,-0.0735916439620351,1.1930553817207035,-0.21335360640796638,-12.330372352284007,45.72803075022801,-9.692252794123716
1761285237.9745815,0.493084676645408,-0.10561359165158277,1.1456472027549465,-0.17394276038197454,-14.149374605619101,47.07270308326439,-15.317379379568337
1761285237.9845774,0.2046082149506761,-0.13071673595140462,1.098515379415992,-0.1370301670017655,-15.986212540213804,48.35718801265868,-21.542416994529155
1761285237.9945827,-0.1493540650740483,-0.14932759963851658,1.0543113037318448,-0.1043496360137067,-17.865762715470858,49.611756500762105,-28.264473655215987
1761285238.0045984,-0.5699378148935009,-0.16201268864792354,1.0151460186307897,-0.07707710715464143,-19.82933730227541,50.83713471085382,-35.3420842009673
1761285238.0146308,-1.057496716951283,-0.1693377509393553,0.9825650389937352,-0.055760054814806635,-21.926345463866465,51.999371694494684,-42.60247072961627
1761285238.0245721,-1.6110595927615865,-0.1718403686027668,0.9575611813080103,-0.040334830393739245,-24.203013978942895,53.03261931309986,-49.852793762999084
1761285238.0345929,-2.2279846862347523,-0.17010227537695935,0.9406013131792056,-0.03022481974737249,-26.689789925755523,53.84906724171826,-56.89456624020721
1761285238.0445757,-2.903885215136607,-0.16487327106164285,0.931657616171829,-0.024497592739308287,-29.389425290739887,54.35365852963192,-63.53977026141255
1761285238.0545871,-3.6328406632335923,-0.15718301922405728,0.9302445205279091,-0.022048674110884764,-32.26783123541808,54.46023267690878,-69.62662448249718
1761285238.0645912,-4.407846903794718,-0.148384424832426,0.9354649942568335,-0.021777693516084305,-35.2495251637048,54.1055968944748,-75.03264365008353
1761285238.0745862,-5.221410160580266,-0.14009766332603887,0.9460680821535864,-0.02272829494794637,-38.21886713941948,53.258701593628516,-79.68285864245716
1761285238.0845861,-6.066166175808258,-0.13405642088516784,0.9605196617226577,-0.02417195046330449,-41.02735824422997,51.923396492677696,-83.55185581700378
1761285238.0945742,-6.935410232833981,-0.13188617250093165,0.9770902916189388,-0.025626985126089036,-43.50622671574842,50.1348363009565,-86.6594528159759
1761285238.1045635,-7.823451905961881,-0.13486165240424078,0.9939628355422638,-0.02681918829696519,-45.48260038118137,47.95109216918187,-89.06106567208226
1761285238.1145904,-8.725752163825131,-0.14369632496805684,1.0093564183721053,-0.02760657760411816,-46.79695912804914,45.44252229814464,-90.83482728507497
1761285238.1245732,-9.63884933789532,-0.15841230979103893,1.0216560166216206,-0.027900701907934693,-47.31939143437379,42.68168065603229,-92.06800786440883
1761285238.1345642,-10.560123424690817,-0.17832526432414947,1.0295336595653517,-0.027614467947663694,-46.96247166287297,39.735937329913696,-92.84512907046476
1761285238.1445675,-11.487475359265666,-0.20215548169220487,1.032049020777618,-0.026652915721475892,-45.68926604498596,36.66378208405663,-93.23944263927892
1761285238.154571,-12.419003469311393,-0.2282476333569122,1.0287205394496242,-0.02494552557430273,-43.515910646609534,33.51441337113757,-93.3084189278424
1761285238.164572,-13.352743663705862,-0.2548547909591121,1.0195591039822114,-0.022503735758376033,-40.509165512918145,30.32909012142367,-93.09286454833624
1761285238.1746964,-14.286509206606695,-0.28042580134916606,1.005055400754118,-0.019479310863418794,-36.780088999876114,27.142108342271943,-92.61850054542555
1761285238.1846347,-15.21782949412412,-0.3038334922730657,0.9861142336395825,-0.01619902606975161,-32.475295727266975,23.979286516037817,-91.89842241373869
1761285238.1945958,-16.143954448418945,-0.32449380641074516,0.9639375890660978,-0.013157879475449651,-27.7671121031386,20.852532566534688,-90.93488765038832
1761285238.2046843,-17.061869441992453,-0.34234844777561596,0.9398698686571407,-0.01096407163666864,-22.843462514827372,17.750343554133014,-89.71932085848599
1761285238.2148511,-17.968260070655734,-0.35771214255799993,0.9152276080603605,-0.010240976343382011,-17.897762607113325,14.62573210177536,-88.230195322121
1761285238.2246478,-18.859379217672267,-0.3710172864009211,0.8911394895218618,-0.011501485224532185,-13.118714099107546,11.384683773289357,-86.42936921603658
1761285238.2346334,-19.730800213047466,-0.38251781594828593,0.8684216900733366,-0.015016871974133619,-8.679815136432286,7.879313148399114,-84.25829982234323
1761285238.2445786,-20.577084089146364,-0.3920314821113674,0.8475097085312174,-0.020705633308933873,-4.72859289917345,3.9099494567743904,-81.63611039467904
1761285238.254596,-21.391434854713005,-0.39879742153205944,0.82845970654112,-0.028067409003586768,-1.3759204558280211,-0.7607444064489209,-78.4615764722122
1761285238.26468,-22.165449987758556,-0.401500990568764,0.8110186410704419,-0.03618107765940081,1.3138244989196237,-6.380684034150514,-74.62063966108087
1761285238.2746255,-22.889081443261194,-0.39847411789767867,0.7947452695400882,-0.043773895527695346,3.330680570285885,-13.170130194184214,-70.0000590800369
1761285238.2849338,-23.55090006885481,-0.38803000666897725,0.7791504291755201,-0.049354466084082324,4.723875878035148,-21.27681951445554,-64.50644746151396
1761285238.2945838,-24.138708190025707,-0.3688549690797781,0.7638216395991818,-0.051392048966128624,5.60230597376817,-30.73090914194144,-58.088532088599216
1761285238.304669,-24.640483721442635,-0.3403709371025798,0.7485049130354862,-0.048519472057567035,6.129862937437107,-41.406951106682214,-50.75937672324163
1761285238.3145916,-25.04557801759892,-0.30299808847407106,0.7331307915309357,-0.039734582369682823,6.515186019862596,-52.9996232427654,-42.614743791922876
1761285238.3246326,-25.346038228347584,-0.25827515870301876,0.7177863853244216,-0.02457467604651626,6.9958884218910224,-65.01839990712243,-33.84386026341116
1761285238.334594,-25.53788840319708,-0.20882293094815574,0.7026474117733,-0.0032403429402769676,7.81788185273107,-76.80412117762484,-24.729528789437527
1761285238.3446136,-25.622185411861473,-0.15815862077061354,0.6878933924844467,0.023349855605551348,9.211134192270105,-87.56795480501951,-15.635655204994213
1761285238.354609,-25.60566883152891,-0.11038525639150623,0.6736362588922885,0.05358522329554242,11.36404701920639,-96.4508722056208,-6.981705194225087
1761285238.364643,-25.500850879434246,-0.06979224178363677,0.6598975356250337,0.08527237148016277,14.399480773626532,-102.59957188562838,0.7947056426460454
1761285238.3746605,-25.325445110851263,-0.040412768713499615,0.646667931284779,0.11582201388502264,18.355987191739487,-105.25276023560798,7.284009642324972
1761285238.384693,-25.10111053260594,-0.025591590354958844,0.6340691617918208,0.14249567498021323,23.17766508676822,-103.82990657225152,12.154729188764689
1761285238.3946521,-24.851585759777855,-0.02762131291120835,0.6226080021254846,0.16268374096753643,28.715036351630005,-98.01319176269779,15.200866943006504
1761285238.404613,-24.60039350797723,-0.04750174747614197,0.6134714444452489,0.17417986897068474,34.73761466319765,-87.81258844926832,16.379271114806453
1761285238.4145894,-24.368389330266282,-0.08485891356810497,0.6087724308617991,0.17541827419193765,40.95684163337307,-73.60416389796946,15.829801524458313
1761285238.4245985,-24.171486781343024,-0.13802618520398494,0.6116348566922382,0.16564931961089238,47.05617315408019,-56.13318680823554,13.872716302107111
1761285238.4346356,-24.01889416194873,-0.20424637232097279,0.6260169603708741,0.1450426971521827,52.72353681167954,-36.47678531199805,10.980758445956676
1761285238.4446104,-23.912135584724876,-0.2799145057314994,0.6562168533981207,0.11472205693615167,57.68042557075012,-15.965773257631442,7.72765356037924
1761285238.454621,-23.845006042248293,-0.3607645825684164,0.7060767200183409,0.07674053201817631,61.70206367588225,3.928722245287679,4.7194081067376406
1761285238.4646347,-23.80444911516061,-0.44192606550023267,0.7779892000143875,0.033990835373553685,64.62498078611108,21.73227908837789,2.5188146087477343
1761285238.4746318,-23.772185786248478,-0.5178456760441453,0.8718905715919234,-0.00999116307209408,66.34205321885328,36.11208886243703,1.5757145813068316
1761285238.4846435,-23.72680831785035,-0.5821751478802825,0.9844800597357825,-0.05139215761218018,66.78960504918851,46.0128172236053,2.174941943933831
1761285238.4946404,-23.646017380698037,-0.6278246740120949,1.108916582167567,-0.08668462373581695,65.93452596175763,50.76842434888963,4.410342029112145
1761285238.5046265,-23.508727671053904,-0.6474124680658128,1.235198331595084,-0.11331786483022788,63.7696471543393,50.17860267801788,8.18774669933528
1761285238.5146427,-23.296866993326397,-0.6342532279452026,1.3513123938051497,-0.1303583110306759,60.32217969770415,44.54185819217461,13.253909141190606
1761285238.52467,-22.99679614735716,-0.5838217232922254,1.4450524089977075,-0.1388550493151732,55.67395025146048,34.63956035161799,19.24369156565745
1761285238.5346558,-22.600339613665213,-0.49536504266437,1.5061781953949513,-0.1417605103121341,49.98580906289556,21.667610616317486,25.735181245291372
1761285238.5445843,-22.105427578760565,-0.37313211582343014,1.5284078174258646,-0.14336693163414854,43.51459527399235,7.1167394965649855,32.30230179391584
1761285238.5552435,-21.51632662319508,-0.2266693955011444,1.5106866319221433,-0.14837399553175895,36.611438133593516,-7.389918490070201,38.55685920090584
1761285238.5648124,-20.84341194702396,-0.06986677793605876,1.4573373896191135,-0.1608271412745816,29.695363072266083,-20.2833792402828,44.1760571501321
1761285238.5747046,-20.102437748586585,0.08113626952228555,1.3770331538300307,-0.18321201211709556,23.204401847632766,-30.232222582487907,48.91583475755028
1761285238.5847976,-19.313309278776394,0.21065474255483752,1.2809120950105972,-0.21593733573691304,17.53436945087737,-36.29267308453051,52.61337164441408
1761285238.594761,-18.498442975231935,0.3060418336779714,1.1803971426170137,-0.2573119355496885,12.980015997892883,-38.000433709903945,55.18301425464365
1761285238.604628,-17.680890417725678,0.35952278071419164,1.0852977421294168,-0.30397723790986264,9.692894796788607,-35.391546041168375,56.60901546815212
1761285238.614654,-16.882459615400208,0.36896049712199624,1.0025873395215037,-0.3516432115494061,7.665569689639169,-28.954468700909572,56.93683349983731
1761285238.6246493,-16.12206902153035,0.33757630309073783,0.9359870577265363,-0.39591831739255473,6.744735583947001,-19.52834862548083,56.26333149971499
1761285238.6346138,-15.414518570755192,0.2728801247259321,0.8862585057057918,-0.4330288147126183,6.668807323903197,-8.16972341292019,54.72564007003473
1761285238.6446073,-14.769781453215689,0.18514848026841346,0.851970007360582,-0.4602821125853937,7.12031855820605,3.989070960709125,52.48867454887016
1761285238.6546426,-14.192836132575149,0.08576867053901098,0.8304524010931167,-0.4762222382949883,7.7810511356740175,15.870112191128602,49.731913779812864
1761285238.6646159,-13.683986332799087,-0.014296158460317692,0.8186888139600043,-0.4805210254275776,8.378547117095064,26.5548372079913,46.636592892306616
1761285238.6746316,-13.239563505384636,-0.10573784235894124,0.813967125129487,-0.47371305436530076,8.716179325895183,35.35580788446813,43.374687063692136
1761285238.6847606,-12.852873575652245,-0.18171743856946837,0.8142317434723153,-0.4568968281604174,8.684052306855577,41.85255365699863,40.10088683519902
1761285238.6947603,-12.515239594510883,-0.23822351108628378,0.8181650111034174,-0.4314940375857452,8.25294522702744,45.89301913401293,36.94820194651077
1761285238.7046201,-12.217005708549213,-0.2740076734081112,0.8250813675610051,-0.3991062913630289,7.456798652571507,47.56568588652668,34.02702171683192
1761285238.7146432,-11.948402344809256,-0.2901904778508381,0.8347256369738602,-0.3614600536067931,6.370241399705764,47.15014137673561,31.426698387740164
1761285238.7246919,-11.700217727435703,-0.289664815149813,0.8470472036072233,-0.3204012727453789,5.086688460252584,45.05536958400625,29.218313204774784
1761285238.7346373,-11.464263138847146,-0.27642635768130336,0.8619956032217144,-0.2778945899073315,3.700569829133623,41.755082118333696,27.45736234380903
1761285238.7446811,-11.233647776703345,-0.2549360691981151,0.8793616705086892,-0.23599284532659906,2.295227131462958,37.72811520307875,26.1855451754839
1761285238.7546573,-11.002890916405427,-0.22958239075182404,0.898673599131223,-0.1967616178924503,0.9364714411201671,33.40975579886948,25.43138931929397
1761285238.7646585,-10.76790019854481,-0.2042755320612947,0.9191477941329688,-0.16216224480966648,-0.32915870026039484,29.157402970103863,25.209863016124306
1761285238.7746542,-10.525844203916375,-0.1821810889163593,0.9396894239988735,-0.13391042879821233,-1.4728470231765376,25.231654502047768,25.52130181510322
1761285238.7848206,-10.274949751024531,-0.16558383942759589,0.9589369655119028,-0.1133345798410957,-2.480120702173222,21.791958926230627,26.349968314255676
1761285238.794708,-10.014256783468397,-0.15586034061526538,0.9753476113504649,-0.10125852919163117,-3.346895639518747,18.90446884947924,27.662504866854835
1761285238.8046446,-9.743360843221028,-0.15352914271396745,0.9873225085403767,-0.0979284798028187,-4.075849597280007,16.558710509137303,29.40653342846631
1761285238.8148556,-9.46216454069119,-0.15834337726162104,0.9933685174807239,-0.10299589414971748,-4.673644335138239,14.689206548060902,31.5097290817641
1761285238.8248148,-9.1706511078787,-0.16939590489294923,0.992286137391041,-0.11555818570005232,-5.14916781534174,13.198296798286819,33.87981121991875
1761285238.8346777,-8.86869061250981,-0.1852204469296197,0.9833643626725493,-0.13424964845444892,-5.51269072005128,11.977029116095087,36.405996192494484
1761285238.8447728,-8.555891381221805,-0.2038863001506972,0.9665560076765193,-0.15736872646405375,-5.775654914149868,10.921946884853007,38.96246401635157
1761285238.8546877,-8.231509052628304,-0.2230933765062493,0.9426041894479887,-0.18302615572663278,-5.950748939816005,9.946649743743523,41.41425108679235
1761285238.8646975,-7.8944190182525045,-0.24027781234840123,0.9130936508123413,-0.209300905740761,-6.051971107913193,8.987986035503873,43.625658805686854
1761285238.8746867,-7.543147675428645,-0.25273987104489865,0.880408842563227,-0.23439495072212974,-6.094498229944021,8.007589549807552,45.470753084673134
1761285238.8846483,-7.175953267613201,-0.2578091396884998,0.8475917558796066,-0.25678153923778885,-6.0943071414989705,6.990162904964572,46.8448581991829
1761285238.8947241,-6.79095639892071,-0.2530652542475238,0.8181040652835502,-0.2753422029151376,-6.067583801852254,5.940303102706341,47.67527496941956
1761285238.9046786,-6.3863391477383376,-0.23662407603628627,0.7955098851709956,-0.28948202475420576,-6.029993089940412,4.879537706087553,47.929068446036766
1761285238.914739,-5.96064072492823,-0.20746866189220112,0.783108465336847,-0.29920113964615547,-5.995914534649878,3.844493648442283,47.61596310208979
1761285238.9249575,-5.513159170473686,-0.16576140651811302,0.7835592872659368,-0.30509158145216453,-5.977821793763914,2.8860320596985654,46.785210424406166
1761285238.934742,-5.044425340222198,-0.11304734998376999,0.7985497697874792,-0.3082338905172689,-5.986084758237071,2.06833566197542,45.51649963388929
1761285238.9460406,-4.556668770679292,-0.05226937785830732,0.8285525735423309,-0.3099903805540652,-6.029513338258283,1.4667808899116572,43.90617857640095
1761285238.9551184,-4.054168359878369,0.01244112514297762,0.8727059192340099,-0.3117223673185872,-6.116819848510512,1.163923249840671,42.05093763623915
1761285238.964807,-3.543387756688673,0.07618000124863214,0.9288329531529059,-0.31448284812934585,-6.258801310098134,1.2436460520738402,40.031532299190715
1761285238.9746642,-3.032836904100091,0.13382740995560724,0.9936008898451704,-0.31874500020254265,-6.470554330951085,1.7840640488967947,37.89904660109871
1761285238.9847775,-2.532665634999541,0.18065420945581553,1.0628080388155094,-0.32422053941569545,-6.7727069522362084,2.850008968569428,35.66570398369565
1761285238.9947913,-2.0540603739599734,0.2128810528609287,1.131774080442581,-0.32980620964071766,-7.190737723490549,4.48594942677623,33.301466081881536
1761285239.0047827,-1.6085565225749376,0.2281071705924941,1.195794594645511,-0.3336766170054798,-7.751995335407711,6.710123516810194,30.73679792664536
1761285239.0191727,-1.207382895561556,0.2255521652346022,1.250607126678565,-0.33352017161525405,-8.48081897933925,9.510496756316963,27.871175354573584
1761285239.0255349,-0.8609240851000326,0.20608944753953326,1.2928083783458146,-0.32689415937788163,-9.39285320049143,12.842876675305686,24.586261842972352
1761285239.0351968,-0.5783387722118857,0.1720864259665814,1.3201664735330836,-0.31165431995390847,-10.48998806755583,16.63119813993838,20.762192402054993
1761285239.0446236,-0.3673264840953824,0.1270922014708579,1.3317906340327883,-0.2863912358207538,-11.757254877725254,20.769812513534443,16.29503929015737
1761285239.0553782,-0.23400670814200655,0.07542163723388413,1.328145902125025,-0.2507869758513164,-13.162553132709538,25.12764983156202,11.11331930768397
1761285239.0646422,-0.18286833569074418,0.021680778334241934,1.310920578354504,-0.20580893913038445,-14.659454465452757,29.554246865538207,5.191417504165633
1761285239.0746453,-0.2167594679807776,-0.029724895989299224,1.2827653643215475,-0.15369189909709338,-16.192705850186126,33.887603075797315,-1.441880132794997
1761285239.0846179,-0.33690587769401886,-0.07505310953246411,1.2469345175884625,-0.09770700866658412,-17.705538175652116,37.963496786137746,-8.700923555772262
1761285239.0946267,-0.5429596483967566,-0.1116027530612232,1.2068758693085369,-0.0417554047743177,-19.14751083299933,41.62537496060356,-16.447116652659656
1761285239.1045978,-0.8330829841503404,-0.13795045783715457,1.165830305205017,0.010150156647417787,-20.481452653921508,44.73355332050631,-24.49858468565156
1761285239.114612,-1.204067904707979,-0.15400612624029075,1.1265018999189222,0.054432568451102344,-21.68819102452174,47.17251699283628,-32.64415569872594
1761285239.1246169,-1.6514857386120394,-0.1608810007753365,1.0908456281381333,0.088432259933753,-22.76820763264038,48.85556824866899,-40.65974281215792
1761285239.1347802,-2.1698559233925696,-0.16059903871730694,1.0599949925589496,0.11073701475862496,-23.739990087416835,49.726635263148104,-48.32515805557639
1761285239.1446729,-2.7528242109342096,-0.15571061671719025,1.0343234159846997,0.12130246003813712,-24.635456465489884,49.75948089781434,-55.439709966412494
1761285239.154681,-3.3933451094686964,-0.1488793867977961,1.0136082418506593,0.12134902316418063,-25.493250233113496,48.95480791991359,-61.83542986351012
1761285239.1646924,-4.08386841602488,-0.14250727505211003,0.9972504988182531,0.11306620748684938,-26.35088864750016,47.335979070058556,-67.38717631015318
1761285239.175383,-4.8165310501319825,-0.13844447201345852,0.9844993241478123,0.09919203174396676,-27.23675601202591,44.94435200099158,-72.01907485084419
1761285239.184698,-5.583352707043765,-0.13781032723617967,0.9746366821311269,0.08255637015300678,-28.162858450237398,41.835478775808824,-75.70687210393837
1761285239.19462,-6.376430838598003,-0.1409344388919263,0.9670934655538495,0.065676916803528,-29.119161527540157,38.07738005331068,-78.4760105256625
1761285239.204625,-7.188130690534558,-0.14741462359429103,0.9614877695304,0.05047597543070741,-30.070208652690503,33.75156388696217,-80.3956325684122
1761285239.2146678,-8.011268467871764,-0.15627560882806255,0.9575950974270963,0.038151487722405605,-30.954518649198665,28.956479808205305,-81.5691956518178
1761285239.2246332,-8.839286079348021,-0.16619866821845206,0.9552746152794973,0.029197387140183176,-31.686975008277493,23.812029037334447,-82.1227683340284
1761285239.2347443,-9.666412775574313,-0.1757827000048607,0.9543821819228527,0.023537545621791552,-32.164107003852635,18.463022070447373,-82.19230670437254
1761285239.2446222,-10.487804838724124,-0.18379582742054285,0.9546982024858608,0.02072044268419056,-32.271895767322555,13.079379928701123,-81.91127889614894
1761285239.2547774,-11.29965244512638,-0.18938319171805518,0.9558886618812046,0.020118616711509173,-31.895527054467856,7.851475477018637,-81.39992986416974
1761285239.264629,-12.099243703410998,-0.19220709946164588,0.9575060781230533,0.021086220220066818,-30.9303138176353,2.9801218562786245,-80.75725527492571
1761285239.274663,-12.884978303131449,-0.19250607812061107,0.9590274689943553,0.0230473312370889,-29.292810801050905,-1.3380421311440525,-80.05637509047997
1761285239.2846518,-13.656325788005859,-0.19106904656776194,0.9599197103196426,0.025512217370331405,-26.931002018628448,-4.92804284844482,-79.34349095273183
1761285239.2946444,-14.413726260810558,-0.18913123037964896,0.9597182274315846,0.028041049393704543,-23.83245584062348,-7.654696492898,-78.64006267396702
1761285239.3047128,-15.158435077144656,-0.18820886422237282,0.9581020109415364,0.030188009083318923,-20.029562815499425,-9.43902405959422,-77.9473673154028
1761285239.3146374,-15.89231734544357,-0.18989614060009813,0.9549465231384346,0.03146058050727824,-15.601354791961251,-10.27080461122811,-77.25230219377444
1761285239.3246298,-16.617600809072048,-0.1956474518458516,0.9503374693832285,0.03132056490296791,-10.671818199438283,-10.215546391903175,-76.53319225070373
1761285239.3346803,-17.33659506092642,-0.2065625966562271,0.9445341330550513,0.029238762423780786,-5.404923438235372,-9.41481207577828,-75.76445010260348
1761285239.3446953,-18.05138143496172,-0.22318779485986628,0.9378811235835891,0.024798020697540654,0.0032522671428808552,-8.079627789458973,-74.91919083227612
1761285239.3546329,-18.763474580873407,-0.24534623102674327,0.9306804488753354,0.01782323046642102,5.334894654817976,-6.477454981543853,-73.9693004722983
1761285239.364633,-19.473457819253806,-0.2720191156786871,0.9230489875238087,0.008506451100681524,10.362907971706386,-4.913749164688756,-72.88296285019332
1761285239.3746238,-20.180602016380444,-0.30130688970119673,0.9147958418259872,-0.002505942528390542,14.865004749581535,-3.7094395907163924,-71.62019996111077
1761285239.3846521,-20.882490509821473,-0.33050245894953695,0.9053560219235262,-0.01409023150289554,18.638828999774507,-3.175837445837763,-70.12747648577827
1761285239.3962224,-21.57468651783926,-0.35629854481084666,0.893809905103632,-0.024701857529562957,21.51730461853382,-3.58865235231125,-68.33275455591676
1761285239.4046218,-22.250490392158138,-0.3751291501904898,0.8790030038480514,-0.03251636688061367,23.38322847719519,-5.163029976380014,-66.1424996274022
1761285239.414656,-22.900840112848986,-0.383616167142304,0.8597603924309978,-0.03564974410614381,24.18204656054451,-8.031743137248805,-63.442025768978446
1761285239.4247074,-23.514408660704774,-0.37906425696987667,0.8351687396907607,-0.03244203517986644,23.93176186237423,-12.228700606909053,-60.10024859364606
1761285239.4346364,-24.077943655291786,-0.35992800400889247,0.804881922082487,-0.02177619808160311,22.728986385463042,-17.679635684144074,-55.97941664995469
1761285239.444764,-24.576875110396013,-0.3261711857542398,0.7693979979200375,-0.0033932795188362083,20.7502184217256,-24.20119593770621,-50.94975882579161
1761285239.4546292,-24.9961877575607,-0.2794509024646938,0.7302555726977167,0.021843775579518044,18.247481763275633,-31.50880275494977,-44.90826538905189
1761285239.4646654,-25.32152015084368,-0.22308473450951835,0.6901035895420533,0.05179166029120942,15.537553687820905,-39.2327414726999,-37.80006263324766
1761285239.4746358,-25.54041803042729,-0.1617891297961183,0.652609934025756,0.08302789676206933,12.984243178316728,-46.941099324171894,-29.640098829308585
1761285239.4846606,-25.643637216155025,-0.10120728795107437,0.6221919794204187,0.1110546706436905,10.9736498702614,-54.167485271410335,-20.532211666985035
1761285239.494654,-25.62636606672252,-0.04727556436585928,0.6035758880880931,0.1307225787889792,9.883036789629138,-60.44104973189584,-10.682217528443042
1761285239.5053477,-25.489225738225976,-0.0055093513879279805,0.6012195374314698,0.13685505973991163,10.044844563790686,-65.31626264205998,-0.4016226376491756
1761285239.51464,-25.23891356773221,0.019683914526759334,0.6186631730880006,0.12501519364714067,11.708447374116286,-68.40021820474675,9.900901798721327
1761285239.524635,-24.88838160137395,0.025548316033197748,0.657896113529622,0.09232263975918202,15.00342655324386,-69.37585000529067,19.741903182793084
1761285239.5346332,-24.456483866858857,0.011282381435878269,0.7188405194372747,0.038203127858476,19.90913817012817,-68.02023291899958,28.59915132224021
1761285239.5446403,-23.967075541134868,-0.021951159229007092,0.7990514286636139,-0.035063673509754256,26.235760601243175,-64.2179143417308,35.958780809451106
1761285239.5546596,-23.447599123406114,-0.071303994940244,0.8937161507172167,-0.12213742576457325,33.62154107752541,-57.969751496733984,41.36885955979452
1761285239.564638,-22.927243795103962,-0.13274999518518382,0.9960068341876204,-0.2148769088475318,41.549637907053224,-49.39796341778714,44.49292903606045
1761285239.5746484,-22.434812301586646,-0.20172294724944081,1.097798675234554,-0.30314709989672006,49.38601322956684,-38.74810921363849,45.15620173300263
1761285239.5846608,-21.9964726835689,-0.27376572394168625,1.1907127387911187,-0.3761704041264075,56.43744830023675,-26.388554228736446,43.3773193159547
1761285239.594653,-21.63360620151767,-0.34507465640052665,1.2673733400231335,-0.42429273103430515,62.02585459820602,-12.807590818018156,39.37988843840901
1761285239.6046476,-21.360981309161073,-0.41284288255257207,1.322679696055885,-0.4408746033823304,65.5714708566205,1.3925498986413312,33.58031025405208
1761285239.6147697,-21.18547636700105,-0.4753368629303503,1.3547880264195493,-0.42385551220775336,66.67354678368197,15.507210456810881,26.551510433067442
1761285239.6247182,-21.105528630592552,-0.5316808129109493,1.365445701226791,-0.37646563164439883,65.17394896561831,28.75070889369309,18.965792913266206
1761285239.6346583,-21.111397615564908,-0.5813847805256156,1.3594329833641496,-0.306710343122159,61.18885086592352,40.29305724561252,11.523745291189671
1761285239.6446342,-21.186209602488972,-0.6237312937368569,1.3431918202455875,-0.2256687782338579,55.09814825088003,49.31618168549398,4.879203943508721
1761285239.6547608,-21.307630722803445,-0.6572003891359952,1.3230794063989897,-0.1451225296213636,47.49152116235357,55.08961998462311,-0.42817759202793987
1761285239.6646621,-21.449936167490332,-0.6791302343033643,1.3038254576131483,-0.07526182052572447,39.08144390516669,57.05931456560962,-4.022049751732723
1761285239.6747591,-21.586218557219166,-0.6857769251847731,1.287644430455001,-0.02309784273157135,30.602409213505357,54.936689798123886,-5.712927626871856
1761285239.684688,-21.69049935401152,-0.6728563889860182,1.2741961246327131,0.008129282887788277,22.71825700825129,48.770989247920625,-5.494328363647605
1761285239.6946924,-21.73955534700381,-0.6365194724712689,1.2613160941256765,0.018625776457173344,15.954664336728518,38.9874139711584,-3.5154682058690656
1761285239.7047303,-21.714335906822996,-0.5745492482115373,1.2461985521700802,0.011133712625954228,10.663992260601253,26.377471052825975,-0.03912432802820788
1761285239.7146814,-21.600914693258606,-0.48743952976319854,1.2265798818962441,-0.010163600756069988,7.019535567760336,12.035685437216225,4.604709533718158
