timestamp,angle,linear_acceleration_x,linear_acceleration_y,linear_acceleration_z,angular_velocity_x,angular_velocity_y,angular_velocity_z
1760515902.8282864,-6.073247319464151,-0.09094013534675012,1.0144769654300607,-0.3878075886137512,10.259521487437512,3.0114239153010725,14.281199123119325
1760515902.838156,-5.8309294810125865,-0.07433651239027424,1.0106316880430208,-0.3807922251108824,10.108440396882393,2.42529484362824,14.599835879218874
1760515902.8483253,-5.5781538896872505,-0.0604939454346035,1.003123019093542,-0.37374101269020443,9.974878285120415,2.4205246282269064,14.68495685390492
1760515902.8584237,-5.323426562451794,-0.049794209433786034,0.9926732676858527,-0.36766083980764414,9.84421553348502,2.904031736443563,14.528871590960005
1760515902.8681421,-5.0742743602410805,-0.042220108495234256,0.9801729076240797,-0.3632955318546609,9.701857728123795,3.7519945792620626,14.147244261127005
1760515902.8781598,-4.83643156882058,-0.03737913635854159,0.9665452440152743,-0.3610186360630636,9.53532210506534,4.827331529632664,13.576603273026468
1760515902.8883698,-4.613239276148494,-0.03456266285781368,0.9526440775776499,-0.36079959321178384,9.33567004844745,5.994369890877714,12.869827328795953
1760515902.8982527,-4.405313054490225,-0.03283888539811032,0.9391935969056399,-0.36224383453768877,9.098237154171407,7.129931135970364,12.090217294372502
1760515902.9081578,-4.210511943401692,-0.031170860107152244,0.9267675311265091,-0.36469212395180534,8.82273256041564,8.130850706372822,11.30486380497977
1760515902.9182224,-4.024212889250997,-0.02854632118070127,0.9157962436674699,-0.36735620509845385,8.512855550362042,8.918432656301052,10.57804022435634
1760515902.9281466,-3.839866428737547,-0.024105190927598386,0.9065871271251743,-0.3694653477383402,8.175617002508696,9.440545573828366,9.965287214722897
1760515902.9382408,-3.6497852712122225,-0.017252202728115666,0.8993447121152234,-0.3703993755577375,7.820550386994155,9.672027444518722,9.508718433183448
1760515902.9482055,-3.44609577558914,-0.007743366137668102,0.8941810412735481,-0.36978762249284963,7.458949853717578,9.613833942330588,9.233897088346426
1760515902.9582508,-3.22175936098746,0.00426502769768232,0.8911129057367373,-0.36756013047895014,7.103196014286742,9.291052914460096,9.148444544236487
1760515902.9681516,-2.97154735762465,0.018215999805148892,0.8900491724215853,-0.363946447516795,6.76614699451541,8.74967357508892,9.242364306657816
1760515902.9783657,-2.692837168593275,0.03320782683772635,0.890776770969143,-0.35942680056923343,6.460507404132043,8.051962999329337,9.489906683835624
1760515902.988148,-2.3861034245414623,0.0481052755281495,0.8929561594716144,-0.3546482130706897,6.198064100641435,7.27049249698745,9.8526705610221
1760515902.998178,-2.0550149126227146,0.06169214556728597,0.8961355554951855,-0.35032284782726875,5.988711163832007,6.481187955782746,10.28354868503003
1760515903.008147,-1.7061131385303827,0.07283933864156887,0.8997885406549426,-0.3471271823446324,5.839272852941466,5.756093361669022,10.731080923520754
1760515903.0182016,-1.3481246266152784,0.08065747292750967,0.9033734058450773,-0.3456191490574473,5.752243223426589,5.156698739547798,11.14379295837858
1760515903.0282369,-0.9910244751441812,0.08460672383487669,0.9064063655550134,-0.3461859609787927,5.724656800524014,4.72864785743166,11.474161174310412
1760515903.038208,-0.6450043503230903,0.08454812689136186,0.9085353201530246,-0.3490271888650183,5.747358462028547,4.498439135630331,11.681940809451982
1760515903.0481968,-0.3194947897569177,0.08073616717803672,0.9095973577240167,-0.3541671924514447,5.804937250565964,4.472426111852004,11.736703010396061
1760515903.0582001,-0.022355369875613918,0.07376564520664526,0.9096442146193126,-0.361482907996854,5.87652016372494,4.638081172361873,11.619528371042216
1760515903.0681453,0.24070321348639157,0.06449071692814032,0.9089270774965531,-0.37073165045247924,5.937486920269581,4.967179598873255,11.323883772676878
1760515903.078154,0.4664413953531042,0.05392968887651293,0.907843346587945,-0.38156949629756365,5.961979720378521,5.420347179161677,10.855755760823525
1760515903.0881557,0.6541544083862739,0.043160867045350805,0.9068582827581361,-0.3935602890112015,5.925884857548893,5.952316177158684,10.233124448435094
1760515903.0983617,0.8054849492310193,0.03321098892044761,0.9064189645573685,-0.406182521372505,5.809819475793764,6.517234063700299,9.484840462505087
1760515903.1083758,0.9240107077467381,0.024942754578436456,0.9068753551485008,-0.41884225026628813,5.60161968279115,7.073436154989609,8.648926390468214
1760515903.1181922,1.0146640409332812,0.018956198566389904,0.9084174279710717,-0.43089629697313075,5.297905960268299,7.587214227315053,7.770289564005062
1760515903.1281652,1.0830705955088276,0.015520613272494554,0.9110338534229186,-0.4416863855568709,4.90447097699088,8.035281825188504,6.897836544662317
1760515903.138242,1.1349029114347287,0.014547145113158145,0.914497755306938,-0.4505840063868954,4.43545347207369,8.405828140689918,6.0810369313065955
1760515903.1481626,1.1753306491212423,0.015603124845929434,0.9183843921854549,-0.45704539387682724,3.911482319798285,8.698237151058876,5.366081311398086
1760515903.1582327,1.2086215278682828,0.017963615304938594,0.9221209685503292,-0.46067303459492676,3.3571398863269883,8.921712459504496,4.791886363908852
1760515903.1681695,1.237916521090571,0.020693638596794597,0.9250617765564876,-0.46127494574716155,2.79816298360693,9.093167034334176,4.386295980116122
1760515903.178158,1.2651713997127259,0.02275269760049636,0.9265771886421553,-0.45890947575027247,2.258780444510987,9.234760229170426,4.162893211789192
1760515903.188538,1.2912256125817532,0.02311091038740063,0.926145349828801,-0.45390452107227497,1.7595205476724787,9.371356741640225,4.1188576857268
1760515903.1982462,1.3159395661596585,0.020866931099165143,0.923438727681244,-0.4468443161849059,1.3157465455516233,9.52799346979598,4.234270333120129
1760515903.2083175,1.3383462948968192,0.01536310172020155,0.9183997828654805,-0.43852156313723734,0.9371087543366879,9.727308881585325,4.4731831695242485
1760515903.218395,1.3567921755059444,0.006297721610599986,0.9112989348243228,-0.4298575756891609,0.628035252355998,9.986932625853553,4.786631880121307
1760515903.2281704,1.369077181494291,-0.006167133255300971,0.9027645982166899,-0.4217983921510851,0.3893088953026203,10.317030620150303,5.117568008500868
1760515903.2382526,1.372632815665676,-0.02130991321342219,0.8937716550383253,-0.41519836541204297,0.22067461983218278,10.71841419654921,5.407436566978689
1760515903.2481756,1.3647874643724582,-0.037781563869462215,0.8855751811435109,-0.4107042214451042,0.12426452962792488,11.181713205984826,5.603851309514625
1760515903.2583158,1.3431577093981006,-0.05359003627178615,0.8795847933786035,-0.40865469130508053,0.10841428380355637,11.68801434790247,5.668559656189783
1760515903.2684593,1.3061662599839317,-0.0661703330013641,0.8771909512340148,-0.40901395740214047,0.19119870332025088,12.211065806351503,5.584682578799917
1760515903.2781656,1.253632872868452,-0.0725718146113475,0.8795697382249472,-0.41135711274158165,0.4027884825493564,12.72069463845389,5.362100631263569
1760515903.2882404,1.1873385724000352,-0.06977705027347803,0.8874979192811029,-0.41491900621679545,0.7855907505348969,13.186619079135795,5.039866972610942
1760515903.2982118,1.111447075434568,-0.05513592047224566,0.9012043899586677,-0.41870606306421415,1.3911587021476797,13.581569617848597,4.684677931378861
1760515903.3081734,1.0326821675770632,-0.02686620036784576,0.9202743696055488,-0.4216591680043651,2.2731014108161367,13.882685387852252,4.384715898420159
1760515903.318269,0.9601918266570744,0.015452738640151013,0.9436155625055364,-0.422848105593608,3.4757102495436056,14.070477813552078,4.238583960510282
1760515903.3283854,0.9050660322091159,0.07047996416111699,0.9694925807286403,-0.4216750785361293,5.01869577393814,14.125097597602148,4.339584306229408
1760515903.3384404,0.8795109871645175,0.13489564113851865,0.9956347043074633,-0.41806511840241956,6.879214656354843,14.020082567959074,4.756278834413777
1760515903.3481822,0.8957175606999002,0.20344353144563573,1.0194188144233562,-0.4126210432322939,8.973189699504992,13.714175547605581,5.511097843224501
1760515903.358164,0.9644955453674405,0.2692815417714598,1.0381213093095016,-0.4067159001904645,11.138742397096562,13.142224506542055,6.559635565039923
1760515903.3682156,1.0937779993080161,0.324640550547888,1.0492197827873226,-0.4024868228077896,13.125302826262875,12.206704005712941,7.774027744813781
1760515903.3781748,1.287130411139385,0.3617296544833754,1.0507107500761843,-0.4026875462278059,14.592480731949873,10.77213010679825,8.934249081469757
1760515903.3881915,1.542421316274034,0.3737672232809299,1.0414007720847667,-0.41036292328891777,15.122781633073414,8.665499914206375,9.731072423101962
1760515903.3981845,1.8508201081380034,0.35598775296887025,1.0211298791009127,-0.42833643638046315,14.251356887899657,5.68642849571522,9.783591766449835
1760515903.4081674,2.196290665734322,0.30648514381938174,0.9908943275269986,-0.4585512978698756,11.513918130796332,1.6302258451049145,8.672552526476466
1760515903.418191,2.555749391574987,0.22678200895993952,0.9528431130023977,-0.5013673402666241,6.5107562239364665,-3.6747641664453603,5.988376324235774
1760515903.4281778,2.9000339420837093,0.12202938040771877,0.9101312633341546,-0.5549731945302973,-1.01915888866026,-10.317807646622644,1.3899842982728399
1760515903.4381952,3.1957555263620785,0.0007393632321108862,0.8666314303560892,-0.6151041539643689,-11.12417569594785,-18.25145827752721,-5.33233638614523
1760515903.4481847,3.407978186553166,-0.1260278553325797,0.8265332147146419,-0.6752327806997528,-23.579820847928065,-27.24418312195041,-14.199297759575707
1760515903.4583354,3.503508313310713,-0.24602395237751418,0.7938845495763168,-0.7273045543717278,-37.858320764133964,-36.85496435830124,-25.00117052983737
1760515903.468185,3.4544193552617686,-0.3475873147563701,0.7721402151661786,-0.7629423981007325,-53.14286087036239,-46.44446246223539,-37.28378371133771
1760515903.4781864,3.2413072470291056,-0.42154611555807553,0.7637757473743697,-0.7748941528466561,-68.39692443299786,-55.23214988614005,-50.3714270889217
1760515903.4881907,2.8557088455795028,-0.4628301929664179,0.770003270347974,-0.7584044920603602,-82.48933012000829,-62.39868722889962,-63.43149726550491
1760515903.498187,2.3011744345428893,-0.4713342105790393,0.7906059767116304,-0.7121908313091925,-94.36082797179164,-67.21894500715572,-75.57755422347094
1760515903.5081973,1.5927009318872705,-0.4517351237891067,0.8239153532387319,-0.6387875154049292,-103.20106317185538,-69.1973702176574,-85.99601220106476
1760515903.5181813,0.7545704373110593,-0.41232566720306113,0.8669781036284898,-0.54416695963823,-108.59292830604745,-68.17079975562407,-94.07017070189237
1760515903.5282145,-0.1829995342630645,-0.3632684813981119,0.9159405789936027,-0.436720406755852,-110.58420291160003,-64.35037815287096,-99.47041334681312
1760515903.5386055,-1.1877238073611753,-0.31476771555532546,0.9665972845066726,-0.32584382724879507,-109.6662857462955,-58.292463748443765,-102.18706482417736
1760515903.5484724,-2.228895591238933,-0.27551621027525386,1.014973147236662,-0.2204670934819192,-106.66760295451026,-50.80883512234687,-102.5008288932059
1760515903.5581949,-3.2802164592213314,-0.25160625019617217,1.0578073009465234,-0.1278454861888307,-102.59159865613454,-42.8397777938915,-100.90514010030313
1760515903.5682094,-4.3214996080000105,-0.24599291978813762,1.092867409346835,-0.05281817035623669,-98.43874875229996,-35.31713562495915,-98.00552410919352
1760515903.5781646,-5.3392333076398595,-0.25852598795131143,1.119085824124114,0.0024112655732281456,-95.04934804967806,-29.04091688346722,-94.4207316679048
1760515903.58831,-6.3262045334026835,-0.28647279014499105,1.1365367232951007,0.038043542668749736,-92.9931052345625,-24.586227654559583,-90.70281466234486
1760515903.5982583,-7.280477790255138,-0.32536393131863117,1.146275629269693,0.05614762871184873,-92.51740499580066,-22.24973890359329,-87.28377879945901
1760515903.6081858,-8.204023238448475,-0.36995013068868543,1.150061679723861,0.059987608647660624,-93.55260741719064,-22.038068397376,-84.44876573932933
1760515903.6182024,-9.101236499124605,-0.4150763095327579,1.1499915360827626,0.0533623353255222,-95.76310977604216,-23.694985455572166,-82.33145874117498
1760515903.628555,-9.977528590771453,-0.4563393092460355,1.1480907904013073,0.04006571616462149,-98.62825426875487,-26.76017006147798,-80.92626088510809
1760515903.6382601,-10.838108354447273,-0.49046981112673477,1.1459218427234548,0.023521597376353384,-101.53660040581522,-30.649139277110496,-80.11236522079058
1760515903.648308,-11.68703591266107,-0.5154462256528473,1.1442649612107858,0.006591145829720919,-103.87886943274128,-34.741923445561476,-79.68568305428755
1760515903.6581683,-12.526590860652792,-0.5303979950950958,1.1429148906843298,-0.008495675467253171,-105.12778239886934,-38.46752260971137,-79.39499707853516
1760515903.6682255,-13.356967412383495,-0.5353836445100942,1.1406228391748308,-0.02015531870984046,-104.89652608591,-41.37248610995364,-78.97865936037174
1760515903.6781795,-14.176275763833239,-0.5311329374752449,1.1352076714136885,-0.027472353674708343,-102.97138261546046,-43.164925295641076,-78.19795900357772
1760515903.6881716,-14.98079337337332,-0.518820486243546,1.1238464368698138,-0.03024443819817042,-99.31778686113206,-43.72915966039995,-76.86332863174553
1760515903.6983535,-15.76537779849966,-0.4998949966032871,1.1035184629805883,-0.029008746722449612,-94.06248327607592,-43.110826172277754,-74.85036596589147
1760515903.7083392,-16.523937577496486,-0.4759466140290503,1.0715321483024214,-0.02496959355017476,-87.45746609942259,-41.478074595444596,-72.1045937821658
1760515903.7183123,-17.249870866560624,-0.4485825469906825,1.026042335201046,-0.01976505078306648,-79.83372921264251,-39.07030497288447,-68.6364895863322
1760515903.728214,-17.936419929395328,-0.4193013037995057,0.9664817985226605,-0.01508156750153439,-71.55385927573143,-36.148379375610794,-64.5102335639525
1760515903.7382126,-18.576935830284334,-0.38938314669594015,0.89386037246772,-0.012201764993427379,-62.97160089202785,-32.95719405469721,-59.82988703767858
1760515903.7481873,-19.165085096054042,-0.35982513825155055,0.8109010161155782,-0.011606491918114931,-54.40378771099854,-29.70496028252335,-54.72571525258048
1760515903.7581897,-19.695051963370904,-0.33134074319771123,0.7219800817724624,-0.012740673984504331,-46.116285529083925,-26.55748980884035,-49.342178632315544
1760515903.76828,-20.161794946651643,-0.30442487183548944,0.6328367150158305,-0.014011516656831674,-38.32203606453578,-23.64234881475808,-43.828308073612604
1760515903.7781916,-20.561403034078317,-0.27946392503318684,0.5500307629426473,-0.013036121185525388,-31.186945927906862,-21.056730825559324,-38.33063212752807
1760515903.7881813,-20.89156355623537,-0.25685515597469494,0.4801665368886979,-0.007104344809315097,-24.83862651043624,-18.873448156180807,-32.98828721957793
1760515903.798203,-21.152103287204824,-0.23709627903109917,0.4289610479764425,0.006225724651003561,-19.373676518179433,-17.14105553036199,-27.929425946875483
1760515903.8081825,-21.34550370893484,-0.2208131053183879,0.40031320972884993,0.02852836624345405,-14.860927642569273,-15.876605006036408,-23.267718743903497
1760515903.818196,-21.477236042599042,-0.20870653159331323,0.39559629927490353,0.06006626345853582,-11.340383140707337,-15.052565975969886,-19.097768013948006
1760515903.828194,-21.555742893900664,-0.20142298062458072,0.4133896482855551,0.09964124007399394,-8.819707169177006,-14.58222206500678,-15.488761533130727
1760515903.838172,-21.591945895457947,-0.19938430724828762,0.4497463376393412,0.14478563164370187,-7.271073840832091,-14.309268898780426,-12.476770618375754
1760515903.8482,-21.598281350037816,-0.20263770536115483,0.4989143921906502,0.19221546650657068,-6.630509206665887,-14.006764917232372,-10.057451490954328
1760515903.8581784,-21.587405050113116,-0.2107823466247317,0.5543031104738025,0.23839085650007485,-6.800271414378231,-13.388443780212578,-8.181782419985497
1760515903.8682873,-21.570799457508063,-0.2229985505557698,0.6094680720446949,0.28003572834623003,-7.653564749873071,-12.13266111765345,-6.757243282030994
1760515903.878385,-21.55753595238893,-0.23816930534395547,0.6589410140172982,0.3145240525060052,-9.040575034909901,-9.916661663406742,-5.655605213004438
1760515903.888192,-21.553404104730213,-0.25506078364703527,0.698800323792546,0.34009781206159223,-10.795140692351485,-6.456756033275905,-4.726868128402358
1760515903.898224,-21.560542056421514,-0.2725207184169138,0.7269411414317486,0.35592389610048175,-12.741777107857718,-1.5486405716170362,-3.8174623017603433
1760515903.9081783,-21.5776085682524,-0.2896562563685374,0.7430556423586993,0.362021401969127,-14.702973397766051,4.898250158843741,-2.7899429604960506
1760515903.9182308,-21.600446812106654,-0.3059615364174324,0.7483720541374425,0.359100834531656,-16.50668907453202,12.837672042198701,-1.5411592007022685
1760515903.9281883,-21.623117418698726,-0.321376803551262,0.7452259026785014,0.3483569660264717,-17.993891675574652,22.07829974141207,-0.016212443213490992
1760515903.9381704,-21.639132524788998,-0.33627266684311835,0.7365498091919168,0.3312518387162585,-19.025858745471954,32.29136612126986,1.7837504437620757
1760515903.9482255,-21.64270549224544,-0.3513624040623308,0.7253682286573602,0.3093165469796429,-19.49082990789185,43.03283863449186,3.8009655175700994
1760515903.9584093,-21.629839370840305,-0.367552166257721,0.7143706646586592,0.28399185322493353,-19.30944122539676,53.77677530918474,5.927863675277095
1760515903.9681766,-21.599106444882047,-0.3857468819940388,0.7056135279278095,0.2565189921526403,-18.438252333926215,63.95550486983748,8.0206160275645
1760515903.978178,-21.552016636759948,-0.4066391271261588,0.7003719856516594,0.22788331995993022,-16.870675784861554,73.00238541634141,9.918022995063014
1760515903.988171,-21.492928271492254,-0.4305142963811943,0.6991355134542634,0.19880556119465273,-14.634808924741039,80.39372051480665,11.463657914145568
1760515903.9982119,-21.42851399129388,-0.4571042030925191,0.7017201286589322,0.16976967845378776,-11.788054997392237,85.68731033324958,12.528572423943087
1760515904.0082006,-21.36685119322271,-0.48551416789241514,0.7074586672637067,0.1410738340841404,-8.408933890368916,88.555667783896,13.031544274815031
1760515904.0182548,-21.3162544615023,-0.5142383430494887,0.7154272044668056,0.11289159721228113,-4.587002144875562,88.81210729343911,12.953989383966023
1760515904.0282176,-21.284001428056516,-0.5412657135072839,0.7246694088566358,0.0853332591681489,-0.41217854525213693,86.42794785180585,12.34732922242934
1760515904.0382383,-21.275118977693975,-0.5642672681172198,0.7343895697701984,0.05849977114700672,4.035117124717497,81.53924419794454,11.331697354543074
1760515904.048333,-21.291391950274654,-0.5808462415284906,0.7440963725833815,0.03252355010582818,8.691789412706386,74.44192867869376,10.086162402316225
1760515904.0585597,-21.330731993930282,-0.5888282611707614,0.7536898098517655,0.007592646784749711,13.517008050505348,65.57500902084435,8.83186762666256
1760515904.068428,-21.387001925111097,-0.5865642521118798,0.7634907867949944,-0.01604119234451957,18.4937910944451,55.492452513019174,7.810397822749425
1760515904.0784845,-21.45033407590522,-0.5732146489912923,0.7742173730061375,-0.03806573040417326,23.627020966552745,44.825508736891244,7.260134871706945
1760515904.0881956,-21.50791423020623,-0.5489793792494497,0.7869150861398768,-0.05811596281020998,28.93787153060566,34.238342525336805,7.393326845825903
1760515904.0982125,-21.54513267941013,-0.5152342058033802,0.8028511054769845,-0.07578012502743847,34.454821938667955,24.380708806037575,8.37614354020666
1760515904.108229,-21.54694346191271,-0.47453101049097346,0.8233814608881909,-0.09059860408433258,40.20169059809434,15.841646175323175,10.313251850519576
1760515904.1182137,-21.499241750438163,-0.43042416391990057,0.8497958478742845,-0.10205207562663426,46.18345922343505,9.107624799071619,13.2375946431853
1760515904.1282303,-21.39008288743089,-0.3871074192668898,0.8831413702100078,-0.10954134709315914,52.37106568527004,4.527610697500092,17.105331844643953
1760515904.1382246,-21.210619995614625,-0.34888672869057624,0.9240280826415864,-0.11237234460144399,58.686787921133565,2.286831811169776,21.795528995145496
1760515904.1482356,-20.955707129130083,-0.31956174067183934,0.9724250447608711,-0.109769952879114,64.99227173714219,2.3911291305652123,27.1142497518505
1760515904.1582143,-20.624177578386707,-0.3018276783490175,1.0274654507246352,-0.10094884701476252,71.08161963211613,4.66438397166128,32.80309791485
1760515904.1684635,-20.21884952219351,-0.296826500082701,1.0872955939849767,-0.08526598562029115,76.68214936938966,8.761641629298946,38.55260942647958
1760515904.1783469,-19.74633004575934,-0.30395642280708307,1.1490207166392115,-0.062463934931041035,81.46523662666623,14.199152335877622,44.020816107080286
1760515904.1883137,-19.21668390298427,-0.3209876371750637,1.208804993487011,-0.032981940917507196,85.06881010170095,20.399573856255657,48.85667087002205
1760515904.1982114,-18.643009846782043,-0.34445114654893444,1.2621591309379807,0.0017319083848016928,87.13142299865352,26.747325868806637,52.72709017032697
1760515904.2081945,-18.0409348016679,-0.37020283044444446,1.3044038670648517,0.03901079775268633,87.33549702367662,32.64712881473889,55.345486917452256
1760515904.21819,-17.428007459608196,-0.3940414967005401,1.331253018500223,0.07497389738204539,85.454730801994,37.57859364034222,56.499057576898146
1760515904.2282317,-16.822959136032903,-0.41227961420854825,1.3394305089153247,0.10482628603679796,81.39842168209829,41.1406939029999,56.07182366040511
1760515904.238199,-16.244805815823614,-0.422204041316949,1.3272199350794223,0.12346343250813961,75.24431502168834,43.08130610184066,54.06048259049676
1760515904.2482436,-15.71178819768993,-0.42238808096145275,1.294838663817284,0.12629696083211148,67.25223115773659,43.30871058639506,50.580482783308334
1760515904.2582524,-15.240177986199324,-0.412816760687464,1.244542533655722,0.11013790191976414,57.85339727346168,41.88433361488181,45.860547918231525
1760515904.2683597,-14.843011155152364,-0.3947888245760957,1.1804174262523606,0.07394034590393461,47.61471208254134,38.99896094104187,40.22532202281303
1760515904.278179,-14.528840825583652,-0.37058992854586864,1.107890531089274,0.019235127588987027,37.18204666637395,34.93739624012304,34.067738857335044
1760515904.2881832,-14.300638440052863,-0.342992841450449,1.033060199774674,-0.04984999898610804,27.21087997138942,30.03816997749963,27.814509970812257
1760515904.2982423,-14.155014342986707,-0.31470302962610786,0.9619689060478326,-0.12701052865266144,18.295049741393026,24.654919056701253,21.889069857887424
1760515904.3082197,-14.08196264695041,-0.2878940156746983,0.8999307057228154,-0.20457832333238232,10.904628766804795,19.124547873322125,16.676174664883366
1760515904.318198,-14.065324019676826,-0.2639455083121393,0.850994565975157,-0.27460717721013356,5.3419925429436885,13.74488070728787,12.491481287354683
1760515904.3282628,-14.084069232893462,-0.24342091839524083,0.8175955328872805,-0.33004731127313597,1.7216081520789432,8.762087166559448,9.558408987372406
1760515904.3382306,-14.114338471740218,-0.22623870130325935,0.800420840955854,-0.365795235091784,-0.025228713462102363,4.3663655618821595,7.99374012049302
1760515904.348252,-14.131977360577094,-0.2119417416193311,0.7984938800895631,-0.37942446268060487,-0.12362855439143781,0.6934363371113232,7.802754945204822
1760515904.3583717,-14.115165237302458,-0.19996412689744053,0.8094526867613622,-0.37146643974450655,1.0876270579971148,-2.170768235150593,8.884078977355202
1760515904.368196,-14.046693370693877,-0.1898248936515906,0.8299739573218846,-0.34520125574377686,3.2071015844121793,-4.184469200408634,11.043724811499926
1760515904.3781872,-13.915533403826919,-0.1812222829283973,0.8562742532395411,-0.3060127593191962,5.822201756485444,-5.345075134242979,14.016983976286102
1760515904.3883095,-13.71750227174873,-0.1740390218193929,0.8846116695238845,-0.2604432685770665,8.554441362553185,-5.685763331012598,17.495930812798534
1760515904.39842,-13.45501715783327,-0.16828850839491255,0.9117160953138446,-0.2151337920573016,11.093585790069175,-5.273695226145623,21.159526789850993
1760515904.4081893,-13.136089070799127,-0.16403495240508542,0.9350945094991514,-0.17584676788246453,13.217976527533013,-4.209114028356103,24.702915398758908
1760515904.418183,-12.772798442552887,-0.16131425791610507,0.9531856721013429,-0.14673770818708082,14.800569454704895,-2.6238191357615404,27.862661411267897
1760515904.4284656,-12.379527359638114,-0.16007251954715623,0.9653677891248551,-0.12997746082723358,15.80225556566568,-0.6771500200763465,30.435406169623903
1760515904.4382374,-11.971203787280318,-0.16012988852350374,0.9718451251467327,-0.12574563663259603,16.255624182265393,1.4520520805926092,32.28849276287422
1760515904.4482074,-11.561763750075258,-0.16117229284760068,0.9734519274285826,-0.13254063369108166,16.24326188499323,3.577956301296107,33.36231147605936
1760515904.4582386,-11.162975318747426,-0.16277134455213732,0.9714154651155058,-0.14770063193589217,15.874824669851908,5.523686200824353,33.66521281890985
1760515904.468195,-10.783702866749378,-0.16443015925730914,0.967116645949915,-0.16800992080058147,15.266493058162158,7.1383085127812205,33.262675569678464
1760515904.4782326,-10.42962616590969,-0.16564819153122315,0.9618788932482636,-0.19027316968654695,14.525231114255083,8.311792439342456,32.26289083320193
1760515904.4885437,-10.10337162884677,-0.16599355267104085,0.9568064217581976,-0.21176864817061422,13.738880854291562,8.985083582426197,30.800976635604236
1760515904.498242,-9.80496810573349,-0.16516883744104002,0.9526838386707737,-0.2305298703985197,12.971893018326195,9.153461666890129,29.023710697032957
1760515904.5082421,-9.53251130968879,-0.16305683995571302,0.9499404210434524,-0.24544455164055265,12.265641139437024,8.862788024442537,27.076110372338963
1760515904.5183277,-9.282911928867454,-0.15973618404227882,0.9486736427764209,-0.2561940675658061,11.641835581626893,8.199607741644172,25.090598441696642
1760515904.5282607,-9.052613930739966,-0.15546415272013245,0.9487180537819321,-0.2630819244588972,11.107490822501376,7.277014169261963,23.17902618880419
1760515904.5382295,-8.83819769524033,-0.1506323077363511,0.9497394587874314,-0.2668116516047036,10.660109760525266,6.218615335543954,21.427539150304373
1760515904.5484648,-8.636817737984337,-0.14570531705897496,0.9513315625703206,-0.26826930724947573,10.292129120027779,5.142925345382156,19.89414250736964
1760515904.5583115,-8.446456751423296,-0.14115358133499245,0.9530940176999156,-0.2683470623428938,9.994112191498836,4.150145614659676,18.608781012397124
1760515904.5682514,-8.266000035157393,-0.13738809472131597,0.9546797975177688,-0.26782337167121006,9.756583603806105,3.3127124914898167,17.575704033392977
1760515904.5783453,-8.095144155271406,-0.13470261149233065,0.9558142204939135,-0.2673001327746624,9.570710038311287,2.6702987782161123,16.777777215247255
1760515904.588204,-7.93415499984378,-0.1332248405300395,0.9562983705995795,-0.2671874626660967,9.428210636085527,2.2293084791426168,16.182230690112558
1760515904.5982535,-7.783496924591591,-0.13287908880246163,0.9560091079421228,-0.26772080722267255,9.32092977804886,1.9664010266394223,15.747158158864835
1760515904.6082115,-7.643377801093531,-0.13336851922509102,0.9549002324019037,-0.2689945662808118,9.240442939335624,1.8352453337120915,15.427974456511452
1760515904.6182182,-7.513287342946596,-0.13418914921500122,0.9530031102945867,-0.27100042555242315,9.177933307905947,1.775493953696887,15.183057782647788
1760515904.6282365,-7.391624447924638,-0.13468225951699225,0.9504237004253347,-0.2736626411504354,9.124425004625575,1.722842597408138,14.977965557603941
1760515904.638263,-7.275495531355693,-0.13411864158847414,0.9473343418711804,-0.2768642437133473,9.071333803175333,1.618994810545533,14.787887282941345
1760515904.6482882,-7.160725788831502,-0.1317971364858368,0.9439597891879662,-0.28045968148152817,9.011221071248244,1.420392156162406,14.598312701932201
1760515904.6583223,-7.04208121282388,-0.12713850577213628,0.9405569522768658,-0.28427361544538676,8.93860856773588,1.1046913597191526,14.404173929462404
1760515904.668315,-6.913667181762631,-0.1197614366076753,0.9373883071690567,-0.2880918540708437,8.850712878699614,0.6741776373835331,14.207912718383096
1760515904.6782515,-6.769450238403837,-0.1095336421721263,0.9346916147788065,-0.2916550882328011,8.747972374104675,0.1556298721725912,14.017001846423351
1760515904.68822,-6.603837581510674,-0.09659443355286902,0.9326520420373303,-0.2946659639922716,8.634262842359927,-0.4033891653219154,13.841412873170395
1760515904.69823,-6.412241674811974,-0.08134696637157401,0.9313834983992335,-0.29681509227493974,8.516733963322796,-0.9413108860656962,13.691402068171838
1760515904.7082205,-6.191556904288963,-0.06442029075198046,0.9309226026205437,-0.2978241854060224,8.405246275837564,-1.3914031917304033,13.575832427924606
1760515904.7183073,-5.9404833842230165,-0.04660401268941572,0.9312339090004197,-0.2974976738755105,8.311439502915238,-1.6913309245566677,13.501104561556621
1760515904.7283924,-5.6596510889840825,-0.028762051694514786,0.9322224240010666,-0.29577070589396404,8.24751037914586,-1.7919824567447635,13.47065275079392
1760515904.7382128,-5.351525175776695,-0.011736171732915976,0.9337496798683929,-0.2927421694561547,8.224816621108666,-1.6642608827756376,13.484881021546032
1760515904.7482326,-5.0201072667402284,0.0037468342036359047,0.9356508906376713,-0.2886847375160358,8.252450652191563,-1.3029036164710583,13.541370813264598
1760515904.758359,-4.670482274532497,0.01714926989034374,0.9377517156810597,-0.28402881318666395,8.335942849662043,-0.7268885175286296,13.635187261847607
1760515904.7682226,-4.308290716255082,0.028163962998004926,0.9398842173772148,-0.2793236742245669,8.47626096215399,0.02348584881371156,13.759140708683848
1760515904.7782037,-3.939225369192952,0.03671302056749865,0.9419027708341075,-0.27518522068329127,8.669262708931,0.8922690054535497,13.903916162837879
1760515904.788311,-3.5686496994127497,0.042902207641458884,0.9437003766966183,-0.27224168765289974,8.905714065007913,1.815315687218567,14.058057591310698
1760515904.7982554,-3.2014084825439793,0.04694067325196288,0.9452228879227887,-0.27108504179337567,9.171895217241463,2.7283506902415327,14.207874062825708
1760515904.8083668,-2.841851704129035,0.04904663676577688,0.9464751118087309,-0.2722294635791418,9.450700004188414,3.574433947872524,14.337401468621792
1760515904.8181984,-2.494032388961259,0.04936591764956834,0.9475125322639241,-0.2760737922855342,9.723039515243206,4.309778235641808,14.42858468898241
1760515904.8282483,-2.1619850041411564,0.047928373404672646,0.9484171734601846,-0.2828648769061604,9.969321105916533,4.907196408484433,14.461828866687062
1760515904.8383498,-1.8499638284032327,0.04465586975963256,0.9492634569104254,-0.2926632956805254,10.170790510731232,5.356897923562352,14.417010341889243
1760515904.8484404,-1.5625324213809377,0.039418031022359495,0.9500854172162497,-0.3053184701385099,10.310582059402126,5.664824592079101,14.274953642416413
1760515904.8582501,-1.304440794517217,0.03211680120297354,0.9508571140115013,-0.3204620662302775,10.374409529233501,5.849101690098532,14.019286611258252
1760515904.8682063,-1.0802873774284765,0.022774050149705773,0.9514931411315096,-0.33752492220382935,10.35093169243064,5.935404726952404,13.63849537860585
1760515904.878199,-0.8940180160457121,0.011598921702000322,0.9518683242306123,-0.35577639030696906,10.231912182349978,5.952087904176839,13.127930141141423
1760515904.888226,-0.7483497638198731,-0.0009794734509762392,0.9518489093466748,-0.37438015584970136,10.012332699063379,5.925823035230718,12.49147722642171
1760515904.8982356,-0.6442177228335659,-0.01431722861529655,0.9513246634786373,-0.3924589520307541,9.690598097797906,5.878313889711242,11.742621348095225
1760515904.9084046,-0.5803327539671548,-0.027592886727405407,0.9502328142673928,-0.4091610590176064,9.268899740204642,5.824427285307463,10.904672617110641
1760515904.9182794,-0.5529179034829734,-0.03986757589724494,0.9485692392253617,-0.4237227061144349,8.753703288441326,5.771842782402637,10.010015151296388
1760515904.9282248,-0.5556740549536218,-0.050161392448235614,0.9463877156540746,-0.43552194908823766,8.156225087713036,5.72207485076196,9.098331530370272
1760515904.938249,-0.5800142547998999,-0.05754384360586862,0.9437921541194,-0.44412111039873864,7.492680041102677,5.672475947580222,8.213856484667373
1760515904.948324,-0.6155918478909587,-0.06123616436951699,0.9409273795854917,-0.4492960203507783,6.78404720556072,5.618629501718746,7.401812487188091
1760515904.9582605,-0.6511160743869444,-0.060716348002566436,0.9379703857261205,-0.45105020880260915,6.055131816178169,5.556466738770669,6.704281814090904
1760515904.9684443,-0.6753984778631218,-0.05580912865705934,0.9351186378351304,-0.4496110183847167,5.332813564900604,5.4835541967048504,6.155865595073097
1760515904.9783487,-0.6785204877945386,-0.04674138931408859,0.9325699235046457,-0.4454047974759286,4.64354047329453,5.399290681237852,5.779551124871406
1760515904.9884098,-0.6529784058363364,-0.03415139223909854,0.9304919829548519,-0.4390120749829345,4.010314661988167,5.304136640023734,5.583238792321162
1760515904.9982622,-0.5946579791761735,-0.019052724304349143,0.9289868518690773,-0.4311093850569035,3.449580545232864,5.198354652843254,5.557367436351951
1760515905.0082052,-0.5035135124121206,-0.0027634704454239643,0.928059649167038,-0.4224084486986709,2.968535844298868,5.080964260243017,5.6740268690533595
1760515905.018227,-0.3838654899888536,0.013185498017756283,0.9276023116362029,-0.4136037986490916,2.5634192552568464,4.9496534233658105,5.887859848235101
1760515905.0282931,-0.24427694940320938,0.02715045874636787,0.9274001740592762,-0.4053372769389069,2.2192789496922796,4.802230366206666,6.138932407517061
1760515905.038254,-0.09701696040525384,0.03747332278850083,0.927164234956586,-0.3981834574961247,1.9115973667558954,4.6398535068939895,6.357596838368474
1760515905.0482264,0.04283837882779577,0.04257382187491162,0.926585548223654,-0.3926544555869093,1.6099429874751867,4.471783510499491,6.4711941462602205
1760515905.0582151,0.15859529993358637,0.04103945533689646,0.9254028831077445,-0.3892156951828876,1.2835449988072112,4.320857928381999,6.4122449981161775
1760515905.0682113,0.23335524334535881,0.03172724567812292,0.9234727173522413,-0.38829806565395825,0.9083622903738253,4.22844535846292,6.127554965686454
1760515905.0782135,0.25159485930074843,0.01389097068819972,0.9208308485148139,-0.3902916274449647,0.4748778951160649,4.25742685218738,5.587405071573928
1760515905.0885046,0.20083270974747808,-0.01267074673776303,0.9177346345752507,-0.39551438924454874,-0.004467992013776148,4.491812731276734,4.793723160418593
1760515905.0985227,0.07323148887410134,-0.047475925275118486,0.914673707665366,-0.40416189524835605,-0.48955183545084346,5.031861991680086,3.7858853321612886
1760515905.1082106,-0.13309389778341613,-0.08927340699876245,0.9123382761530797,-0.416250596353809,-0.9100485853288841,5.983956816533623,2.6426640593663238
1760515905.1184034,-0.4133182665443301,-0.1360424201887128,0.9115411796604523,-0.43156578558694264,-1.1676114493618721,7.445035264238043,1.4789040382818948
1760515905.1283815,-0.7558952576548462,-0.18508474521939838,0.9131016559260714,-0.4496169103857064,-1.1439845085753553,9.482206673890968,0.4358237979060866
1760515905.1382484,-1.1433622891931843,-0.23319246788787235,0.9177096223816453,-0.4695967246656361,-0.7157315624453984,12.10925650326989,-0.33556066956246117
1760515905.1482308,-1.5538838195096805,-0.27686392424909984,0.9257926305944166,-0.4903403046289472,0.22458265909265746,15.262873678420519,-0.6975117971507303
1760515905.1585293,-1.9633497943098115,-0.3125458053749287,0.9374009847166613,-0.5102850492682434,1.74200769261515,18.782306936354345,-0.5536355931534492
1760515905.1682293,-2.3478081347007134,-0.3368908139347266,0.9521146893378356,-0.5274418753008375,3.8300784203035256,22.39656210468911,0.12087357344251447
1760515905.1782649,-2.686019451421343,-0.3470258841268785,0.9689699273743234,-0.539399626127405,6.382583440732506,25.723066410973544,1.2509256931314423
1760515905.188241,-2.9619373445496704,-0.34082159925321287,0.986410974006298,-0.543394867178101,9.170856892115662,28.280870881722894,2.6403106716018896
1760515905.1983893,-3.1669150853498165,-0.3171409523697248,1.0022916321240778,-0.5364788685798748,11.831840479169905,29.519973153956776,3.9630654777500856
1760515905.208227,-3.3014256863401514,-0.27603113585936867,1.0139642886199365,-0.5157970930375916,13.872224213399486,28.866464373974285,4.772335660885096
1760515905.2185469,-3.3760760220578456,-0.21881900352526318,1.0184938618808346,-0.4789696871367162,14.693232036485,25.78128271793292,4.529999436025582
1760515905.2284296,-3.4117085271407217,-0.1480887614701215,1.0130174874759064,-0.42453474428012544,13.63883647908396,19.82855554443347,2.65780394063143
1760515905.2382293,-3.4384228096223683,-0.06754796803153755,0.9952407790296893,-0.35239288617079256,10.06725352923475,10.747704855128456,-1.3924309281019016
1760515905.2482247,-3.4934270601703696,0.018196348790308233,0.9640174193818263,-0.26417203548602464,3.441564157698451,-1.4784737962819727,-8.055599703360638
1760515905.2585337,-3.6177590420907073,0.1039308189989745,0.9199055617388492,-0.16342146875483538,-6.569490523600413,-16.56956562427569,-17.56679301809089
1760515905.2682276,-3.85209440079516,0.18418383531967225,0.8655498007658362,-0.05555368486098336,-19.99456765874253,-33.91861426697412,-29.884290145243803
1760515905.2782192,-4.232056160582496,0.25361747649324584,0.8057263239887305,0.05251705576604451,-36.48512463933999,-52.60066087450952,-44.63675860683779
1760515905.2884052,-4.783609618447826,0.3074536715197641,0.7469324138299226,0.15304860098127432,-55.28411138141183,-71.42936688464462,-61.10924548652603
1760515905.298344,-5.519227592563623,0.3419257573636546,0.6965050974339324,0.238420068297702,-75.25738894106655,-89.06723801164135,-78.27972539480434
1760515905.308226,-6.435503679227951,0.3547315189427223,0.6613971942286707,0.30225494059685576,-94.9995737789158,-104.18495166148855,-94.91181228225776
1760515905.3182778,-7.512749185014425,0.34540488565628924,0.6468805309832367,0.3405120755064101,-113.01051677597681,-115.65015347941488,-109.69930989238365
1760515905.3284373,-8.716831011603052,0.31543105912192215,0.6555293757384352,0.35223229699261027,-127.91692739364491,-122.70936860745434,-121.4449904749512
1760515905.338507,-10.003121793219096,0.2679096956367232,0.6867965766633344,0.33964740421212414,-138.69307060362496,-125.11756395070682,-129.24207005916313
1760515905.3482506,-11.322003080057186,0.20673437710681378,0.7373045530695383,0.3075806800788689,-144.82655538589452,-123.17787808920392,-132.61820979580884
1760515905.3583264,-12.62499763107119,0.1355292260852379,0.8017154641055284,0.2623657850028385,-146.38725346220932,-117.67830105782292,-131.6054294829673
1760515905.3682513,-13.870444776117852,0.056735100993611454,0.8738699209354407,0.21065992444936746,-143.98475275691808,-109.74026103338613,-126.71729374418877
1760515905.378322,-15.02775278166043,-0.02884259843682926,0.9478698309474425,0.15846094950945908,-138.62952840339096,-100.61374683834359,-118.84063308333334
1760515905.3882895,-16.07961845639617,-0.12191427835584656,1.018880187797303,0.1104755471165331,-131.5341390765805,-91.46113950537652,-109.07119938081986
1760515905.398241,-17.022058880843147,-0.22407979316623927,1.0835487280889513,0.06984955307690481,-123.89929963508645,-83.17006869991482,-98.53263782298139
1760515905.4082322,-17.862513934324955,-0.3368662641912031,1.1400459666226528,0.03819472253371847,-116.72702011486587,-76.22774548607647,-88.21545023901521
1760515905.418268,-18.616566502965764,-0.4606534902738913,1.1878027295069504,0.015815805058871167,-110.69233807360037,-70.67724669487558,-78.86187825901565
1760515905.4282846,-19.303961692043213,-0.5937192575077792,1.2270653245173784,0.002040818279019265,-106.08976457565089,-66.16116798855838,-70.90898893119213
1760515905.4382496,-19.94460004250162,-0.7316110452478867,1.2583998486550452,-0.0044279641460056455,-102.85371364008748,-62.04163927730432,-64.48931687276244
1760515905.4482493,-20.555072314665217,-0.8670108143713681,1.282262555702125,-0.005203173738154051,-100.63754025437616,-57.57103669140687,-59.47843848072056
1760515905.458354,-21.14614255481241,-0.9902088137244476,1.2987194380219713,-0.0019761483956212654,-98.92659288859657,-52.07816582602359,-55.57293763317534
1760515905.4683125,-21.721407801673532,-1.0902072633456694,1.3073529559032473,0.0036393410852351947,-97.15830580488284,-45.13200262161852,-52.38034764191371
1760515905.4782183,-22.27718531568877,-1.1563194196734623,1.3073493069295388,0.010204810984334706,-94.82609250531856,-36.649310395499434,-49.503973587152565
1760515905.4882264,-22.80351479674849,-1.1799753129971722,1.297727893131792,0.016534888887396605,-91.55172001162305,-26.923294845638708,-46.60913174420659
1760515905.498317,-23.286032213326184,-1.1563732684230152,1.2776567560433052,0.0217948554547119,-87.12067062532313,-16.567714821277892,-43.46288980752416
1760515905.5083213,-23.708390908308427,-1.0856300870374964,1.2467856525225371,0.025633190409729244,-81.48425335522153,-6.392237057814455,-39.94633006708098
1760515905.5182443,-24.054878231234195,-0.9731533000648647,1.2055244904172042,0.028314666404959242,-74.73835135107117,2.7567177215827354,-36.04492305749237
1760515905.5282354,-24.312890695780702,-0.8291050457852635,1.1552081548700168,0.0307757547118012,-67.0901515248862,10.148971484609184,-31.826154197819534
1760515905.538291,-24.47497101069553,-0.6670471780094515,1.0981108025626742,0.03453233549745242,-58.821841268579654,15.285450615695263,-27.412873061016658
1760515905.548242,-24.540165956817297,-0.5020590260450241,1.0372925140925906,0.0414315731870658,-50.25669003759673,17.95991465230768,-22.957544627821505
1760515905.5582297,-24.514536743712878,-0.3487115791457046,0.9762902327232275,0.05330379871169544,-41.73014859253319,18.267857065595496,-18.61951055948641
1760515905.5682788,-24.410753107389176,-0.2192628881474188,0.9187076272190939,0.07159443779309424,-33.56680028122117,16.571855203409406,-14.546034188110575
1760515905.5782638,-24.246832063309142,-0.12235275767692051,0.8677882872208695,0.0970463643521758,-26.062680592163314,13.436383167266566,-10.857912806442476
1760515905.5882401,-24.044221970857986,-0.06235035024959262,0.8260511678896594,0.1294857627533377,-19.471583084621766,9.545885779126156,-7.640667956369918
1760515905.5982563,-23.825542386787657,-0.03936983600455561,0.7950379278426979,0.1677499828827655,-13.993810518865226,5.618844197431469,-4.942040729577913
1760515905.6082792,-23.61233477829011,-0.049849555442267136,0.7751932529028885,0.20977681740134616,-9.76650627332115,2.3281866367965023,-2.775646255105647
1760515905.6183794,-23.423148831826843,-0.08751548433203502,0.7658806939362383,0.25284585082348404,-6.855839472214971,0.23543207302596064,-1.1294720778400993
1760515905.6283472,-23.272198576817576,-0.1445240762920637,0.7655228061162286,0.29393088190730193,-5.252327963381233,-0.2569426086929271,0.023146751402071897
1760515905.6382794,-23.168699397503385,-0.21259307051693874,0.771841259310023,0.33009923409482916,-4.871003620364938,1.0670143929683396,0.7129633878462908
1760515905.6482859,-23.116873206340262,-0.28397073111798177,0.7821620447121265,0.3588846877076449,-5.557740687268586,4.229162233133306,0.9672809055816741
1760515905.6582425,-23.11651311906547,-0.3521521055550319,0.793745480397209,0.37856658168202845,-7.101949301357502,9.067759454684476,0.8070314293361404
1760515905.6682434,-23.1639455215178,-0.41230958755776154,0.8041002040928416,0.38830897296070815,-9.254393968483395,15.26315719501573,0.24862717152563768
1760515905.6784124,-23.25321179554733,-0.46145009928281494,0.8112436951379918,0.3881484771365953,-11.747764503431151,22.37527761194947,-0.69063873729922
1760515905.6882439,-23.377297900008713,-0.4983370049700995,0.813879091944389,0.37885762836137515,-14.317274019972746,29.88905967186457,-1.9857545729567672
1760515905.6982524,-23.529255219742982,-0.5232270303497113,0.8114699617975737,0.3617372042354655,-16.718975865211917,37.26367432986361,-3.597991827330076
1760515905.7082655,-23.703081011697154,-0.5374814536382475,0.8042109732320122,0.3383953886567961,-18.7442885459983,43.98102658627584,-5.471504613296858
1760515905.7182753,-23.894267818707373,-0.543120217990184,0.7929095691345536,0.3105557794320532,-20.22997828486609,49.589047135863254,-7.533396004068469
1760515905.72856,-24.09998717117564,-0.5423898614187405,0.7788061782841877,0.2799125112778018,-21.063373109065193,53.73571569979758,-9.697211094330635
1760515905.7382565,-24.318930710503608,-0.5374031721984547,0.7633654306787651,0.24803167867042325,-21.182901183007374,56.190772041064626,-11.869067226802409
1760515905.748298,-24.550876664330485,-0.5298836551190987,0.7480697906366505,0.21628865088374655,-20.57431493756818,56.853646028797286,-13.955096935191511
1760515905.7584636,-24.796075549586753,-0.5210232045356368,0.7342423176678626,0.18582945391563258,-19.2633252886553,55.74806419893439,-15.868625254427556
1760515905.7682648,-25.054559095095417,-0.5114448718021531,0.7229177185981169,0.15754841278366535,-17.305834140006574,53.005636440496126,-17.535613289349097
1760515905.778262,-25.325475840396056,-0.5012541186543874,0.7147713698225605,0.13208055034005825,-14.777349863434173,48.841996597014735,-18.89738619058192
1760515905.7882502,-25.606549103142882,-0.4901586529053625,0.7101065516418616,0.10981178202351385,-11.763259649714264,43.529482058511746,-19.910413402707714
1760515905.7982671,-25.893738850100313,-0.4776364767741922,0.7088922477402401,0.09090984259253972,-8.351285049656841,37.369948752002784,-20.543697712191154
1760515905.8086023,-26.1811663864004,-0.46313068763347265,0.7108378259337614,0.07537452169909734,-4.626749902781759,30.67043196022562,-20.77489822465699
1760515905.8182616,-26.46132657971155,-0.4462451368212312,0.7154871157982317,0.06309981473265257,-0.6704911400199189,23.72335106060661,-20.5864807818195
1760515905.8284924,-26.725567021480977,-0.42690937778259164,0.7223138336988842,0.05393581647538496,3.441400974340852,16.79209950327682,-19.962940617702497
1760515905.8385968,-26.96476419387423,-0.40547997287114085,0.7308034146778645,0.047736883517737035,7.637155936259758,10.102268755082083,-18.889629707886204
1760515905.8492208,-27.170085670867486,-0.38275210411012933,0.7405120171489822,0.044385885690040365,11.849317813736995,3.8383782411128404,-17.353183212221637
1760515905.8593764,-27.33370803098664,-0.3598709984788839,0.7510998976705894,0.043790889723098234,16.015925334392026,-1.854321756255865,-15.343165496563358
1760515905.8685915,-27.449371052305068,-0.3381542160345584,0.7623422390840254,0.04585722032166385,20.083113713753242,-6.863775222661633,-12.85440587038297
1760515905.8787456,-27.51268718036115,-0.31885747796128044,0.7741251487569025,0.05044249111088543,24.00879841946816,-11.101996400713357,-9.889508206267877
1760515905.8882806,-27.521177641420344,-0.30293257857733463,0.7864367281013916,0.05730473924206756,27.766586368745685,-14.494456409700573,-6.461094528538032
1760515905.8982728,-27.474058347261582,-0.2908336541224457,0.7993614899667295,0.06605419494589326,31.348733383786648,-16.969691682581526,-2.5934278208847292
1760515905.9082658,-27.371841840983528,-0.2824248842713,0.8130808879399479,0.07611771420488325,34.76696255177369,-18.450834190158357,1.6768065308609537
1760515905.918378,-27.215851555495558,-0.27702270727294337,0.8278752197518029,0.08672308712651788,38.05032983803849,-18.850661515801406,6.300538838431663
1760515905.928337,-27.007756386067037,-0.2735693687914308,0.844116211370766,0.09690941553585637,41.23995770611841,-18.071576236809292,11.216855810328617
1760515905.9383788,-26.74922311075331,-0.27089624233970366,0.8622388191788758,0.10556879857825202,44.38110580407973,-16.011542798264546,16.35356929823043
1760515905.9485354,-26.44175314300972,-0.2680121951893571,0.8826864107350261,0.11152285306305579,47.51349635752305,-12.576318584753281,21.62747026248501
1760515905.9583392,-26.0867260794208,-0.26435068158634156,0.9058329694741314,0.113634821717311,50.66102750693554,-7.69731656578677,26.944292464905317
1760515905.9683826,-25.685626319093465,-0.25992405660367235,0.9318946552700192,0.1109528946153709,53.822097090822176,-1.3532582552223538,32.19881322382465
1760515905.9782774,-25.240391250865834,-0.2553563714057392,0.9608471604280495,0.10287118956122446,56.96181323709934,6.407373953250834,37.275773154202106
1760515905.9882534,-24.75379777218915,-0.2517904407919292,0.9923637072223349,0.08928243124765027,60.007362035348805,15.446897686940149,42.052287518449894
1760515905.998325,-24.229801250092574,-0.2506877675362671,1.0257827220099003,0.07068531665566463,62.847629362243396,25.52596648532394,46.40210769695147
1760515906.008289,-23.673755523105523,-0.253558510031797,1.0601073017950056,0.048206196360619236,65.33776309775348,36.30132761114159,50.20156550416649
1760515906.0183196,-23.092468646268017,-0.26167061776760714,1.0940336727299618,0.02350406372381784,67.30876440764358,47.33560733254579,53.336519329139364
1760515906.0282626,-22.494079764723352,-0.2757895699905896,1.1260045216339496,-0.0014486565300970932,68.58154987006795,58.11915509363939,55.709338754922136
1760515906.038534,-21.88777041979898,-0.29598990497613176,1.1542856100933694,-0.024683122617148893,68.98434998152442,68.10229475108724,57.24501220484969
1760515906.0485065,-21.283342399769722,-0.3215589267900182,1.1770697986389775,-0.04458803668993865,68.37184897637054,76.7350472370108,57.89581635279457
1760515906.0583038,-20.690701851921272,-0.35099352350725205,1.1926176004552937,-0.060218694447656915,66.64411556041902,83.51060557817256,57.644497425620635
1760515906.0682805,-20.119290327954,-0.3820865608151598,1.1994394215964206,-0.07148271618596937,63.763122027810226,88.00841364007148,56.5063005755916
1760515906.0783124,-19.577505481755463,-0.41210755301960933,1.196506824058507,-0.07915265113996227,59.764577952424055,89.93244970295859,54.530180730955486
1760515906.088455,-19.072160749108654,-0.4380833615950712,1.1834559737158037,-0.08469932141693413,54.763060729476805,89.14032495292896,51.79912543142788
1760515906.0983162,-18.608040354282814,-0.45716328665960054,1.160731598524623,-0.08998283253211882,48.94908609785283,85.65933456170865,48.42899690804897
1760515906.1082728,-18.187605519646105,-0.4670173989781043,1.1296252146951888,-0.09686686787660204,42.577731876041206,79.68681537987094,44.56504366963671
1760515906.1183999,-17.81089437810638,-0.4661910008806074,1.0921864291893235,-0.10683183288660678,35.94951495478919,71.57404050957557,40.3754916574499
1760515906.128435,-17.475632058247818,-0.45433799029129335,1.0510196781976755,-0.120658652973328,29.385268238633767,61.795174236971214,36.04234349941934
1760515906.1383026,-17.177534167689043,-0.4322801303016478,1.00900561114723,-0.138243226644734,23.197678200150424,50.90507321522259,31.750342368079387
1760515906.1487353,-16.91075487394423,-0.4018769015861672,0.968996989767235,-0.15858153614190448,17.662831953398335,39.49140700211871,27.67558077916435
1760515906.1583462,-16.66840909174242,-0.3657318529357277,0.933534569043693,-0.17993442805403226,12.9954187204397,28.127208623880403,23.975228847515623
1760515906.1683805,-16.443094272710862,-0.3267974097438356,0.904616637172253,-0.2001421256177094,9.330934565001124,17.32936331317639,20.779391877443704
1760515906.178271,-16.227353295257696,-0.28796082881498564,0.8835438849046918,-0.21702399183864468,6.717284493456978,7.526969352960889,18.18547861760015
1760515906.18855,-16.014049667540238,-0.25169164716745357,0.8708514029311478,-0.22878209418443185,5.116720009850937,-0.9584667987270897,16.254975173100007
1760515906.1983726,-15.796654944510164,-0.21980604567227055,0.8663301168680293,-0.23433036907305113,4.4174078221756705,-7.9209082870244005,15.012304584584538
1760515906.2083006,-15.56946208317544,-0.1933665600164624,0.8691292171931494,-0.23348853750018797,4.45246590200252,-13.26713680576391,14.445459807242052
1760515906.218274,-15.32773618053582,-0.17270218643619217,0.8779201758026144,-0.22700613096989464,5.023342043641605,-17.005943086370433,14.508215702012855
1760515906.22826,-15.067806223183101,-0.1575150763543253,0.8910946307884838,-0.21641440621040128,5.924092930822239,-19.23193673280067,15.123851019950733
1760515906.238507,-14.787098491602626,-0.14703629593528642,0.9069653981098631,-0.20373822322550406,6.963396420023738,-20.106653999335503,16.190367903232634
1760515906.2482753,-14.484116340604004,-0.14019859168691778,0.9239429258116238,-0.19112877035212714,7.981826180643205,-19.83915742280919,17.58713920737482
1760515906.2585661,-14.15837794696384,-0.13580271543609496,0.9406673928985793,-0.18049320664544768,8.862844700986123,-18.667598729666665,19.182740997947157
1760515906.268269,-13.810328555431193,-0.13266285466269598,0.9560872643914792,-0.17319430349600126,9.536973262985523,-16.842444834671912,20.84348905900093
1760515906.2782605,-13.441246151194388,-0.12972574469505815,0.9694860076454175,-0.1698739854090047,9.979561434118041,-14.611473579631294,22.441980639946237
1760515906.288266,-13.053160771115321,-0.12616490641473538,0.9804663940801048,-0.170425115445934,10.203397876363697,-12.206408781340443,23.864833861492183
1760515906.298273,-12.648806332261916,-0.12145208884755869,0.9889035090578088,-0.1741024340007107,10.247970461168467,-9.831200215329211,25.018877258332534
1760515906.308341,-12.231616782639344,-0.11540335230025656,0.994875521361771,-0.17973495854745644,10.167417455894292,-7.652314636632496,25.83527528805554
1760515906.3184414,-11.805764422967478,-0.10819346007676708,0.9985820319254701,-0.18598776153034322,10.019095287261116,-5.791769473868749,26.271414690204626
1760515906.3285174,-11.376216683708602,-0.10033167364441663,1.0002655794621085,-0.1916226414068218,9.854272565021088,-4.323805266065033,26.310714012052046
1760515906.338341,-10.948759026255141,-0.09259205748557,1.0001558715311505,-0.19571680436499808,9.711854024826996,-3.2759063697450914,25.960765914789718
1760515906.3482878,-10.529905191527046,-0.0858928707346403,0.9984507582753378,-0.1978081919062239,9.615388955088244,-2.6342978872837426,25.250335359435557
1760515906.358338,-10.126611030608673,-0.08112833775953207,0.9953335549336402,-0.19794550949507692,9.573067612716,-2.3531885105233283,24.225714353672466
1760515906.3682723,-9.745742125902188,-0.07897424409741424,0.9910114420451109,-0.19663497586619139,9.58004237328592,-2.3661816305540735,22.946810134736783
1760515906.3782783,-9.393319667284281,-0.07970949335910715,0.9857525118318168,-0.1946957199318105,9.622244994812778,-2.597792531233858,21.483176849612974
1760515906.3882914,-9.073663585309683,-0.08310676151291375,0.979902131186051,-0.19305731465456885,9.680875983003185,-2.9731104267918957,19.910052542689236
1760515906.3983462,-8.788629041751355,-0.08843593133363518,0.9738696815697361,-0.1925483307466465,9.736858995479786,-3.424291144771889,18.304383829099724
1760515906.4084156,-8.537149782766415,-0.09459159895396475,0.9680886821897102,-0.1937261910934745,9.77471612584207,-3.893502396132832,16.740835674587117
1760515906.4183571,-8.315239422765536,-0.10031308892588921,0.9629617244634617,-0.19678392236258535,9.78547783277682,-4.332851074101918,15.287876830183194
1760515906.4284844,-8.116481953445284,-0.10443490549020354,0.9588046760953342,-0.20154561438357702,9.768376431963057,-4.702451845372367,14.004144228001689
1760515906.438652,-7.932917124633791,-0.10610205732023628,0.9558032929066661,-0.20754009968835485,9.73119429501926,-4.968022690481237,12.935357542595629
1760515906.448291,-7.756139215776634,-0.10490388270705976,0.9539913896671282,-0.21412756722048884,9.689265419270038,-5.099220461627084,12.11205038688555
1760515906.4583147,-7.578396293745908,-0.10090759155962482,0.9532542099364018,-0.22064687407906072,9.663271953361214,-5.0694658982018295,11.548319352775918
1760515906.4683485,-7.393496876387891,-0.09459782781684944,0.9533547095242036,-0.22655099054935252,9.676129709540882,-4.8574132351550245,11.241692665641482
1760515906.4786098,-7.1973879042825475,-0.08674666378346216,0.9539756800329385,-0.2315037346709869,9.749396753957353,-4.449657648431265,11.174112867678451
1760515906.4884691,-6.988344492646958,-0.07824831526548753,0.9547685068746904,-0.23542196755905145,9.899734533589362,-3.8438753963326766,11.313934453799254
1760515906.4983153,-6.7667896264976335,-0.0699544134629894,0.9554003447271807,-0.23846137351808414,10.135969794581088,-3.051432078615653,11.618768366729926
1760515906.508292,-6.53482450378035,-0.06253985739893878,0.9555943461551727,-0.2409568680155964,10.457229808143577,-2.0985844794961546,12.038960853826815
1760515906.518344,-6.295587433673391,-0.056418491580389585,0.9551600800827523,-0.24333677041378077,10.85245778768091,-1.0256977270639114,12.521470695181101
1760515906.5286303,-6.052568584078261,-0.0517152626529079,0.9540121270401353,-0.24603149011264,11.301388278265943,0.11567817918671817,13.013901847265654
1760515906.5384898,-5.808992501916321,-0.048289698646409356,0.9521747096915028,-0.24939358040459453,11.776820608060623,1.2675851102135427,13.468453090224843
1760515906.548491,-5.567346895799213,-0.045796623651157865,0.9497709479587437,-0.25363946106434065,12.247822577690837,2.3716361327194346,13.845552204907897
1760515906.5583012,-5.329094958671419,-0.0437659280874945,0.9469980543074816,-0.25881702401881973,12.683363607311946,3.375317976806612,14.116933408860856
1760515906.5682857,-5.094570112115336,-0.041684008479937126,0.9440935788804826,-0.2647992521161328,13.055837596715826,4.237648225601833,14.267889635454074
1760515906.5783777,-4.863022093732097,-0.03906268330802375,0.9413002362292552,-0.2713014371435494,13.34399541860315,4.93326706309416,14.298413559770935
1760515906.588602,-4.6327637156187516,-0.035485421537650885,0.9388361948050796,-0.2779177116244884,13.534941422443305,5.454242844987048,14.222976857072414
1760515906.59865,-4.401362275234595,-0.03062697034353798,0.9368746469790001,-0.2841714503538523,13.625007075667506,5.8092289859485975,14.068809720471076
1760515906.608478,-4.165832846270951,-0.024251524622353682,0.9355332009868467,-0.28957396037393324,13.619455452700373,6.020088581664092,13.872717681522296
1760515906.6182756,-3.922819071396048,-0.0162026443872065,0.9348717991946033,-0.2936862845588568,13.531088897358615,6.116606422735081,13.676666614356913
1760515906.6283054,-3.6687773975205333,-0.006400002750729749,0.9348975491294238,-0.2961790547861492,13.377950900623235,6.130312081774078,13.522534046869529
1760515906.6382804,-3.4001990073654498,0.005147125773657111,0.9355750608039288,-0.29688495471391646,13.180439596749556,6.088635549658241,13.446546709779003
1760515906.6483142,-3.1139041454101464,0.018308212591858962,0.936840606315818,-0.2958379625909431,12.95825618608154,6.010544890037916,13.474007272919678
1760515906.6583107,-2.8074279293061184,0.03278816532539543,0.9386174800873026,-0.2932938814306466,12.727653137766307,5.904478229620444,13.614958563185553
1760515906.6683443,-2.4794903694798336,0.04808441489949777,0.9408291283689956,-0.28972846509284406,12.499399117314791,5.768866358017815,13.861418679201064
1760515906.678305,-2.1305117865569776,0.06345939818704881,0.94340689193996,-0.285812297303983,12.277746478634969,5.594977583200488,14.186714660588729
1760515906.6883008,-1.763101449443137,0.07794478865176943,0.9462906441470778,-0.28236328458089055,12.06050057480667,5.371320652474661,14.547228963386265
1760515906.6983483,-1.3824156094820892,0.0903934222367307,0.9494224308468421,-0.2802770550314771,11.840086983722793,5.0885111649829025,14.88655970681565
1760515906.708504,-0.9962621896850876,0.09958909025089491,0.9527350794732119,-0.280435691565482,11.605336524368447,4.743431720394716,15.141723389191323
1760515906.7183719,-0.6148403847439626,0.10441023754936968,0.9561399280879511,-0.28359991017854524,11.343595669034764,4.34173893661769,15.250671525234676
1760515906.7286901,-0.2500544070514661,0.10402458067759278,0.9595192833406534,-0.29029761018352035,11.042742343398732,3.898229816741323,15.160134745615727
1760515906.738597,0.08557409892118287,0.09807520949193313,0.9627274195102237,-0.3007273956483013,10.692750422748812,3.435130712593785,14.832711016975992
1760515906.7482939,0.3802689562311726,0.08681031301686912,0.965598796657022,-0.3146967884190878,10.286596036245628,2.9788612051785637,14.252197675231761
1760515906.7583241,0.6244217255147944,0.07111286240242859,0.9679579762473395,-0.3316119335029188,9.820509064102932,2.5561325336866196,13.426409219915381
1760515906.7683184,0.8118141790674118,0.05240817484882403,0.9696265655185138,-0.3505274688576398,9.293782575352987,2.190297438315693,12.38708267051159
1760515906.7783155,0.9404111332453309,0.032462930295104574,0.9704273800345153,-0.37025116987579415,8.708478193502211,1.898687958045718,11.18689654813482
1760515906.7883813,1.0125897019932086,0.013122788482099227,0.970189916706699,-0.3894830640949597,8.069346515173008,1.6913453854357294,9.89404906842457
1760515906.7983246,1.034795049375111,-0.003950097472591326,0.9687608913893742,-0.40696132740609964,7.384123098248283,1.5711684414190024,8.585179482839175
1760515906.8083587,1.016719371489558,-0.01748741546702137,0.9660203210035397,-0.42159090063804394,6.664129384924581,1.535178534006838,7.337614373764353
1760515906.8183167,0.9701639207163752,-0.02674277678188948,0.9619006423375445,-0.43254096664786573,5.924894440447786,1.5764052398517079,6.22194784940136
1760515906.8283138,0.9077622019358103,-0.03153001402148952,0.9564049556406928,-0.43930699971872206,5.186390836141898,1.6858645624511142,5.295817537718795
1760515906.838334,0.8417289303979271,-0.032180167032268295,0.9496198917567503,-0.44173821122366835,4.472484369260951,1.8542003617995975,4.599444986903593
1760515906.8486197,0.7827675271329398,-0.029434766538943703,0.9417185771180133,-0.4400327832486693,3.8093338143550004,2.0727125163335622,4.153139047359976
1760515906.8584473,0.7392267153744859,-0.024298304579356056,0.9329510582792696,-0.43470443097092404,3.2227124659036073,2.333650256972907,3.956616159039848
1760515906.8684516,0.7165497923380492,-0.017875718285273918,0.9236241169730331,-0.4265261091805233,2.734498401884426,2.6297925593672646,3.9897667085468322
1760515906.878311,0.7170169068881278,-0.01121997497322444,0.9140775011398953,-0.4164583328912405,2.358821188342862,2.953478850266262,4.214436199965914
1760515906.8883083,0.7397501876891344,-0.005209674447287334,0.9046654119630514,-0.4055681975942509,2.0985008786431854,3.295390572978207,4.5768808322567756
1760515906.8983555,0.780938139555901,-0.0004686845183920491,0.8957487928209185,-0.39494122765772305,1.9424483611281638,3.6434846062443023,5.010748049765304
1760515906.9083037,0.834237868471044,0.0026683336669333035,0.8876972791526967,-0.3855853185907738,1.8646218303191104,3.9825011255975875,5.440652092233182
1760515906.9183426,0.8913239633148362,0.004146740840592038,0.8808932741529182,-0.3783285635303183,1.8249767132564445,4.294404727384952,5.786582124326649
1760515906.9283385,0.9425586902014025,0.004143524480401511,0.875727828503469,-0.37372164240145767,1.7726378777665748,4.560005477048303,5.9694229847135265
1760515906.938414,0.9777504189815681,0.002983778473457163,0.8725803841517022,-0.37196579745137753,1.6512888609636018,4.761872242422336,5.917741840325546
1760515906.9485228,0.9869509509646047,0.0010281669505194586,0.871781309444778,-0.3728915177816928,1.406516656499854,4.888457576050374,5.575701051845067
1760515906.9583156,0.9612334617957528,-0.0014547770311757172,0.8735644031993022,-0.3760067142321795,0.9945560724529823,4.93903605440786,4.911550088886076
1760515906.968302,0.8934013169920008,-0.004407338635598437,0.8780214122021232,-0.3806173324488255,0.39153810949001305,4.928623885841814,3.9257115291275513
1760515906.9783468,0.7785995538567126,-0.008061844388450127,0.8850688645206743,-0.3860017493143554,-0.39799982440469545,4.891628640921119,2.657102531650785
1760515906.988287,0.6148209975415906,-0.012952334073161886,0.8944311477139331,-0.3915997771069342,-1.3348528873971324,4.882760494712828,1.186113116400926
1760515906.9983177,0.4033015373145172,-0.01984291326018643,0.9056384489434396,-0.3971672048217356,-2.342744574705049,4.973843111459335,-0.3673279796542147
1760515907.0083144,0.14877489775744052,-0.029577283292499392,0.9180370481426325,-0.4028524206557307,-3.311242887005749,5.245611376430902,-1.8518739968955533
1760515907.0184112,-0.1404839991928848,-0.042875723331983875,0.9308103571051632,-0.4091678325788665,-4.1050373040545844,5.774347542222704,-3.0997290429577786
1760515907.0283425,-0.45292907939511257,-0.06012170087699813,0.9430084628859678,-0.41684720969166156,-4.579905562641681,6.614256685567709,-3.94820479220323
1760515907.0384688,-0.7744266704873516,-0.08118642883564027,0.9535815021404652,-0.4265978745182746,-4.6047524010655065,7.777674965157628,-4.266462693393206
1760515907.0486197,-1.0894126858083026,-0.10533167101818935,0.9614121654779235,-0.4387762205474426,-4.088055718616843,9.21615791085162,-3.9848737084618926
1760515907.0583246,-1.3825065963788785,-0.13120372481390213,0.9653491255979606,-0.45303689890496585,-3.0060617169850214,10.805794237071213,-3.1234619278720537
1760515907.0683079,-1.6404563203448186,-0.15689507593053573,0.9642528410134378,-0.4680249415396921,-1.4292024851478755,12.339717845516587,-1.8152558377711183
1760515907.0783324,-1.854175911392228,-0.18003478175857604,0.957069183646564,-0.4811891644695516,0.45751682417120343,13.530138632414028,-0.32007872411381144
1760515907.0883157,-2.0205722972351574,-0.19789307691353605,0.9429415467588036,-0.4887927336593149,2.3448990657179825,14.021594039563274,0.9755683782016318
1760515907.0983672,-2.143868593484445,-0.2075308679595347,0.9213627698931425,-0.4861832213456548,3.805424611335876,13.416511005155884,1.5761886848901112
1760515907.1083338,-2.236204291056409,-0.20605113592946608,0.8923566796302013,-0.4683530386220746,4.318473216315273,11.313338678193126,0.9147683051032212
1760515907.1183581,-2.317386639733819,-0.19099423883759606,0.8566631780687913,-0.4307629853512124,3.3168279038374058,7.356146366181244,-1.58999061156825
1760515907.1283896,-2.41375645284498,-0.16087001739743892,0.8158822881500795,-0.3703246898696233,0.25335557883396764,1.2923807751302776,-6.45981920666483
1760515907.1385179,-2.5562159455091593,-0.11575650864343522,0.7725229688798821,-0.2863674378198972,-5.317169289136289,-6.967469609702722,-14.073182010986928
1760515907.1484725,-2.7775523212863122,-0.05783108923683524,0.7299157881233119,-0.18137226924849895,-13.650552804341402,-17.29759870165845,-24.582090136546768
1760515907.1583228,-3.10926995793117,0.008352194388242664,0.6919820937981884,-0.06124975413628826,-24.73373458583006,-29.32352916843767,-37.84261797546543
1760515907.1682944,-3.5782060960581057,0.07603151899200201,0.6628812590781813,0.06501972237349435,-38.23037554576148,-42.41975339002287,-53.37364316138379
1760515907.1782985,-4.203258516156167,0.13696730738013882,0.6465621107425955,0.18645592650093556,-53.46917265999351,-55.7482906149503,-70.35744437887924
1760515907.1883886,-4.99260885147397,0.1826951598518235,0.6462394218979913,0.2917611441928951,-69.48907511069659,-68.3421673897975,-87.69200804484792
1760515907.1983368,-5.941864639033137,0.20608468546204559,0.6638349972990065,0.3713147906715541,-85.14625485175696,-79.22771824125168,-104.09775489243789
1760515907.208334,-7.033528079444273,0.2028327434683155,0.6994777986927109,0.4190005776039416,-99.27230548742548,-87.566867085737,-118.27093003327792
1760515907.2183785,-8.238088040669961,0.1724572572954321,0.7512176390147722,0.4333333611593732,-110.85486916139105,-92.7897127445342,-129.06301976465878
1760515907.2283828,-9.516790911202737,0.1184756279768745,0.815103916445783,0.41753572264149796,-119.19872974517408,-94.68496858951322,-135.65319385180953
1760515907.2383392,-10.825790436108763,0.047739021125116694,0.8856701760187453,0.37859200332117976,-124.02647358774898,-93.42460286165334,-137.67480644347395
1760515907.2484055,-12.121016505322656,-0.03082017358248534,0.9567043305605881,0.3256530808886327,-125.49492881735853,-89.5164631316778,-135.2637008626277
1760515907.2584178,-13.362901974040971,-0.10765631096498218,1.022091567501444,0.2682839889814868,-124.12826764522151,-83.69706485243269,-129.01599015470038
1760515907.2684057,-14.520161612679642,-0.17398518738710497,1.0765396672747845,0.21495092624053472,-120.6895707771954,-76.7894935050188,-119.86807889880238
1760515907.2783198,-15.572088667870945,-0.22288370100395427,1.1160821161124193,0.17196858596636946,-116.023939570944,-69.55646046305091,-108.93069155280976
1760515907.2883127,-16.509195370578986,-0.25003458059502265,1.138336978011647,0.14297291265235662,-110.90789314021991,-62.577119931455044,-97.31520614164793
1760515907.298344,-17.33235133706754,-0.25409421378635255,1.1425518102483723,0.1288783570667423,-105.93395764755238,-56.17006181342505,-85.98569229665269
1760515907.3083136,-18.05079851003553,-0.23669186947757148,1.1294866682254914,0.12821988783344837,-101.44841364475793,-50.37527127534881,-75.65867125799379
1760515907.3183322,-18.679524696789002,-0.20208898599596814,1.101188360335328,0.1377574665051856,-97.54670485583925,-44.99603452426398,-66.75948815115125
1760515907.3283474,-19.23647306868768,-0.15654699593688745,1.0607011243369104,0.15322237619615445,-94.11804762202432,-39.68955403033292,-59.43231972466094
1760515907.338361,-19.73998101445551,-0.10747292282351457,1.0117485518675453,0.17010038217879783,-90.9213310983984,-34.08477987225266,-53.59188551085648
1760515907.3485503,-20.206713550847617,-0.062431473714994454,0.9584122903975258,0.18436518310352099,-87.67050306595786,-27.900044084723614,-48.9997430779172
1760515907.3585787,-20.650219658167707,-0.028131484846706876,0.9048268789634343,0.19308623401200162,-84.10963106530227,-21.03316347514671,-45.34682876586786
1760515907.3683069,-21.080126646195456,-0.009521630466932997,0.8549032206027986,0.1948368816760138,-80.06434070347858,-13.603142491861455,-42.32621419200244
1760515907.3783305,-21.50192048175399,-0.009163896613294892,0.81207835004791,0.18983489990716973,-75.46482480507431,-5.934499138255313,-39.68503139644784
1760515907.3883631,-21.917239356771862,-0.027052539242551035,0.7790721698052534,0.17977600842275573,-70.34324958905138,1.5096851243484566,-37.25110413851171
1760515907.3983748,-22.324604893247745,-0.06095183847224704,0.757638527668328,0.16738130369911694,-64.81304565985278,8.22567912250669,-34.93649620624581
1760515907.4083538,-22.720489411157626,-0.10714684296398977,0.7483445024284081,0.15575984751777935,-59.038785219011196,13.769929758861618,-32.72490209042972
1760515907.4183598,-23.100552942469164,-0.16134524112368911,0.7504652733793757,0.14775171374164467,-53.20432484065512,17.83726374605839,-30.650992806750462
1760515907.4283152,-23.460813688645835,-0.21944126232735497,0.7620799551471759,0.1454227851505275,-47.48524203357296,20.301774618495678,-28.777849853080077
1760515907.4383643,-23.798502498814823,-0.27795650044938636,0.7803796108058676,0.1498164371572753,-42.02984829360858,21.218627185750996,-27.175664156368516
1760515907.4483304,-24.11243147382088,-0.3341298302938024,0.8021101982909549,0.1609630083584488,-36.950801680472246,20.79463724453282,-25.9030991025914
1760515907.4583187,-24.40285436531185,-0.3857595681349586,0.8240363474803686,0.17806632555511384,-32.326521919366115,19.340042807176747,-24.99263641503895
1760515907.468309,-24.67094947467544,-0.4309643429194124,0.8433345044175312,0.19976334838460555,-28.209138503000062,17.214028871950084,-24.441800349155784
1760515907.4784875,-24.918159795173604,-0.46802300428094934,0.8578694739574505,0.22437652916172707,-24.63461536472877,14.773949875989226,-24.212020723243278
1760515907.4884908,-25.14565435150356,-0.49539640132038365,0.8663417772692417,0.2501168552257371,-21.631179946224307,12.334689157619607,-24.235514018902606
1760515907.4983318,-25.35412568334664,-0.5119438023083644,0.868305929704928,0.27522806098746344,-19.223596588704776,10.141403324000935,-24.428495914464712
1760515907.5088694,-25.544023618997123,-0.5172501489246139,0.8640687834062399,0.2980827829933202,-17.43242785161407,8.356263617004762,-24.7073338987501
1760515907.5183737,-25.716173799185295,-0.5119181739760836,0.8544982928545606,0.3172488478911529,-16.268854017716258,7.057685920010236,-25.00364955543184
1760515907.528373,-25.872582677705395,-0.4976820880199162,0.8407959874686197,0.33154160931497656,-15.726729858731842,6.24911773821809,-25.274960205431842
1760515907.538354,-26.01713316913906,-0.477260073390916,0.8242897332023975,0.3400723422839188,-15.7741779551629,5.8739329162498475,-25.508769563012493
1760515907.5483263,-26.155865559408365,-0.4539513318460229,0.8062837977258897,0.3422966908034256,-16.347006354429006,5.833307772422572,-25.719561935842385
1760515907.5584164,-26.29664105485388,-0.4310733705150772,0.7879746243891194,0.3380604672766157,-17.3456677638757,6.004782839699322,-25.939613693722094
1760515907.5683324,-26.44818437079844,-0.41139757631443674,0.7704168566401366,0.3276331783520714,-18.63660241063532,6.260095749850554,-26.20574662282256
1760515907.5783331,-26.618718811574592,-0.3967405221141249,0.7545121615367497,0.3117162375140974,-20.057900027798397,6.481392856769997,-26.544948823014344
1760515907.5883179,-26.814537035678644,-0.3877987668668921,0.7409949277511114,0.29141532367439693,-21.42850945516585,6.57495788879799,-26.96200287963177
1760515907.5983539,-27.03884196376528,-0.384221521235498,0.7304016755189796,0.26817238727264664,-22.55988017557276,6.481373539659868,-27.43178970678569
1760515907.6083388,-27.291081822599256,-0.38485350482801384,0.723029125677645,0.24365867618231316,-23.268948514574195,6.180949463637618,-27.897874894475844
1760515907.6183708,-27.56686470775121,-0.3880641764256382,0.7188998889985463,0.21963538295328794,-23.391614483260412,5.693559574724793,-28.277636941977043
1760515907.6283042,-27.858421325899666,-0.39209018721948774,0.7177565163084302,0.19779442598187083,-22.796052978736146,5.072739390343719,-28.472928736675758
1760515907.638372,-28.15550567438989,-0.3953369714219677,0.7190946440438022,0.179597571439898,-21.39518737088498,4.394821323338877,-28.38432145983977
1760515907.6483247,-28.446580421772204,-0.3966056404852428,0.7222325386669683,0.1661348590792029,-19.15738943937496,3.744767120357783,-27.926446033595546
1760515907.6583397,-28.720118535037393,-0.3952295681369814,0.7264053005352052,0.15802177721114838,-16.114091249472118,3.2009525452076857,-27.041815547813485
1760515907.6685834,-28.965856936855534,-0.3911193146373133,0.7308687890061917,0.1553498083815783,-12.36276496532545,2.8213568084890026,-25.71077038359077
1760515907.678539,-29.175857325000024,-0.3847252753407586,0.7349977729619638,0.1576984470519005,-8.063897319169579,2.6334356162207717,-23.95582800654584
1760515907.6883307,-29.34526275775248,-0.37693546480597095,0.7383624253782408,0.1642090623878282,-3.4312290834373584,2.6294905220450575,-21.839685296004443
1760515907.6983447,-29.472683183782195,-0.3689297137210015,0.7407682628966323,0.17371173666022383,1.2844948235975555,2.7686209377326936,-19.457260732295065
1760515907.7083786,-29.560190183925805,-0.36200959145238526,0.7422498741849979,0.18488666930954267,5.816962148203832,2.9853449230947477,-16.923233175729624
1760515907.7183354,-29.612940705882945,-0.3574183029578052,0.743019222535142,0.19643504608608428,9.90872376866052,3.2037473523374747,-14.357258060204638
1760515907.7283754,-29.638478175673395,-0.3561633317566218,0.7433823253459803,0.2072324263986359,13.335867213374094,3.3547817229669428,-11.869244641795417
1760515907.7383833,-29.645782929654256,-0.35886052788656575,0.7436484617800939,0.2164402360968879,15.93001038881116,3.393490123236547,-9.546804032830396
1760515907.7484777,-29.644170152280548,-0.3656275518746776,0.7440585989053197,0.2235577206320644,17.594899762027453,3.3127448556209145,-7.446432838849252
1760515907.7584217,-29.642162315280434,-0.37605757049167665,0.7447524538387998,0.2284086282724747,18.315484137854625,3.150739002084903,-5.589352214960253
1760515907.7683322,-29.64648393696559,-0.3892930715133696,0.7457789416073465,0.2310722066029131,18.15826470144472,2.9906854720086966,-3.962222790009625
1760515907.778404,-29.66132420680334,-0.4041948734915824,0.747138686009254,0.2317807123388515,17.26286963123731,2.9527142212316595,-2.5222128904001857
1760515907.7886424,-29.687976429516187,-0.4195719294397667,0.7488369913631161,0.230809665931743,15.825989333991545,3.1794283691463336,-1.2052168972584978
1760515907.7984905,-29.724892637300258,-0.4344157349778323,0.750925467527339,0.2283827013405378,14.07984383752766,3.8176325915972247,0.06438732212040782
1760515907.8083618,-29.768106040069366,-0.4480791494128427,0.7535183867753703,0.22460565361691961,12.268048727781375,4.99913593505086,1.3640352450797777
1760515907.8184307,-29.81190622324104,-0.4603563764965717,0.756779817513175,0.21943875361596946,10.621960229578725,6.823243277694733,2.7645462340378697
1760515907.8283792,-29.849624674494574,-0.47144988872360266,0.7608854198333969,0.21271084049911704,9.34027229810019,9.342779370319374,4.323692889952537
1760515907.838374,-29.874396617739148,-0.4818366191561464,0.7659683628747175,0.20417330281094237,8.573891057465149,12.554531097108352,6.082067823958281
1760515907.8483815,-29.879793424915036,-0.49206465743356403,0.7720633866916602,0.19358433467369446,8.417127804266343,16.39417490662195,8.061228410706775
1760515907.8583403,-29.860260717065646,-0.5025261311074902,0.779066101003702,0.18080832851255138,8.90530181072796,20.7353738876199,10.263864389867042
1760515907.868345,-29.811345015637013,-0.5132593011415459,0.7867240843648912,0.1659125271675719,10.018150733861667,25.39292513848898,12.67558297848358
1760515907.8785992,-29.729732815449793,-0.5238266157460032,0.794670998376707,0.14924282291360222,11.688063102310421,30.130473741587007,15.267878337562289
1760515907.8884158,-29.61314884801043,-0.5332974893282622,0.8025052799082655,0.13146097747646032,13.811952114643933,34.673943624165155,18.001951971495576
1760515907.8984818,-29.46016662190808,-0.5403429127366481,0.8099022079239879,0.11352666921359264,16.265452008096112,38.73189487221105,20.83318399494972
1760515907.9083362,-29.26998196648703,-0.543427631720195,0.8167347997708506,0.09661287293460663,18.918047239502613,42.02312226601709,23.716057614621203
1760515907.918423,-29.04219415390452,-0.5410664218271055,0.8231705173423632,0.08195538686705925,21.64778506680104,44.31003066846807,26.609116916745318
1760515907.9283452,-28.776631291164254,-0.5320990146326247,0.8297130849543468,0.07065590985124899,24.3542800534845,45.43416048528342,29.479186347632254
1760515907.9383607,-28.473248186347817,-0.5159372231310294,0.8371724205124461,0.06347651206027133,26.96867858678863,45.34840548768999,32.303844962643886
1760515907.948329,-28.13211554707284,-0.4927464947817132,0.8465639510454143,0.060672473596769534,29.459218078164408,44.139630187080854,35.07124629239411
1760515907.958403,-27.75350896514107,-0.4635395797628173,0.8589528604070923,0.06190439296581245,31.831264410334153,42.03590859831728,37.7768306860856
1760515907.9683228,-27.33809535791825,-0.4301773711463376,0.8752659268894444,0.06625188366640156,34.12138940375352,39.39438966870931,40.41713835658545
1760515907.9783812,-26.887202663253888,-0.3952824765787062,0.8960962864872378,0.07232936877798869,36.386015679022705,36.668466538653036,42.98160868584807
1760515907.9883392,-26.403143470044498,-0.3620696111805909,0.9215283845302628,0.07848633215769697,38.686103364252354,34.35605745216165,45.44380565224731
1760515907.9984236,-25.88954529291784,-0.33409072163630804,0.9510124040389419,0.08305979663083803,41.07003940496893,32.934028996239554,47.75384403766741
1760515908.0084343,-25.351624205947626,-0.3148947678764459,0.9833173851897501,0.08463480283884282,43.55723335827435,32.786713487614406,49.833844663605134
1760515908.0186803,-24.796330518031027,-0.307615536775505,1.0165865026184797,0.08226354246091964,46.12493439894272,34.138572333522674,51.57800467167376
1760515908.0285292,-24.23229848624852,-0.3145181874145729,1.0485039650495165,0.07560091051358198,48.700479489734704,37.00181355201011,52.858348650332005
1760515908.038445,-23.669547815538113,-0.3365516085082629,1.076561487335368,0.06493248834743244,51.16057178248058,41.14888134745275,53.53645783462392
1760515908.0483387,-23.118913627655314,-0.37297140911680216,1.0983881180835038,0.0510932162672227,53.338315318771144,46.117158990651184,53.48051060447293
1760515908.058356,-22.591223837986416,-0.4211162641402574,1.1120876063618463,0.03529457331740765,55.037701896861996,51.249116462760654,52.58589083226918
1760515908.0687726,-22.09629580502916,-0.47642774806095006,1.1165189413990841,0.01889258612979061,56.05420107195348,55.765841436164,50.79653623145273
1760515908.0783575,-21.64187992697087,-0.5327870872209499,1.1114620050929664,0.003138227923661107,56.1991847458057,58.866013610639634,48.12328424260492
1760515908.0884366,-21.23272229256591,-0.5831923687461427,1.097632113075563,-0.011046172217268616,55.32524250257115,59.836863721509886,44.6550656704138
1760515908.0983558,-20.869932764894248,-0.6207172423975941,1.0765412159755328,-0.023227841431239724,53.349121364962784,58.159882749710086,40.55935025825788
1760515908.1083689,-20.550813032501992,-0.6395958031446932,1.0502413618599318,-0.03353765609858232,50.26914759446845,53.59348828677704,36.070058473283225
1760515908.1183867,-20.269218488129265,-0.6362082156043634,1.021015805721803,-0.04264465077511985,46.17455916703558,46.218201452231725,31.463984811305835
1760515908.1284037,-20.016414758203965,-0.6097384165403912,0.9910930948793886,-0.05162647801592785,41.24506372648181,36.43644529267184,27.029742460973488
1760515908.1383643,-19.782275473145788,-0.5623474328398788,0.9624434005261556,-0.061742218222428875,35.740004204977836,24.927129433394132,23.035187040510973
1760515908.1483943,-19.556586665271865,-0.4988232279139599,0.9366797197947597,-0.07413407894668451,29.977733115643552,12.56283951202835,19.699461103662298
1760515908.158381,-19.33020175705395,-0.42578742510974654,0.915045997333899,-0.08951207810939371,24.307114396397903,0.3031754863738353,17.17424698002207
1760515908.1683547,-19.09584041374159,-0.350629531302479,0.8984482896544705,-0.10789753138663062,19.074276336247756,-10.919324897092565,15.536201975068682
1760515908.1783633,-18.84843094966162,-0.2803846413775553,0.8874834897296155,-0.1285009670945655,14.588554974304701,-20.304309217409745,14.789844006591212
1760515908.1883552,-18.585020620387546,-0.22076535727614371,0.8824391319179091,-0.14978138701209565,11.091822571644341,-27.265933797220796,14.878199796329866
1760515908.1984494,-18.304375392678917,-0.17550712701737967,0.883264116446284,-0.16968549768085817,8.735049849350927,-31.482807594889273,15.697717861948346
1760515908.208595,-18.00643445866875,-0.14610487599809235,0.8895302052092194,-0.18601704335609134,7.56504524416787,-32.91132988968602,17.114185636197618
1760515908.2183647,-17.691776918919917,-0.13193179462664595,0.900411619414723,-0.19685478341857046,7.522971443892464,-31.763914886023873,18.977283186433386
1760515908.2283783,-17.36121658803089,-0.13066070483473494,0.9147066414825126,-0.20092949027494408,8.45468112318973,-28.458743750142702,21.132513102752608
1760515908.2383635,-17.01558462715912,-0.13886791542062332,0.9309151183901883,-0.19788369117918878,10.131404891514132,-23.551268856823505,23.43022024732219
1760515908.2483842,-16.655703838062248,-0.15269149716601324,0.9473722018365198,-0.1883668496681222,12.278064829585444,-17.65910306081817,25.73206207128778
1760515908.2583556,-16.282514503529878,-0.16843391541316244,0.9624239590027865,-0.17395471886086586,14.605584421502282,-11.391178822952337,27.915573306547028
1760515908.2683907,-15.897285620791902,-0.18303137819501872,0.9746181431861356,-0.1569152216119582,16.843098475791603,-5.289663903843151,29.877470699455245
1760515908.2783747,-15.501837293702344,-0.19434840874827294,0.9828769779130574,-0.13986777715203075,18.76601763452367,0.21022913851417338,31.536182984623746
1760515908.2884753,-15.098707227845127,-0.20128958880214004,0.9866203568694,-0.12539674812887563,20.2165165587784,4.800979369606498,32.83384710450058
1760515908.2986195,-14.691211969623602,-0.2037465747633937,0.9858173878621532,-0.11568308234907217,21.114143742749565,8.305632645557388,33.737727164347476
1760515908.3085852,-14.283374042948408,-0.20241375367670603,0.9809590075997515,-0.11221094219727629,21.455733936328627,10.666662996547306,34.240751356878754
1760515908.3183477,-13.879704137351299,-0.1985126277262654,0.9729600284979697,-0.11558948066562223,21.30539686386249,11.92578175261856,34.36071811017246
1760515908.3285277,-13.484845819766706,-0.1934706981333413,0.9630115939449926,-0.12550911742940668,20.776781962618273,12.199624681064204,34.137769813608685
1760515908.3383462,-13.103114211594763,-0.18860711089018187,0.9524118322665331,-0.1408314134715895,20.01082546221256,11.65529987922025,33.62997286304048
1760515908.3483448,-12.737987167625736,-0.18487703627021335,0.94240166050113,-0.15979266411352377,19.152598237094253,10.488342888562537,32.90720445476068
1760515908.3583539,-12.39162747722317,-0.1827134596948749,0.9340253845790472,-0.18028400836561667,18.330650019954355,8.904200063799912,32.043922719117916
1760515908.3683357,-12.064519211249532,-0.1819831066185683,0.9280273179875884,-0.20015932640494577,17.641502455451057,7.103322760195312,31.111683744383885
1760515908.3783524,-11.75529034798189,-0.182052521521579,0.9247911941684365,-0.21752151620207172,17.14088985850329,5.269431582511492,30.172387147859506
1760515908.3883455,-11.460771713054232,-0.18194567730797293,0.9243278362610924,-0.2309479182643953,16.842189911004596,3.5604155774026145,29.273144187163123
1760515908.3983436,-11.17631172836901,-0.1805631626449598,0.9263128945560329,-0.23963097326649094,16.72138561375034,2.101487964689248,28.443389481814336
1760515908.408368,-10.896327217198044,-0.17692182700334147,0.9301676929277282,-0.2434245428182085,16.726981850134116,0.9804701090431869,27.69447266542571
1760515908.4183524,-10.615025199547183,-0.17036641449689668,0.9351665563902102,-0.242798380288803,16.79268532791317,0.24532034423294644,27.021567045209583
1760515908.4283583,-10.327190092728715,-0.16070932474266755,0.9405503201076045,-0.2387155083822909,16.8504489729153,-0.0958140565703915,26.4073999837491
1760515908.4384074,-10.028910081280074,-0.14827338706674104,0.9456293347645323,-0.23245939180226313,16.841721676283775,-0.07174727348010078,25.82709254258717
1760515908.4485943,-9.718124331680896,-0.13383725271062324,0.9498646115872522,-0.2254439333672479,16.725362214887983,0.25745660534897674,25.253318912923078
1760515908.4584272,-9.394906099205542,-0.11850321322076529,0.9529183502610843,-0.2190353548509176,16.481497566491267,0.8087486501673965,24.661058881596432
1760515908.4683444,-9.061444457125257,-0.10351849918242924,0.9546672059978962,-0.21440496586563093,16.111419783038812,1.4861830600702808,24.031381824691284
1760515908.4784322,-8.721736304849694,-0.09008402589728509,0.9551776392893513,-0.21242278682908208,15.634255085392509,2.1917600016218657,23.3539134725725
1760515908.4883728,-8.381039413600506,-0.07918054083698882,0.9546518017090814,-0.21359600063517584,15.081520668222462,2.83580617992447,22.627856094352783
1760515908.4983575,-8.045160827953085,-0.07143331883225372,0.9533593027297995,-0.21805127244928035,14.490803744000122,3.3457536003028943,21.861634205632175
1760515908.5083668,-7.719664738402227,-0.06702708467223906,0.9515715129366946,-0.22555580355750907,13.899696753153615,3.6724567840034954,21.071399727528842
1760515908.5183814,-7.409086567537528,-0.06567644300816029,0.9495118523924635,-0.23556975352585585,13.340866192768594,3.7935997858538957,20.278736626787882
1760515908.5286431,-7.116240969783008,-0.06665397771399124,0.9473299610117863,-0.2473219928839996,12.838790702200745,3.714172581495592,19.507952958564783
1760515908.5383532,-6.841710863913665,-0.06887564276306202,0.9451011616968722,-0.25990091758787603,12.40834151660183,3.464308814495981,18.78334369979993
1760515908.5486045,-6.583596797650843,-0.07103812090054372,0.9428467626571851,-0.2723519975409093,12.05504499353644,3.094899895075542,18.126757245643
1760515908.558373,-6.3375837241456585,-0.07179472630236845,0.940566972388884,-0.2837739700220728,11.77660686450691,2.6713845398938467,17.555710245925784
1760515908.5683658,-6.09734345662091,-0.06994744824875007,0.9382768223785545,-0.2934062234016885,11.565134538761,2.266096476726428,17.082181872825778
1760515908.5783505,-5.855240085727223,-0.06462593326323743,0.9360358686986084,-0.3007007118526749,11.409488229600719,1.9496546361987823,16.712098284577362
1760515908.5883796,-5.603251274953633,-0.05542189816512953,0.9339641152565343,-0.3053721215021112,11.297304242382344,1.7821198364903288,16.445417948037576
1760515908.5984013,-5.333973857543288,-0.042452613152625586,0.9322397626537,-0.3074203800226793,11.216417570747032,1.8049322397601748,16.276668606770528
1760515908.6086047,-5.041563743387491,-0.026341688154485402,0.9310789010042708,-0.30712155853551754,11.155617092694472,2.03482458958119,16.195758622911868
1760515908.6183503,-4.722477622186762,-0.00812557815081088,0.930701714754815,-0.30498753797975003,11.104850899585688,2.460817772078778,16.188868626282154
1760515908.6283548,-4.375932366481286,0.010888640207279546,0.9312925584560781,-0.3017006120206799,11.055117173744156,3.044991975926435,16.239233868713068
1760515908.6384354,-4.004059293646132,0.0292814470866853,0.9329621827115916,-0.298034519111269,10.998294102293983,3.727089182142763,16.327690528847647
1760515908.6483734,-3.611781233678654,0.045667004695884215,0.9357200064736495,-0.2947753304309884,10.927082851068521,4.432328938419912,16.43298821442738
1760515908.6583545,-3.206463265512702,0.05881297834878386,0.9394625893980237,-0.29265213159026665,10.835105666708989,5.081269313914345,16.5320165376225
1760515908.668467,-2.7973825904269747,0.06773456259747321,0.9439809872097995,-0.2922807465871479,10.717081312284492,5.600207868541797,16.600185592400244
1760515908.6783473,-2.3950455927095984,0.07177065609488188,0.9489850745621354,-0.29411916033035074,10.568941015559023,5.930542643854234,16.612196404371172
1760515908.6883578,-2.010370687400459,0.07064776638273858,0.9541388470631487,-0.29843339889778014,10.387761692456557,6.035724794616395,16.54334011207353
1760515908.6983745,-1.6537659025211942,0.0645285402544876,0.9590987293962363,-0.3052751937653732,10.171460668272788,5.904896479509627,16.37130889567042
1760515908.7083514,-1.3341596884905849,0.054032770765961455,0.9635476128662404,-0.31447443137813924,9.918288859848253,5.552902420261758,16.078337781653534
1760515908.7183506,-1.0580793385534988,0.040215387209615816,0.9672201699952385,-0.32564894032452957,9.626250190848948,5.016940631164304,15.653372761319147
1760515908.7283669,-0.8288948266557288,0.024491296937147362,0.9699184632458187,-0.33823223922870116,9.292637437824881,4.350570247862378,15.093909086101181
1760515908.7383888,-0.6463435821886604,0.008508424509659667,0.9715192538070454,-0.35151764837120564,8.913884400069794,3.6160877518729824,14.407173299075179
1760515908.7485335,-0.5064224875439802,-0.006017816679412254,0.9719748312809671,-0.36471549069783377,8.485878394950785,2.876424963762972,13.610421167460107
1760515908.758354,-0.40168485192121495,-0.01748718740226816,0.9713083746289971,-0.37701913754632443,8.00476524992594,2.187720845267588,12.730261271383702
1760515908.7683558,-0.3219235007629879,-0.02458984296248087,0.9696044909634721,-0.3876751756513498,7.468144213326678,1.5935732399871112,11.801053540277847
1760515908.7783654,-0.2551682242648126,-0.026451363495033377,0.9669961153931506,-0.3960524519566358,6.876434198351339,1.1216949425033496,10.862545469439928
1760515908.788371,-0.18888645575896057,-0.022730660748989502,0.9636491730929397,-0.40170369573761355,6.234126830804073,0.7833123043782179,9.956983601825563
1760515908.7985456,-0.11125634552659278,-0.01366219549726919,0.9597457216609103,-0.4044128065741822,5.550638575866616,0.5752029458633658,9.125969963966712
1760515908.8083715,-0.012383001821242369,-4.308614306698749e-05,0.9554659200484856,-0.4042227525979449,4.84052979067144,0.4838314780291266,8.407321838211924
1760515908.8183665,0.11465399604150826,0.016827670099102382,0.9509701940384295,-0.4014428993055113,4.122957084821941,0.49067812720699144,7.832148575764687
1760515908.8283665,0.27301300778127013,0.03524982243550107,0.9463846613149959,-0.39663678179905754,3.4203438904831858,0.5776424490696774,7.422305898257081
1760515908.8384435,0.4616390721293925,0.05325807074784706,0.9417936479663822,-0.3905895280167275,2.7563676918751185,0.7314094019433087,7.188349844548411
1760515908.8484042,0.6752134869397958,0.06879225923434198,0.9372422570007187,-0.3842507956767402,2.1534525409583067,0.9459079345439798,7.128092713212312
1760515908.8584085,0.9045480707137554,0.07989725658907781,0.9327498438314537,-0.3786488869253409,1.630016703008306,1.2224238459745556,7.22585085967446
1760515908.868372,1.137428255395449,0.0849402261344609,0.9283325345112399,-0.3747772069187268,1.1977612926451398,1.5674466165223577,7.452461632627361
1760515908.8784547,1.3598484809213607,0.08282272471395029,0.9240299257201383,-0.37346388516509504,0.8593058436312654,1.9888205381419088,7.766136340182448
1760515908.8884344,1.557512594610698,0.07315743278713871,0.9199283483238002,-0.37524416386581455,0.6064954996210415,2.4911445195238344,8.114211491852961
1760515908.8984544,1.7174136775309248,0.05637931060773651,0.9161719740308728,-0.3802581123850179,0.41973029407851215,3.0715662145185614,8.435856887416033
1760515908.9084969,1.8292837383053173,0.03376952474272162,0.9129553627913455,-0.388192763887798,0.2686820226082664,3.7171086892275116,8.665783184328454
1760515908.9183626,1.8867217351010122,0.007383454042137363,0.9104969246584294,-0.39828142722759,0.11472319174142204,4.404430097232083,8.73895016103883
1760515908.9284549,1.88786087631964,-0.02011365311527086,0.9089998320034717,-0.40936668535692816,-0.08475088815816775,5.102457951603574,8.596200910563242
1760515908.9384596,1.8355083265112135,-0.04569068234852634,0.9086120052635147,-0.4200272335043477,-0.37018821879712904,5.777719841870233,8.190628353026208
1760515908.9484115,1.7367674723711268,-0.06625539601697834,0.9093980111808382,-0.42876066094885285,-0.7723750390420425,6.401526584998541,7.4943128587494945
1760515908.9583664,1.6022219988724484,-0.0789966933913471,0.9113327002704269,-0.43420442919103647,-1.304404513504407,6.9575992875584785,6.504859066286189
1760515908.9685636,1.4448115803097359,-0.08173815447831766,0.91432009873916,-0.4353677556182881,-1.9543426628632459,7.448402788452839,5.250927134959088
1760515908.9784029,1.2785556934959714,-0.07327357298661637,0.9182338078667178,-0.4318407282211448,-2.6800893473742993,7.898431083966287,3.795731408709229
1760515908.98839,1.1172861956237383,-0.053650845270081605,0.9229695699362097,-0.4239456569388195,-3.408032342251705,8.352994806028553,2.237315538579949
1760515908.9984086,0.9735324381847337,-0.024366748665967077,0.9284974840654853,-0.4128000147024765,-4.036965342058749,8.871650049010288,0.7043798359114728
1760515909.0085382,0.8576624365124527,0.011564448766625096,0.9348994365186679,-0.4002694653329305,-4.448345918559648,9.516223307988444,-0.6533734757498766
1760515909.018444,0.7773210326450812,0.04969983958795274,0.9423761798228764,-0.38880080156567864,-4.523275637809729,10.334352472087614,-1.680909515735037
1760515909.0283656,0.7371346640019214,0.08443601011532345,0.9512106910041226,-0.3811358107233675,-4.165579996939843,11.340467295279021,-2.2392178767824347
1760515909.0384781,0.7385961262936275,0.10946522701874152,0.961683941903531,-0.37991921493117864,-3.329104943385549,12.497001921759548,-2.2308869026039466
1760515909.0483963,0.7800250938416852,0.11841040928767568,0.9739556905386717,-0.3872298866059797,-2.0460081885264385,13.699145071323251,-1.6272507598843486
1760515909.0583916,0.8565313765894804,0.10560623122917526,0.9879385752146365,-0.404084347780683,-0.4516892344573359,14.766444982513553,-0.4936064444797343
1760515909.0684125,0.9599706772473702,0.06696262518950655,1.003199083956369,-0.4299814224208755,1.1986591859313644,15.444160588256421,0.9913696641200246
1760515909.0784168,1.0789346758552991,0.0008047344538137329,1.0189111003616353,-0.4625740242023263,2.526903027263871,15.41654130361601,2.5258472180274625
1760515909.088388,1.198825385055738,-0.09146191139694021,1.0338727435380581,-0.49756581393129456,3.0464726863166294,14.333194516371918,3.688270999150008
1760515909.098372,1.30203600161632,-0.20503663379021472,1.0465851662501273,-0.5289283742857755,2.1971141169594097,11.84815400376634,3.9569851739737727
1760515909.1086078,1.3682369846018083,-0.3319142846328756,1.0553897355051862,-0.5495050967450473,-0.6000797677469729,7.669107764366239,2.747974602019383
1760515909.118368,1.37478135697802,-0.46166283026537086,1.058665292260011,-0.5520027208486259,-5.87061528535155,1.611695380695248,-0.529141254518579
1760515909.128376,1.2972982517138854,-0.5827519386202321,1.0550880162487477,-0.5302749919264589,-14.004450091873055,-6.348712909934453,-6.399315875341273
1760515909.1384757,1.1106039410752655,-0.6842501363140785,1.0439390620949982,-0.4806914668739987,-25.174197451652176,-16.037207090966728,-15.240186239150447
1760515909.1484172,0.7900761129748123,-0.757551053562986,1.0254068658526638,-0.4032830014123481,-39.266815715041076,-27.061445173128767,-27.19925315377233
1760515909.1584141,0.31357551686977686,-0.797684938376807,1.0007913002734241,-0.30230806573530855,-55.84299056223383,-38.823995933998496,-42.12233708497172
1760515909.168646,-0.3361445537585669,-0.803845372967153,0.9725127016462557,-0.185958452952615,-74.1371545804112,-50.5691920671737,-59.50754148428656
1760515909.1784015,-1.1687972105918831,-0.7790579339687566,0.9438798989888184,-0.06515032683650317,-93.10702199504989,-61.462870958336744,-78.49943845447542
1760515909.1883645,-2.1841362251568857,-0.7292456625266948,0.9186478930441695,0.0483548039268695,-111.53439218578016,-70.69652853532968,-97.93611265150652
1760515909.1987598,-3.3703015873729187,-0.662050246777209,0.9004472732934411,0.14402933299532067,-128.1685880260018,-77.6001131634757,-116.45529246305955
1760515909.2084577,-4.7034586462962915,-0.5856528595135556,0.8921816084489476,0.21432492264371558,-141.89097806102694,-81.74115730819258,-132.65366118865754
1760515909.2185693,-6.149054823853685,-0.5077208310448409,0.8954932665864329,0.2556645425248384,-151.86754009967697,-82.98620161798529,-145.2768696645495
1760515909.2285469,-7.664684795659253,-0.43458948210550624,0.9104083946655421,0.2685269926793247,-157.65371317069116,-81.50816265475564,-153.40266727038326
1760515909.2388456,-9.204176060570422,-0.3707880553618252,0.9352654262019616,0.2567701887736643,-159.22707893554275,-77.73927941966929,-156.57487327060676
1760515909.2483845,-10.72221221115293,-0.31895356670536895,0.9669755811932019,0.22651767562861014,-156.94518793546487,-72.28531787703832,-154.85701838825742
1760515909.2584958,-12.178705820901184,-0.2800716701830496,1.001564290868951,0.1849358791541925,-151.44721346750367,-65.8248815385715,-148.7972039919966
1760515909.2683773,-13.54223311824957,-0.25390508903448067,1.034852236945848,0.1391325618598267,-143.52955595548102,-59.01647971723327,-139.31891685161685
1760515909.2784114,-14.79208392533432,-0.23945198206630253,1.0631056822331415,0.09529912894569813,-134.0248887291982,-52.428846384459156,-127.56707488807874
1760515909.2883723,-15.918772377680225,-0.2353116303376189,1.0835228112192765,0.05813949942388204,-123.70532242786055,-46.50095704186065,-114.74227784728211
1760515909.2984169,-16.9231223348983,-0.23989476146097036,1.0944906753131538,0.030581525213831288,-113.21896868068424,-41.53018124207898,-101.95174856268014
1760515909.3085308,-17.814240685062497,-0.25147600879431775,1.095610113638378,0.013745317904249807,-103.05952214257168,-37.68166693971483,-90.0965414959522
1760515909.3186288,-18.606804914569924,-0.2681378997073715,1.0875298263440505,0.00713164780033268,-93.56250262403016,-35.00978426542073,-79.80444223635634
1760515909.3286943,-19.318123219018076,-0.2876953271688941,1.0716576573419019,0.008982013852112544,-84.91941260357326,-33.48286676925185,-71.40889853438193
1760515909.3384907,-19.965391069018438,-0.30769905805039033,1.0498294101282724,0.01674908959484037,-77.2012996251633,-33.005018520617554,-64.9676880211975
1760515909.3484225,-20.56348245174367,-0.32557755751959,1.0240096076615728,0.027606961319157495,-70.38513109172122,-33.43258221723002,-60.31117143419011
1760515909.3583899,-21.123491528709966,-0.33890270853752497,0.9960726039815133,0.03893074862907709,-64.37911134705783,-34.586456314158795,-57.10842305110695
1760515909.3683906,-21.652100675661934,-0.34570299468360244,0.9676757490033059,0.04868699378564875,-59.045578309049546,-36.263221198262656,-54.93963310522033
1760515909.3783977,-22.151717904206937,-0.34473079407544216,0.9402063373035139,0.055694472748582066,-54.22158039822162,-38.2476330950573,-53.36459693431294
1760515909.3883655,-22.62122236931222,-0.33561525025620303,0.9147717162733802,0.059732552889825,-49.73751227055313,-40.32743717047106,-51.97962446730836
1760515909.3984253,-23.05709435678071,-0.3188755561118237,0.8922044204177579,0.06149029853292574,-45.43381209645981,-42.30978367485945,-50.45836696391427
1760515909.4085915,-23.454688263760858,-0.2958092923754244,0.8730636077211078,0.0623689683194728,-41.17539174614181,-44.037316938253085,-48.575185416317446
1760515909.4184089,-23.809427552439384,-0.2682940780736976,0.8576266860918129,0.06417454219755514,-36.86351176819873,-45.401267583317626,-46.21218615878259
1760515909.428383,-24.11775131064543,-0.23854828795359692,0.8458809293212038,0.06875892688843678,-32.44501101121321,-46.348610181214276,-43.352668902791784
1760515909.4384496,-24.377717051834406,-0.20889572342132165,0.8375410622014839,0.07767921538858875,-27.91869477458606,-46.8807044780403,-40.06453231907636
1760515909.4483774,-24.589254182235656,-0.18157108913757955,0.8321200834561452,0.09193950271214141,-23.33808589896508,-47.04196596924989,-36.47735379769584
1760515909.4583728,-24.75414258451741,-0.15857960354975947,0.8290480112086607,0.11186064422410791,-18.809048929496946,-46.89896809500265,-32.75659565006565
1760515909.4684465,-24.875828044187273,-0.14159053274574404,0.8277820252960555,0.137091792035918,-14.480801938914386,-46.51267674889115,-29.07786539722361
1760515909.4783883,-24.959169268609234,-0.13183308816405934,0.8278379285147728,0.166737883273114,-10.53001287798759,-45.908671593730126,-25.60354583723616
1760515909.4884999,-25.010164499792282,-0.12999334768168275,0.8287239645789372,0.19954448202549677,-7.139541480556481,-45.051422169442226,-22.463585826759672
1760515909.4986014,-25.035663546649452,-0.13615029934964953,0.8298267381800045,0.23407547501287862,-4.474806422641292,-43.828452159040104,-19.741887021621917
1760515909.5083966,-25.043048111950704,-0.14979106758244332,0.8303262195844849,0.2688441172061521,-2.6611544012101604,-42.048699980798574,-17.469396561535486
1760515909.5184102,-25.039858172508836,-0.16990993703134769,0.8291960725785279,0.3023938217110591,-1.7653590595358652,-39.45705497160404,-15.624472915801073
1760515909.528384,-25.033353956817315,-0.19516145441880653,0.8253046024365561,0.33334683358366146,-1.7839308982275808,-35.76427045069657,-14.140254392820783
1760515909.5384083,-25.030031404911224,-0.22402973806881135,0.8175939218841819,0.3604389919436616,-2.6401454016837453,-30.688567301166604,-12.917795486461745
1760515909.5484304,-25.035144740296523,-0.2549870175341635,0.8052914934452066,0.38254833687871137,-4.190333780653299,-24.00282581666691,-11.842901791143799
1760515909.5584471,-25.052315374040766,-0.2866260366640354,0.788101468845482,0.3987185047634688,-6.238248324289626,-15.579960506816517,-10.804094425702498
1760515909.5684307,-25.083307631007354,-0.31775588183533704,0.7663301758498866,0.4081787706023072,-8.554835027994491,-5.429204732530741,-9.709072999333177
1760515909.578429,-25.128026979466316,-0.34745381871697867,0.7409160299348786,0.41036564931023006,-10.900041782006488,6.282509678550765,-8.497405360546484
1760515909.588544,-25.184753705227028,-0.37507189566497656,0.7133548351661212,0.4049499539327065,-13.043466118806624,19.227479216808266,-7.147837193725935
1760515909.598523,-25.250576209458462,-0.40020553455547436,0.6855329238759184,0.39186751398537206,-14.781445800226718,32.93297907335681,-5.6794400127848474
1760515909.6084785,-25.321946807060637,-0.4226386215053345,0.6594987990530853,0.3713453236062601,-15.949234787369525,46.813583652753245,-4.146683261801169
1760515909.6184013,-25.39526101022333,-0.44228277142014283,0.6372148491307125,0.343912381594758,-16.42787426172429,60.21571048923231,-2.629331704727482
1760515909.6285732,-25.467363349038404,-0.4591259256754834,0.6203313385080252,0.31038819909307014,-16.146103490180515,72.46890381153983,-1.2187448262614633
1760515909.6385646,-25.535904655520067,-0.47319896555915264,0.6100153376158789,0.2718497775439031,-15.078134220435839,82.9381307415089,-0.002611485216271842
1760515909.6484182,-25.59950906429673,-0.4845626062977862,0.6068517969966546,0.22958409599282933,-13.238369825755475,91.07184468415393,0.9496716195275889
1760515909.658476,-25.657744962765204,-0.4933121153355638,0.6108188915907832,0.18503340304489718,-10.674200101380352,96.44166244260501,1.5989331282827246
1760515909.668403,-25.71092463415758,-0.4995923210319525,0.6213293899092052,0.13973620371661738,-7.4578351065790045,98.77102474638052,1.9439558483409392
1760515909.6783943,-25.75977643875259,-0.5036087226196061,0.6373247918721087,0.09526277152632012,-3.6777997350537537,97.95179368439527,2.0242880146089353
1760515909.6884367,-25.805039448636474,-0.5056159535360082,0.6574080054430737,0.05314316602838322,0.5696628744793958,94.04900839847893,1.9182951418552832
1760515909.698406,-25.847026593074723,-0.505868745762595,0.6800018114739058,0.014787270800151943,5.189238769860461,87.29485662122866,1.7373402021420108
1760515909.7085285,-25.885194475183543,-0.5045352617794503,0.7035225867217174,-0.018600776626849655,10.095096239171788,78.0734065171018,1.6174185923371707
1760515909.718693,-25.917751926608766,-0.5015931276753469,0.7265600041706299,-0.0461068778945722,15.218785907640054,66.89784611949342,1.7096324356579329
1760515909.7284107,-25.94133852709465,-0.49674539366855625,0.7480523284368397,-0.06717749795924143,20.515392028370904,54.381933815718035,2.170571588954424
1760515909.738489,-25.950808608645453,-0.48939881075912456,0.7674428111298961,-0.08166017533505956,25.966469551327954,41.207163747373144,3.1531115162409704
1760515909.7484157,-25.93916226758904,-0.4787368663183954,0.7847969280551914,-0.08979928793296403,31.5783503372528,28.08692676595675,4.797549241385773
1760515909.758434,-25.897667292793212,-0.46389719872986457,0.8008564820243262,-0.09218010483729697,37.37496175657457,15.728804964744354,7.222574669770323
1760515909.7684295,-25.816209072941515,-0.44423286802903345,0.8170081848575761,-0.08962573975900351,43.38529172705339,4.796104961189773,10.515464981013618
1760515909.7783883,-25.68388566706479,-0.41960635620935827,0.8351516152938054,-0.08306299550359371,49.62680598137074,-4.13016207255156,14.721169490993383
1760515909.7886505,-25.48983326435901,-0.3906434063678353,0.8574633108860642,-0.07338136010380998,56.087090821522416,-10.5872946379882,19.830587108510844
1760515909.7984488,-25.224229834553217,-0.3588711427706854,0.8860696127700673,-0.06131344910903117,62.70646104032361,-14.26271130412919,25.769187392912418
1760515909.8085248,-24.879390305624145,-0.32668479931744304,0.9226594998542884,-0.04736409129453021,69.36425647681989,-15.018680817574573,32.387965278663316
1760515909.8184423,-24.450840723245506,-0.29712231000145556,0.9680864350925892,-0.031808274955239434,75.8712613382424,-12.906787091059043,39.45926774734199
1760515909.828429,-23.93824434916638,-0.2734646111502091,1.0220210683598516,-0.014766589937806076,81.97022811619782,-8.169270681167353,46.6800351234262
1760515909.8385766,-23.346052208069697,-0.25871553177183126,1.082722318069472,0.0036463760997073533,87.34585082762355,-1.22537305385695,53.68436385772889
1760515909.848603,-22.683767060607586,-0.2550464366896849,1.146990938498436,0.023119154009693735,91.6447097575376,7.357654641718317,60.06612166982356
1760515909.858439,-21.96574389326725,-0.26331172376552403,1.210352594456121,0.04292176621747724,94.50473640309244,16.907290435112987,65.41082157856336
1760515909.8684492,-21.210498573290646,-0.2827422144287722,1.267483191652518,0.06172135248344992,95.59258856434815,26.698633791228005,69.33426922357216
1760515909.8785558,-20.439553129599986,-0.3108996288073444,1.3128426651569751,0.07750459157164252,94.64588841099544,36.01226512922843,71.52385349509672
1760515909.888499,-19.675904377528862,-0.3439311005477954,1.341436729165094,0.08767002603919713,91.51557203145917,44.19108057891457,71.77708111866042
1760515909.89846,-18.942255230135594,-0.37710477129008907,1.349588784236469,0.08932151679291271,86.20194837566858,50.69011727746862,70.03144132403644
1760515909.908453,-18.259186182684477,-0.40554183576202596,1.3355810931529135,0.07974158290388501,78.87718709065122,55.11416964059572,66.38024122242209
1760515909.918416,-17.643458548729832,-0.42500073185442677,1.3000258652478287,0.05696387392676348,69.88770729417492,57.23963823700426,61.07081662084085
1760515909.9285161,-17.106625515130855,-0.432539924793072,1.245870037776968,0.0203202722756138,59.732754437461075,57.01938108832521,54.48431546115713
1760515909.938473,-16.654084804992817,-0.4269073093193134,1.1780230815105108,-0.02916855727320792,49.01990489176076,54.571755554057916,47.09948308055688
1760515909.9484308,-16.284649783757835,-0.40857619091558534,1.1026918580251568,-0.08865961676521335,38.40310402744575,50.156925305267244,39.445691084567365
1760515909.9585257,-15.99066211277605,-0.3794474259786822,1.0265651444596426,-0.1536628852683176,28.51261620735672,44.14456547568514,32.052043060239086
1760515909.968578,-15.758633469883655,-0.3423297936530308,0.9559948956104534,-0.21852614545696372,19.887872570423532,36.97729828187669,25.399384308691133
1760515909.9784145,-15.57038665404675,-0.3003613850889511,0.8962894319744643,-0.2771752274889733,12.923441583821491,29.133641454959108,19.880672557677276
1760515909.98841,-15.404648616903465,-0.2565243417023028,0.851194297989193,-0.32399654428275204,7.8356853714483385,21.093241498623225,15.77309042612361
1760515909.998421,-15.239004410167103,-0.2133425869540828,0.8226044909103805,-0.3547012206091434,4.653812561781948,13.306151368838501,13.223193635926776
1760515910.0084057,-15.052045742103456,-0.1727713240371703,0.8105245593082724,-0.36699795742228614,3.234811648059164,6.16727163064611,12.244754684482722
1760515910.0184221,-14.82546896787252,-0.1362262998520171,0.8132637506148728,-0.3609365850704488,3.2980193526200323,-0.003211644847694031,12.727924243173085
1760515910.0284002,-14.545841641422424,-0.1046801868908581,0.8278227161723704,-0.33885582415529847,4.472533349738918,-4.972826505866641,14.457768733026594
1760515910.038588,-14.205794252140874,-0.07876721785654607,0.8504036636470147,-0.3049535377205011,6.349606721735039,-8.603160312035838,17.13992943133525
1760515910.0484312,-13.804495671842245,-0.058864928791343855,0.8769633218135129,-0.2645733985025773,8.532469595070586,-10.85001322157619,20.430921176623144
1760515910.058848,-13.347398368849303,-0.045145362648222324,0.9037291205801118,-0.22335369447890543,10.677391256132239,-11.758178625680182,23.970393196836945
1760515910.0685549,-12.845350875712839,-0.037600590370272975,0.9276122422357319,-0.18640308397769595,12.521837164479109,-11.451693226964162,27.412557953312856
1760515910.0786898,-12.31324619585423,-0.036050923961769114,0.9464736481844982,-0.15765064954344407,13.897928312059621,-10.12021352658086,30.454055697579605
1760515910.08842,-11.768401215752542,-0.040142162789160066,0.9592260201907249,-0.1394672555687268,14.731741928823714,-8.002052475493292,32.85584589458352
1760515910.0984232,-11.22885153364022,-0.04933366932567637,0.965780375925373,-0.1325856662861272,15.030976768631811,-5.3645668025789055,34.45734109116625
1760515910.1085315,-10.711714451484156,-0.06287753617958627,0.9668671245812,-0.1362800612699195,14.864851271853352,-2.4830333968461447,35.18190443379092
1760515910.1185079,-10.231739257307009,-0.0797950194729603,0.9637755059751335,-0.14872192833452777,14.340619939208755,0.3803057700881586,35.03389484575259
1760515910.1285887,-9.800139597449729,-0.09886590519831415,0.9580612929074452,-0.16741629238052297,13.58076414720539,2.995021040430418,34.08844557230037
1760515910.1385694,-9.423785795620446,-0.11865088202051965,0.9512702877613035,-0.18963357407003417,12.703919533418933,5.1772141073778135,32.47589296971421
1760515910.1484764,-9.104817372792802,-0.13756286603769333,0.944716717607245,-0.21277684731829125,11.811279841182731,6.798905369250147,30.363125265693007
1760515910.1584573,-8.840711768878453,-0.15399292806740084,0.9393432149070725,-0.23465219531254006,10.978934377405754,7.791673890508087,27.93410852276147
1760515910.1685417,-8.62481035025854,-0.16648168044330375,0.9356725835239634,-0.2536336829506045,10.25560614397391,8.144936155621572,25.37156951668178
1760515910.178467,-8.4472534523796,-0.17390839345415568,0.9338416552281197,-0.2687292133284767,9.66463808794308,7.8998088663782475,22.841396802034396
1760515910.1885436,-8.296214629676538,-0.17565362103035037,0.9336897403739421,-0.27955967479741783,9.208785172242058,7.139790980459021,20.48085250924202
1760515910.1984634,-8.159266670398885,-0.1716884431251303,0.9348666752576539,-0.28626741974265596,8.876343999786847,5.979563793648532,18.391209055965938
1760515910.2085242,-8.024684407601233,-0.16256194437841145,0.9369316258975035,-0.28937684853162193,8.647336062547273,4.553080800650299,16.634943226140237
1760515910.2184157,-7.8825091664769875,-0.14929108044599465,0.9394282248022883,-0.2896377153760432,8.498797825557446,3.0018482794922035,15.237143959957237
1760515910.228427,-7.7252608111608465,-0.13318607865642576,0.9419348288387349,-0.2878827430558705,8.408643817692536,1.4639817355982603,14.19036941377518
1760515910.238464,-7.548262246463719,-0.11565691899931708,0.9440950674380572,-0.2849210553858864,8.357972950278812,0.06438272037068014,13.4619005506985
1760515910.2484572,-7.349612104454677,-0.09804132357866403,0.9456344013440836,-0.28147289397177805,8.332011750211425,-1.0937168087589832,13.002228750090097
1760515910.2584028,-7.129885348668551,-0.08147849297456944,0.9463669612309594,-0.27813782987619173,8.320083936550784,-1.9355619522988117,12.753668968235678
1760515910.2684839,-6.8916523437663475,-0.06683397161022787,0.9461957836803748,-0.2753831032136971,8.31504765259447,-2.4196527095800535,12.658158653061577
1760515910.2784572,-6.638894315202925,-0.05466769941346432,0.9451089494891853,-0.2735405366192142,8.312571492830152,-2.5400278810241734,12.663539998158326
1760515910.2886345,-6.376375097915872,-0.04523331424761064,0.9431735563720559,-0.27280616528068896,8.310481737978536,-2.3256196328328436,12.727896275719061
1760515910.2986755,-6.109017514657534,-0.03849923552195361,0.9405284506658051,-0.2732420628279935,8.308265140508832,-1.8364491535747607,12.821792221041084
1760515910.308737,-5.8413282960530735,-0.034185785492693056,0.9373751935173348,-0.274782631275312,8.306696139277493,-1.1568018055120959,12.92852417799315
1760515910.3185368,-5.576913075779053,-0.03181476634033784,0.9339654849065702,-0.27724828432965243,8.307496505137298,-0.3859554070121955,13.042692655425647
1760515910.328541,-5.318118184171787,-0.030768451664632,0.9305831543846899,-0.2803690674940622,8.312935134604974,0.3725794504797529,13.167548944064228
1760515910.3385613,-5.065827438394581,-0.030354931284345445,0.92752041132805,-0.28381961998763766,8.325325014425099,1.0220986627283142,13.311628755158688
1760515910.3484137,-4.819430371919088,-0.029876572396364504,0.9250507254733534,-0.2872645693429316,8.346447404826678,1.4827438688035675,13.48517420571968
1760515910.3584423,-4.5769636701069425,-0.028697628836842765,0.9234027866612315,-0.2904098964499706,8.376998157377832,1.699382029556421,13.696778953495865
1760515910.368524,-4.335411479870102,-0.026306202982313582,0.9227401173019459,-0.2930524009476998,8.416179455511138,1.6464685044555716,13.950593006686631
1760515910.378591,-4.091136100432793,-0.022365933743039534,0.9231491746024187,-0.295118120835789,8.461538700576005,1.3294820079475507,14.244314008015744
1760515910.388682,-3.8403997271969743,-0.01675348392428574,0.9246363186456721,-0.296682027032964,8.509097240290723,0.7830165364318945,14.568086577498915
1760515910.3984654,-3.57992821737593,-0.009577829013897608,0.9271320722603646,-0.2979647669790642,8.553746223752684,0.0660388454507531,14.904343949245579
1760515910.4085133,-3.3074589585074503,-0.0011773663451721784,0.9305003469193123,-0.29930694901195526,8.5898372139768,-0.7449247691672635,15.228563209554707
1760515910.418467,-3.022211808313439,0.007906840479151144,0.9345507065945817,-0.30112662063667245,8.611860006316515,-1.5638337059557483,15.510859440163411
1760515910.4284143,-2.725228767863041,0.016979314146924628,0.9390527342252484,-0.303869245937394,8.615071251918412,-2.3036183652223983,15.71829806848867
1760515910.4385629,-2.4195413925772624,0.025254931923688297,0.9437523291298138,-0.30795937565322046,8.595920116074604,-2.8844057346219203,15.817747636104972
1760515910.4485044,-2.1101384242416032,0.031935515763497166,0.9483895282615226,-0.31375908872296776,8.552128906415978,-3.2408662800472765,15.779029973160636
1760515910.458412,-1.8037172278067102,0.036294878232913025,0.9527161968019607,-0.3215326853944019,8.482343905133064,-3.328109092354087,15.578064164119269
1760515910.4684255,-1.5082148759690301,0.03776847621915113,0.9565107310613296,-0.33141364578143023,8.385376478197708,-3.1255828969790542,15.199659970649439
1760515910.4784095,-1.2321356530268404,0.036039659097181466,0.9595870394871182,-0.34337101884437143,8.259185666264383,-2.6385241814490246,14.63961162870923
1760515910.4884603,-0.983726626170024,0.031107703210488582,0.9617967847026502,-0.3571778681902694,8.09986866099687,-1.8967141653108237,13.905793690085936
1760515910.4985557,-0.7700950241130834,0.023318897902477154,0.963026191971755,-0.3723906424493072,7.900977273821394,-0.9506783993668125,13.018081329167842
1760515910.5084696,-0.5963909212647153,0.013346715210097398,0.9631903658533872,-0.38835065084949655,7.653438035504496,0.13412182112306495,12.007094511813499
1760515910.518567,-0.4651787863985924,0.002119702467324174,0.962228524843678,-0.4042151574540241,7.34622992830242,1.2842618437567506,10.91194995609928
1760515910.528449,-0.3760911586521101,-0.009291032358313502,0.9601032664975386,-0.4190184267647445,6.967807905930463,2.4255645902934533,9.777340321780866
1760515910.5384538,-0.32581082119338983,-0.019805212353863375,0.9568061951365097,-0.43175668802466516,6.5080986925608535,3.4897399734183954,8.650311676694352
1760515910.548431,-0.30837995325318873,-0.028466890342921162,0.9523705810102524,-0.44148752814659226,5.960772501530245,4.419870044384815,7.577076059612656
1760515910.558502,-0.31579512509342544,-0.03456001391041184,0.9468888884901158,-0.4474328834614977,5.325433793200419,5.174401081654177,6.600107323701845
1760515910.5685081,-0.3388178236275354,-0.037692045378390354,0.9405297559668271,-0.4490741927072759,4.609383662532364,5.729494890506023,5.755674968290735
1760515910.578489,-0.3679091491365235,-0.03783536989173399,0.9335471592908907,-0.44622804922664877,3.8286671133751358,6.079713387472892,5.0719079646814205
1760515910.5884266,-0.3941821853158689,-0.03531991718106804,0.9262761381305272,-0.43909165243793497,3.0081979644887533,6.237092759317863,4.567449069725536
