timestamp,angle,linear_acceleration_x,linear_acceleration_y,linear_acceleration_z,angular_velocity_x,angular_velocity_y,angular_velocity_z
1760958844.7573469,-4.193403693636831,-0.06921554022376307,0.9840156611020193,0.001000424755450441,-1.523861223577116,-0.03488697261131642,-0.460408338710901
1760958844.7672856,-4.187287791654748,-0.06853132513709573,0.9848988234529886,0.001848564257711068,-1.5063406753763289,-0.039831547314373474,-0.42978861189236217
1760958844.777399,-4.179392590152833,-0.06793803460857394,0.9854736581125877,0.0026123218018599672,-1.4864596861894168,-0.02859084744158474,-0.39601324946621547
1760958844.787387,-4.170284619771916,-0.06750062948480408,0.9857223005509014,0.003267622671221774,-1.466087530964548,0.00220539299209091,-0.36080499451508424
1760958844.7975235,-4.160672361775105,-0.06727444047654772,0.9856498369614916,0.0037967220708651737,-1.446888879817769,0.053816402161780345,-0.3260889661654951
1760958844.8073716,-4.151349401246905,-0.06729814914232171,0.9852822990460817,0.0041872328212918305,-1.430236674059756,0.12481376432815623,-0.293736040700883
1760958844.8172815,-4.143127836217982,-0.06758985297619237,0.9846645678603808,0.0044307868608010805,-1.4172270288003666,0.2108999565916234,-0.26533488833320656
1760958844.827341,-4.136771803979661,-0.06814622128286178,0.9838575169442743,0.004521764014028116,-1.4087676809011753,0.30518782116263343,-0.24204946570286912
1760958844.8373015,-4.132939900305452,-0.06894440325962817,0.9829343008700367,0.004456669855612827,-1.4056847903478094,0.3989149773375979,-0.22459418016332724
1760958844.847379,-4.132142070797173,-0.0699457135571983,0.9819760389931811,0.004234706971198967,-1.4087884932882548,0.4824836092200826,-0.21332439129377717
1760958844.8573687,-4.134711796514746,-0.07109959101078403,0.9810667649369321,0.003859728194592232,-1.4188579960488674,0.5466564673301071,-0.20840571558036622
1760958844.8673196,-4.1407903179235985,-0.07234653863561967,0.9802870950949163,0.0033432051968073214,-1.4365428873952084,0.5837150070575097,-0.2100011572243316
1760958844.8774686,-4.15031812384506,-0.07361964954076126,0.9797063752552728,0.0027073361269522723,-1.4622133339972188,0.5883994472216639,-0.21840704350081797
1760958844.8872824,-4.163030109699299,-0.07484528673086503,0.9793740000833874,0.0019871638697572186,-1.4958143652939404,0.5584976990259113,-0.234080904504306
1760958844.8975575,-4.178453695305805,-0.07594407470515352,0.9793115794801784,0.0012306865260857246,-1.5367811133880114,0.49501721810483545,-0.2575360098012694
1760958844.9074876,-4.195912720214969,-0.07683352958155852,0.9795082258759306,0.0004964017634173976,-1.5840528892451602,0.40194562697263364,-0.28912051583937337
1760958844.9174545,-4.2145430402598825,-0.07743341051532185,0.9799211661922163,-0.0001515461417926376,-1.6361926238071418,0.28567006903028125,-0.3287409060066154
1760958844.927638,-4.23332712010857,-0.07767413418240682,0.9804828022416803,-0.0006496941251686655,-1.6915875897715233,0.15417227732959343,-0.37561599610648205
1760958844.9375644,-4.251153416017682,-0.07750743536330552,0.9811133140926369,-0.0009418023192886316,-1.7486888344246876,0.016138511096683846,-0.42815008236047664
1760958844.947228,-4.266901905924112,-0.07691732370905413,0.9817358759358327,-0.0009846880258611063,-1.8062446246049892,-0.11988285943068741,-0.48399025700158277
1760958844.9572997,-4.27955113728663,-0.07592887022418057,0.9822907872270156,-0.0007531330214945178,-1.8634933923945383,-0.24617403758884832,-0.540289822308264
1760958844.9674337,-4.288296696953143,-0.07461270608463297,0.9827456018436258,-0.0002440529716613417,-1.9202953809443708,-0.3563332533144546,-0.5941487454783584
1760958844.9777696,-4.29266745284235,-0.07308400671164499,0.9830997447141547,0.0005201704833073717,-1.977191868758131,-0.4455433906738788,-0.6431567531074894
1760958844.9874566,-4.292624459860011,-0.07149563836673659,0.983383162735204,0.0014900570157625177,-2.035384518538638,-0.510657524532068,-0.6859367981090914
1760958844.9972358,-4.288627760586798,-0.07002585573182671,0.9836491810726619,0.0025905405033241325,-2.096628455916583,-0.5501667469659398,-0.7225821051636262
1760958845.0073597,-4.28165845651782,-0.06886160218929399,0.9839624151129881,0.003726941399349001,-2.1630364603942422,-0.564128862977503,-0.7548964782845273
1760958845.0174267,-4.273187766861139,-0.06817925852291974,0.9843835825816197,0.004795832577851483,-2.236801874757594,-0.5541278802124963,-0.7863778171207768
1760958845.0275145,-4.265091588603775,-0.06812556669468896,0.9849541014865636,0.0057000228547409645,-2.3198644168567215,-0.5233059304941826,-0.8219226973853856
1760958845.0374804,-4.259517680388161,-0.06880205654508294,0.9856839045605228,0.006365866569965126,-2.413561762882406,-0.476468355591783,-0.8672723965447939
1760958845.0475574,-4.258721083891094,-0.07025611553672403,0.9865455878630289,0.006760553745535442,-2.5183246469491483,-0.42021889400987783,-0.928265265173663
1760958845.0573752,-4.264889339356394,-0.07248067339469157,0.9874768983075799,0.006906840400443439,-2.633480097712333,-0.3630457877683932,-1.010001949851823
1760958845.0674102,-4.279981003734958,-0.07542271155510094,0.9883919671725881,0.006892691072995992,-2.7572249667996607,-0.31526086746352966,-1.1160612357564952
1760958845.0772765,-4.305599104263825,-0.0789990929404129,0.9891999227769699,0.0068736590876393115,-2.886820687754966,-0.2886993434194466,-1.2479165510245114
1760958845.0873833,-4.3429160896166925,-0.08311678064274312,0.9898277841798857,0.007066682163685657,-3.0190413566147725,-0.29612057080980103,-1.4046891587127697
1760958845.0973375,-4.392658103220472,-0.08769303191068019,0.9902429786977822,0.0077350505656770575,-3.150880284121161,-0.3503048484270966,-1.5833308731185338
1760958845.1073494,-4.45514336127487,-0.09266964021162435,0.990469686101637,0.009165126105500266,-3.280481255885017,-0.46290547818245564,-1.7792597903090221
1760958845.1173418,-4.530354681892621,-0.09801512013431149,0.9905932980020995,0.01163586823490805,-3.408204912193125,-0.6431709762747945,-1.9873866915441734
1760958845.1275384,-4.618016220885263,-0.10371144404477353,0.9907495677358024,0.01538278384956981,-3.5376694200113947,-0.8966843833446566,-2.2033850708630918
1760958845.1372344,-4.717644779440479,-0.10972706367550478,0.9910992606044283,0.020559067198266376,-3.676532319451749,-1.2242694146129764,-2.4249968291099724
1760958845.1473062,-4.828557102653405,-0.1159831407763699,0.9917935616005243,0.027198551540855705,-3.8367345129235684,-1.6211920376759215,-2.653148004665884
1760958845.1573792,-4.949832375662981,-0.12232311892647026,0.9929384456973082,0.0351870304743284,-4.033941326481264,-2.0767538280287425,-2.892683542412894
1760958845.1673927,-5.080247846883066,-0.12849618738678972,0.9945670072431105,0.04424924384295505,-4.286012831570486,-2.5743414785202376,-3.1526107599058437
1760958845.1774583,-5.218219525399869,-0.13416288657586703,0.9966274979606564,0.05395731161027263,-4.610511767654272,-3.091964930738553,-3.44584313653368
1760958845.1872847,-5.361785297752071,-0.13892675721729597,0.9989919540492703,0.06376284229735678,-5.021478402963883,-3.6032741701478037,-3.788523649048512
1760958845.1976392,-5.508663276211034,-0.14239053652044076,1.0014862454155578,0.07305064377421437,-5.525917602935838,-4.078985211469739,-4.199051696224855
1760958845.207442,-5.656404833415735,-0.14422989419430365,1.0039375171239848,0.08120806596701399,-6.120601009874361,-4.488580077518468,-4.696932591465465
1760958845.217389,-5.802642567894397,-0.14427284471337984,1.0062297089979702,0.0877007715054633,-6.789839070683576,-4.802101215484301,-5.301529933812699
1760958845.2274175,-5.945412255604455,-0.14256931927897826,1.0083527260512077,0.0921431597325171,-7.504795717048679,-4.991869438041148,-6.0307637099821
1760958845.2373388,-6.083508005038523,-0.1394336209174432,1.0104276348712673,0.09435055802929707,-8.224705652696416,-5.034032399328721,-6.899797222716972
1760958845.2474382,-6.216814108146062,-0.13544442979093466,1.0126929049683437,0.09436241839175746,-8.900041847912483,-4.909967777256164,-7.919793474139795
1760958845.2574534,-6.3465496544895315,-0.13139482789323273,1.015447949081877,0.0924319876585536,-9.477324824893385,-4.607633667970291,-9.096840612911448
1760958845.267448,-6.475368270569417,-0.12819741558416634,1.0189656958056001,0.08898585092386502,-9.904947277118865,-4.122903352136388,-10.431098219474883
1760958845.2772737,-6.607277086876067,-0.12676154522499725,1.023396589326085,0.08456221033386707,-10.139195994616857,-3.460785818331541,-11.916142187562713
1760958845.287307,-6.747370449891921,-0.12786561791929008,1.0286880866109962,0.07973827166381518,-10.149637435224788,-2.636353673420195,-13.538478207213814
1760958845.2974777,-6.901405430452162,-0.13204657964193567,1.0345392218268255,0.07505675583550651,-9.92317259760825,-1.6752436747619184,-15.277275156864748
1760958845.307345,-7.075272112443181,-0.13952459302214185,1.0404025322872612,0.07096165496975182,-9.466281336493008,-0.6136713847642357,-17.10446042381796
1760958845.3174539,-7.274431372300559,-0.15017619231406443,1.0455367371441255,0.06775379127852409,-8.805179054104427,0.5021274770008666,-18.98532921576168
1760958845.3273878,-7.503403207278138,-0.16356245841030223,1.0491038932492853,0.06557465764281718,-7.983772986946035,1.6172570927914243,-20.879733606690117
1760958845.337447,-7.765380239141038,-0.1790066858996408,1.0502959182200768,0.06441955222164257,-7.059482792670518,2.670645203135527,-22.74378624409525
1760958845.3474536,-8.062009521341345,-0.19570190878751742,1.048469319805578,0.06417057975560528,-6.097249161758692,3.5988398565011757,-24.531905725126936
1760958845.3575418,-8.39334376865367,-0.21282204207062314,1.0432644449515434,0.06463463420734107,-5.162397901903168,4.340909385057922,-26.19898898662153
1760958845.3673558,-8.757931650748386,-0.22961550585186488,1.0346847655471028,0.06557556415943963,-4.313349222533805,4.843725999762853,-27.702520648538364
1760958845.377451,-9.153006243001256,-0.24547061973939557,1.0231130539986264,0.06673835324430473,-3.5952750032770657,5.066575821937418,-29.004486866453377
1760958845.387621,-9.574734811972393,-0.2599499282547588,1.0092524973352437,0.06786823454501481,-3.0355875983313787,4.9840974546537975,-30.07301765894623
1760958845.3974833,-10.018498937027065,-0.2727945887729332,0.9940059202918855,0.06872722184032776,-2.6416947572548155,4.586995396550276,-30.883717037925457
1760958845.4075594,-10.479174442843297,-0.2839022293097783,0.9783307962542125,0.06910855953943415,-2.4010333143183753,3.880577471375128,-31.420647001124344
1760958845.4174128,-10.951378802519072,-0.2932837689611834,0.963111659720121,0.06884949460805315,-2.283144598480361,2.881686728862377,-31.6769187792313
1760958845.4275157,-11.42965779857416,-0.30100754434112437,0.9490752657470255,0.06784371854491883,-2.24341876306384,1.6149178895197573,-31.654838423227883
1760958845.437541,-11.908598271060939,-0.30714267616181523,0.9367537549295006,0.06605419125479331,-2.228028405272618,0.10909963546098661,-31.36557698147664
1760958845.4475203,-12.382877104020702,-0.31171572333504194,0.9264871181920229,0.06352458671360907,-2.179508925605992,-1.6051089122521225,-30.828388419613102
1760958845.4573205,-12.847279649234416,-0.3146927099190703,0.9184486475465803,0.060385385311906695,-2.042465008606024,-3.495991718816155,-30.069460298699003
1760958845.46752,-13.296734025099946,-0.3159923898248386,0.9126758647126694,0.05685035741979106,-1.768968725462192,-5.5298706982515045,-29.120530694248295
1760958845.4775162,-13.726405847370906,-0.3155285220112281,0.9090947950994324,0.0532010893221595,-1.32330746960257,-7.66896276570109,-28.017424518002294
1760958845.4873662,-14.13188164093855,-0.3132715916070089,0.9075336027202873,0.04976032644219432,-0.6858046279791271,-9.86882546778673,-26.79863798186317
1760958845.4974222,-14.509442035768824,-0.3093146212173078,0.9077276589952902,0.046857356820564904,0.14453143850643715,-12.076405492925469,-25.50402272559657
1760958845.5076377,-14.856392270942965,-0.30392377587637587,0.9093209279311804,0.04478949868728392,1.1487733028347107,-14.229645936942704,-24.173509749773835
1760958845.517448,-15.171385489841201,-0.29755476534940234,0.9118696665373334,0.043784296932909625,2.2885189980462974,-16.259294852289113,-22.845717768656073
1760958845.5276496,-15.454655740393173,-0.29082317858935763,0.9148548166276138,0.04396833432330514,3.508276008633374,-18.093037353433463,-21.556271270024478
1760958845.5374289,-15.70808205974351,-0.28442961508050574,0.9177089552798771,0.04534918482302161,4.7399443827515295,-19.661465766034105,-20.335748196085092
1760958845.5476303,-15.935033776882177,-0.2790540632648044,0.9198616217896175,0.04781511396993933,5.90929083959058,-20.904871259250662,-19.20737239044047
1760958845.5575066,-16.139992980241324,-0.2752435176541117,0.9208022684077305,0.05115302128914226,6.943869246006323,-21.7795378064899,-18.184790852700754
1760958845.5674617,-16.328000563245187,-0.2733193665115148,0.9201528450176178,0.0550808561639648,7.7813678946879525,-22.262235217675936,-17.27042687767129
1760958845.577473,-16.504014027864066,-0.2733262314265798,0.917734020695575,0.059288158469646975,8.377075449256303,-22.35194571022004,-16.454897178384535
1760958845.5874248,-16.67228781725783,-0.27503366219076325,0.913604479190918,0.06347801844113683,8.709208159842474,-22.068436995885712,-15.717822658781131
1760958845.597712,-16.83588476327797,-0.27798957352399856,0.908057037051978,0.06740459045567983,8.781205216312019,-21.447982691215064,-15.030118080406597
1760958845.6073596,-16.996400258670857,-0.2816125931332246,0.9015696993513712,0.0709009184863852,8.620636552861896,-20.537175476624913,-14.35758432767287
1760958845.6173604,-17.153935253890044,-0.2853019415437284,0.8947259512189265,0.073892522232319,8.274939997527495,-19.386205913232633,-13.665374265729465
1760958845.6273181,-17.30730225620709,-0.28854026235392716,0.8881257258536208,0.0763945716321067,7.804720094051856,-18.04303166616018,-12.922682645124768
1760958845.6372945,-17.454404612522612,-0.29096851405946106,0.8823050528734014,0.078494564512179,7.275723222027874,-16.549501494632825,-12.10689002472132
1760958845.647388,-17.592704494057504,-0.2924215500049062,0.8776750217565378,0.08032600269196546,6.750770005352311,-14.93987331824422,-11.206447344603822
1760958845.6573598,-17.719692741511476,-0.29292438775117147,0.8744844228112477,0.0820397440815513,6.282828299543039,-13.24152853429853,-10.222030257676671
1760958845.6673295,-17.83329024635675,-0.2926581460516599,0.8728059762664883,0.08377833931322577,5.910086433026574,-11.477239002882076,-9.165843612332349
1760958845.6775255,-17.932137522376255,-0.29190889112682267,0.8725429092413676,0.08565559245298623,5.653445793007582,-9.668147398304079,-8.059307356650349
1760958845.6873913,-18.01575773013512,-0.2910123205064549,0.8734506281192128,0.08774027205226623,5.516422115627966,-7.836617555502535,-6.9296191011837145
1760958845.697512,-18.084602617396033,-0.29030448657518,0.8751680825944587,0.0900413260016199,5.487134557417096,-6.0082283356433015,-5.8058197548559916
1760958845.7074623,-18.140007508825832,-0.2900857722416546,0.8772559545412484,0.09249337332712733,5.5419186975048005,-4.212405550775918,-4.714978981077404
1760958845.7175443,-18.184087631725816,-0.29060178086639477,0.8792424625647726,0.09494467323954144,5.65007898635359,-2.481511618313385,-3.6789912556587216
1760958845.727499,-18.219600369267773,-0.29203915277247633,0.8806786963534069,0.09715237535795322,5.779302158092561,-0.848586376655838,-2.712276753905071
1760958845.7374568,-18.24977751709058,-0.29452779277924834,0.8812025076465705,0.09878938925214774,5.901230977177301,0.6557493024384304,-1.820468202286918
1760958845.7475076,-18.27810804869412,-0.2981380912942031,0.8806055492103952,0.09946427193160304,5.99666238852958,2.006534921767066,-0.9999923753922135
1760958845.7576973,-18.3080408177827,-0.30286581429793397,0.8788948776536903,0.09875290039957524,6.059822945776424,3.1871600578825943,-0.23836781335658316
1760958845.7674847,-18.342590198418375,-0.308607106984157,0.8763388424014509,0.09624021319538728,6.101204753066697,4.190984426401633,0.4849534030782243
1760958845.777497,-18.38386630454091,-0.3151363973703082,0.8734861045787248,0.09157130611200641,6.148509368350076,5.021675034941521,1.1972977521546013
1760958845.7874334,-18.432601102759133,-0.3221048548610839,0.8711470948918867,0.08451154895310083,6.245328129140184,5.692346649484778,1.931027920064231
1760958845.7973886,-18.487778893842446,-0.3290723213843524,0.8703296403040783,0.07501295974079729,6.447291552764104,6.223769205926916,2.7212411274456105
1760958845.8074648,-18.546483826989487,-0.335572298371731,0.8721245875997342,0.06327845962031896,6.815605485628215,6.641937791976551,3.602767098129577
1760958845.8173976,-18.604043087452816,-0.34119447680264153,0.877543825098957,0.04980982169586005,7.408238059768012,6.975239005268405,4.60639171034185
1760958845.8275046,-18.65448312481572,-0.34566042259184165,0.8873245412626719,0.03542298523553122,8.269546688383286,7.251353181392385,5.7544132446481795
1760958845.8373199,-18.691246423979962,-0.3488688631954652,0.9017295043121737,0.02121687952101328,9.41973334881748,7.4939438613400515,7.05590397371158
1760958845.8474681,-18.708055339719472,-0.3508953167541307,0.9203871341867487,0.008487556604058767,10.845994119267862,7.719139335645772,8.502340847856608
1760958845.8575082,-18.699768954855376,-0.35194165278996586,0.9422182535080837,-0.0014125958761091561,12.497396469867489,7.931874071030431,10.064505844992153
1760958845.8674865,-18.663065724858136,-0.3522416683114255,0.9654841973376674,-0.007260244556968218,14.28527196944729,8.12241382887667,11.691649159586213
1760958845.8775518,-18.59680514535344,-0.35193953882851764,0.9879665476621075,-0.008168096548924203,16.09022751792602,8.263831931057684,13.313764169173474
1760958845.887557,-18.501978737289182,-0.3509693108933637,1.0072603694160593,-0.0037786585663497226,17.775758561847216,8.311643443539475,14.847378822508773
1760958845.897492,-18.38124619475836,-0.3489718377168051,1.0211379975089874,0.0055955550670348546,19.206971175344993,8.20691732283114,16.2045562371274
1760958845.9075005,-18.23814657399345,-0.34528455227556093,1.0279217279937318,0.018920506201131847,20.271372208134963,7.8837254717009255,17.303982399818132
1760958845.9177794,-18.07615155573517,-0.33902359496564916,1.026792263188132,0.03449761293023722,20.897595317873012,7.280753002828702,18.08234952009084
1760958845.9274359,-17.89776535123139,-0.3292472546607212,1.017962271858868,0.05012850233354828,21.06786707779173,6.355553389254243,18.503962224415282
1760958845.9376724,-17.703862585632077,-0.31515728203129406,1.0026703403844672,0.06336700092608012,20.821247677258516,5.098716582149829,18.566751594746755
1760958845.9478524,-17.49339833722827,-0.29628175592861994,0.9829981760814165,0.07182321079626758,20.246918420089393,3.544590371555271,18.303650664785298
1760958845.9573448,-17.26354408047881,-0.27259951248816483,0.9615643249568903,0.07347707834841322,19.469256905259808,1.7754868440960945,17.77930338655184
1760958845.967562,-17.010221076949616,-0.24459585645484652,0.9411754237417683,0.06695784468721218,18.628231293187973,-0.08246892707115969,17.082952985804603
1760958845.9775548,-16.728931975666647,-0.21325661252350017,0.9245075360187165,0.051749705289249416,17.85919014092666,-1.8718846856627995,16.318812480722347
1760958845.987368,-16.415738590281713,-0.18000535316449753,0.9138549768524664,0.028293185933345493,17.275499502196634,-3.423230040167204,15.595287397578064
1760958845.9973667,-16.068205113115955,-0.14658204112805778,0.9109467842113925,-0.0020332642922586673,16.956236691311666,-4.577330656693208,15.014320135126129
1760958846.007405,-15.686127952805313,-0.11486561776315272,0.9168115119287499,-0.03704869333697982,16.939832888466853,-5.207349242428222,14.662013178676357
1760958846.0175676,-15.271908719594641,-0.08665836861664447,0.9316737515617213,-0.07400245855894837,17.223438510451704,-5.236558780756458,14.601541123233659
1760958846.0273595,-14.830491592440223,-0.06346608879744536,0.9548819701534706,-0.10987252046557744,17.766995186590037,-4.649129028000581,14.869079128334286
1760958846.0375016,-14.36886940073968,-0.04631506234704436,0.9848827154842569,-0.14169068406432794,18.5006379079499,-3.4925219507134466,15.473023491327604
1760958846.0474617,-13.895247436542695,-0.035640409544642,1.0192625857886153,-0.1668555383250326,19.33411539405624,-1.8715835338502609,16.396233324292318
1760958846.057624,-13.41802109119458,-0.0312637302752561,1.054878858364421,-0.18339837042195364,20.167227132708902,0.06429056235464943,17.60052186120762
1760958846.0674732,-12.944757605466148,-0.03245895506826423,1.0880961300893308,-0.19017592669513533,20.9005622021241,2.1386606600345277,19.03230762652335
1760958846.0776105,-12.48136682323417,-0.03808989351506596,1.1151366879573728,-0.1869750917225069,21.445888995229296,4.167567924055513,20.628273321397863
1760958846.0873632,-12.031602898342742,-0.04679243050217076,1.132531786629927,-0.17452562803040905,21.735375149693336,5.978479082226964,22.32007337423193
1760958846.097429,-11.596968422755833,-0.05716834934240528,1.1376305972742617,-0.15442494833127635,21.72857636238404,7.426480688210471,24.037526528664273
1760958846.1074257,-11.177011481495633,-0.067957621326471,1.1290890882545912,-0.1289828829763687,21.41604877391222,8.406239022768498,25.710233052836518
1760958846.11742,-10.769934222273399,-0.07816324455004785,1.1072296563333037,-0.10099713072905737,20.818697590558994,8.859026066433884,27.268034983844434
1760958846.1274254,-10.3733840628217,-0.08711648787906826,1.0741493405495697,-0.07347485162888329,19.982637865838097,8.774840827637254,28.641053965501634
1760958846.1373513,-9.985283882483685,-0.09448682954333644,1.033489175538536,-0.049323704402559884,18.970292717080437,8.19021499768816,29.760105162810788
1760958846.1477268,-9.604575126083667,-0.10025377146066299,0.9898737448892939,-0.03104387452857729,17.849392078533235,7.182612719453864,30.558100834453295
1760958846.1573439,-9.231785347755862,-0.10466030663613486,0.948147424524036,-0.0204581306414564,16.682098413076357,5.862395849899682,30.972718517291227
1760958846.167575,-8.869368456289049,-0.10815841976645688,0.9126010614691002,-0.018519488517594534,15.516439671618636,4.363169874606929,30.950247385388224
1760958846.1773174,-8.521789404547034,-0.11134459990472262,0.8863672845350214,-0.025232658137945785,14.381604217375042,2.8310617159023286,30.45024433450083
1760958846.1873736,-8.195341964988096,-0.11488086419330823,0.8710881623181262,-0.03970763659844899,13.287691204098964,1.413256876251754,29.45047482137324
1760958846.1973453,-7.897709915510229,-0.11940529126451278,0.8668708802761913,-0.06033239386874602,12.229507254352132,0.24605229902849624,27.951571193829277
1760958846.2074456,-7.637306733634615,-0.12544368973674475,0.8724818781882833,-0.0850238880840425,11.193203108439805,-0.55719760726817,25.980860734887298
1760958846.2176971,-7.4224474007422625,-0.1333328349745254,0.8857006596048688,-0.11150763801343809,10.164121826969968,-0.9175680487507677,23.594849738777768
1760958846.2274084,-7.260416366616955,-0.14316016424992584,0.9037517953438493,-0.13758355163580904,9.13422790838469,-0.8004169064153155,20.87989211650294
1760958846.2373555,-7.156505047056296,-0.1547224719989621,0.9237423913458266,-0.16134893313335466,8.107799742372075,-0.22220336186698178,17.950634567665244
1760958846.2473962,-7.113105847025066,-0.16750812677229857,0.94304541190566,-0.18136129572089504,7.104511778947109,0.7472101695365887,14.945920442025438
1760958846.257295,-7.128964505724732,-0.18070941750724737,0.9595859571222765,-0.19673166896156796,6.159463133559684,1.9879539708091352,12.021969007721966
1760958846.2673695,-7.19869842348541,-0.19327008093230233,0.9720073816067143,-0.2071450464159614,5.320093442183653,3.3397481539705733,9.342874397897688
1760958846.2773702,-7.3126756984739645,-0.20396793977499086,0.9797149382527361,-0.21281204258898448,4.640321198884899,4.6173011542470475,7.068821874819541
1760958846.2873137,-7.457314823705486,-0.2115264967424224,0.9828132031806708,-0.21436597196346627,4.172691125048151,5.630188646666518,5.3428626160960375
1760958846.2972846,-7.615813477756608,-0.21474445901936828,0.9819663704846997,-0.2127284470100454,3.9597597918581164,6.205109964894257,4.277527189443676
1760958846.3072822,-7.769257382031966,-0.21262941670004867,0.9782154196624334,-0.20896866210894097,4.026212199231269,6.207877606102364,3.9428761642473873
1760958846.3173637,-7.89800952575839,-0.2045215526963892,0.9727837177705209,-0.20417546261617878,4.373141714606723,5.562289357296065,4.35767517790853
1760958846.3276317,-7.983246863159982,-0.19019520194899955,0.9668957581054959,-0.1993511030218079,4.975526961562589,4.263233816590778,5.4851687892093794
1760958846.3374174,-8.008500284821974,-0.16992914929205574,0.9616258106809973,-0.1953272212696402,5.783303674621285,2.3819851971160193,7.234402299852613
1760958846.3473372,-7.961058824943122,-0.14453808069846838,0.9577861460020292,-0.19270070376656906,6.725726169296137,0.0625690388547358,9.467275419171868
1760958846.3573327,-7.833109128699031,-0.11535598029756877,0.9558584691394657,-0.19178923681365526,7.7181393115990105,-2.490801063972952,12.01066530956883
1760958846.3673115,-7.622491541827813,-0.08416095238460325,0.9559675042370683,-0.1926098149948993,8.66999850523553,-5.034036859361323,14.672223246172951
1760958846.377339,-7.332973666960377,-0.05303602485648589,0.9578931060205884,-0.1948846276123122,9.493031618173905,-7.308957463790343,17.257971109786627
1760958846.38744,-6.973982283977118,-0.02417323304441118,0.961116724952574,-0.19807656984709643,10.108737597275884,-9.071413241454954,19.58965624054346
1760958846.3975234,-6.559795580853637,0.0003564866987898298,0.9648977630519503,-0.20145311245787598,10.454760093820145,-10.11823845742396,21.519952186909812
1760958846.4073746,-6.108268232786924,0.018833973728804448,0.9683737383322584,-0.20417462041585402,10.489874711122061,-10.309697673038862,22.943957846295305
1760958846.417406,-5.63922599547051,0.03008655518011321,0.9706754775049281,-0.20540137272469244,10.19734728786314,-9.584774287930196,23.805967491862294
1760958846.4275,-5.172710739680956,0.033615894312818695,0.9710461226585995,-0.20441100176455254,9.586371572329769,-7.967663346650235,24.101082916197587
1760958846.4375298,-4.7272744160573055,0.029639709982151152,0.9689513778314947,-0.20071418565660576,8.691315337869304,-5.564973328132456,23.87184111904915
1760958846.4475768,-4.318510165899672,0.01904258863949423,0.9641680661700819,-0.1941522526605081,7.568651893028528,-2.5542494457401412,23.20056144131403
1760958846.457454,-3.9579719114098966,0.003246341409637902,0.9568383902083,-0.18495802238818906,6.291708650920439,0.8346142032129973,22.19852022169275
1760958846.4674804,-3.6525740275751764,-0.015975930852456514,0.9474784776526377,-0.1737627282886663,4.943672071196596,4.34280370249153,20.993310941185886
1760958846.477452,-3.4044905112204438,-0.03670967467659209,0.9369332015617994,-0.16153828978954207,3.6095837803214343,7.708200195610047,19.71582933715135
1760958846.4873896,-3.211505315163907,-0.0571007952869205,0.9262764811067459,-0.14947543416351103,2.368268727037414,10.690449208488344,18.48823028479339
1760958846.497522,-3.0677165221983236,-0.07552530655467951,0.9166669095978685,-0.1388128244785517,1.285173109829413,13.092941540587981,17.413947261517347
1760958846.50742,-2.964470281465945,-0.09071080789507628,0.9091801624201228,-0.13064735856831852,0.4069301774806569,14.779595156533897,16.570494232299957
1760958846.5174663,-2.8913923084786184,-0.10180031799900942,0.9046490160007356,-0.12576581532500553,-0.2418134385670424,15.684983216195954,16.005374473860712
1760958846.5273871,-2.8373935039636007,-0.10835653712485434,0.9035442074734485,-0.12453606125092206,-0.6590832981506102,15.817152277485356,15.735089530140092
1760958846.53747,-2.7915521046921072,-0.110315748261519,0.9059201554831185,-0.1268790107221531,-0.8638360425317422,15.25328526651822,15.747005839126752
1760958846.5474036,-2.743813203050917,-0.10791127761182928,0.9114311785944785,-0.13231799078624995,-0.8921458664870617,14.129067211107659,16.00367339546511
1760958846.5574813,-2.685487339134369,-0.10159040467918308,0.9194063330905403,-0.1400838586925893,-0.791943944052161,12.623149541965367,16.44906458674719
1760958846.5673647,-2.6095636819077326,-0.09194451444907957,0.9289619577763681,-0.14924881559863473,-0.6171011491151026,10.938469064179227,17.016092719493646
1760958846.577419,-2.5108747153479904,-0.07966337299350731,0.9391296982619959,-0.1588650100053172,-0.4216472363429103,9.282346843796935,17.634679826161975
1760958846.5874338,-2.3861559948175395,-0.0655140218775415,0.948980015267117,-0.1680890685982673,-0.25478258590869207,7.84725105333601,18.239590217078295
1760958846.5973666,-2.2340366641330944,-0.05033523890469598,0.9577249191735518,-0.17627820566976005,-0.1571269037763871,6.793871998403536,18.777258710811168
1760958846.607526,-2.0549779346021944,-0.03503211228844549,0.9647888688713613,-0.1830482135186464,-0.15842017478544868,6.237785731944633,19.210947430859225
1760958846.6175916,-1.8511555553584358,-0.02055429655657248,0.9698434557020721,-0.1882893670529683,-0.2766783817592857,6.240548309118296,19.523768568188707
1760958846.6276135,-1.6262678623375608,-0.007846744695444361,0.9728088369848924,-0.1921429319092311,-0.5186286631977561,6.8056365022252905,19.71938417556282
1760958846.6373954,-1.3852488932923768,0.0022290410766912126,0.9738308959016951,-0.19494698941088917,-0.8811161044713367,7.879284891186447,19.820482601505887
1760958846.647488,-1.1338751722627967,0.008995921293114674,0.9732455448227895,-0.19716381769258734,-1.3530903785857646,9.355978159571096,19.86537573303602
1760958846.657589,-0.8782702010378289,0.012070230766768275,0.9715398152112713,-0.19930157993395475,-1.917745936441244,11.088125974685362,19.903218058318423
1760958846.6674345,-0.6243284947893596,0.011461242112072511,0.9693148801820108,-0.20184147537075514,-2.5544102787124614,12.899256924110002,19.988399497920152
1760958846.6774118,-0.37709936274509936,0.007641231058232938,0.9672511856946165,-0.20517868101212194,-3.239858906995164,14.599904747658226,20.17462195598297
1760958846.6874156,-0.1401881329154087,0.0015664928633047604,0.9660719235332519,-0.20958145011465928,-3.9488817181357794,16.005214187560284,20.509071408042427
1760958846.6975055,0.08475312056148028,-0.005367438874768832,0.9664989635872298,-0.21516790373073047,-4.6541183782064435,16.953150396630498,21.026983152281932
1760958846.7073374,0.29836500042565234,-0.01144662420627277,0.9691962774854922,-0.221895922480277,-5.325396720804286,17.322035281260376,21.7467958960431
1760958846.7173634,0.5036712896148723,-0.014835384098971791,0.9747009301390928,-0.22956035191083402,-5.929026002460779,17.045953312520783,22.66601949960564
1760958846.7276406,0.7058560734177948,-0.013834620353041683,0.9833496087364104,-0.2377942243051712,-6.427682416413604,16.126405900676783,23.75791776342438
1760958846.7373202,0.9116935536653508,-0.007171949157295316,0.9952156957924994,-0.24607506163809864,-6.7816121504039275,14.638521535538526,24.969140769803875
1760958846.747428,1.1286428549132426,0.005720505115496051,1.0100745917601106,-0.25374038983523356,-6.951780810064303,12.730243531208883,26.218523406892373
1760958846.7575517,1.3636780296722948,0.02449401602726155,1.0274116411146241,-0.2600158264670522,-6.9052633496241445,10.61332419388276,27.397374926336365
1760958846.7674146,1.6219844225926965,0.04779041665582352,1.046478325419807,-0.2640547955055226,-6.622637389153195,8.545739069070686,28.37169196129463
1760958846.7774491,1.9057025415069693,0.07330996414225918,1.066391252700096,-0.26498537395770977,-6.106563675849328,6.806298187267003,28.986805187557458
1760958846.7873585,2.212923009676119,0.09805607959249853,1.0862567728497994,-0.26196138279693165,-5.390266748056675,5.663627769873176,29.074965811431966
1760958846.7975693,2.5371205489869597,0.1187391141455464,1.1052922464136832,-0.2542198846243276,-4.544300173638609,5.343045197791166,28.466207502132498
1760958846.8073401,2.8671636520789323,0.13228737504724591,1.12290746507785,-0.24114964925418678,-3.679757435886534,5.995839733616565,27.00241228437144
1760958846.8175054,3.1879604949027827,0.13638704629394757,1.1387147918958802,-0.22237232208712068,-2.94605886443523,7.67584718798843,24.553884230458372
1760958846.82752,3.4817104920427937,0.1299558097732674,1.1524579052990043,-0.19783200842952653,-2.5218296944481575,10.327757859537703,21.036996835331674
1760958846.8374765,3.7296312051528866,0.11344966473574931,1.1638806997928073,-0.1678812035250869,-2.5983468223793937,13.790162028988773,16.43073224339894
1760958846.8474212,3.913932773374072,0.0889148183618594,1.172587627608901,-0.1333425817025821,-3.3565650231107194,17.81396765401972,10.789276751003014
1760958846.8573647,4.019740383618555,0.05973577837108557,1.1779597283186853,-0.09552233071172316,-4.940622302229417,22.09396740229032,4.247540266063749
1760958846.8673542,4.036651688946775,0.030097532695679746,1.1791759159252722,-0.05615745114899365,-7.432398002383862,26.308753965684165,-2.983031706429894
1760958846.8773332,3.959678083513794,0.004254966824784202,1.175352333764486,-0.01729396732897243,-10.8322926312374,30.16259482063031,-10.629443510192749
1760958846.887473,3.789441121354908,-0.014242603720644195,1.165775062043294,0.018894969257851307,-15.050379712668473,33.422565091657745,-18.38177373822169
1760958846.8974183,3.531639402606969,-0.023206997890212928,1.1501750518939144,0.050335263637336286,-19.909838032597268,35.945067965787956,-25.924091875471994
1760958846.907435,3.195928352799546,-0.022203789995411748,1.1289708103477194,0.0752959857135296,-25.162129900983576,37.68761195303678,-32.96690505393406
1760958846.9174845,2.794440607586543,-0.01259464064154581,1.103388064768245,0.09260932214191005,-30.51150526776008,38.70416994404817,-39.27605666397982
1760958846.9274075,2.3402084488550035,0.0027775054969255216,1.0753869438842079,0.10181859137226279,-35.64518231068846,39.125295901970496,-44.69370083326658
1760958846.9374144,1.8457344324177887,0.02018276368854168,1.047395462977656,0.10322151943737752,-40.264816353239695,39.12687413305769,-49.14839209119247
1760958846.947634,1.3219022563429883,0.03573932523702677,1.0219208452247486,0.09780220717942814,-44.114653099121654,38.89332853389775,-52.65313192155602
1760958846.9576178,0.7773409332400966,0.04612885873194451,1.00114081991546,0.08706842519451326,-47.00231662899435,38.58192454610144,-55.292128078504035
1760958846.9676888,0.21826689396067775,0.04915000102267843,0.98656349550233,0.07282737474195013,-48.80964018112421,38.2943596219146,-57.19879389608457
1760958846.9775827,-0.35125375478506193,0.0440141553072605,0.9788135808677109,0.056943499333927824,-49.493026127152405,38.06033335017528,-58.52888630178177
1760958846.9874604,-0.9287436765630404,0.03134889378175667,0.9775736034012253,0.04112314537998956,-49.07490238985858,37.835531106197486,-59.4334068824959
1760958846.9975595,-1.5126091580959393,0.012935915161295181,0.9816830425935318,0.026760224151332883,-47.62935942658305,37.513804077652516,-60.03578563902468
1760958847.00765,-2.1014505004402593,-0.008739702341400165,0.9893718895628618,0.014857984646311391,-45.265730609278975,36.95070539143245,-60.416900622408555
1760958847.0178933,-2.693522021237853,-0.031023470667991937,0.9985794794547501,0.006021916238596983,-42.11367496046243,35.993458424818215,-60.609857206791254
1760958847.027547,-3.286430348571032,-0.05159931084911442,1.0072927044832667,0.0005038953801515638,-38.3123327247764,34.51137654617014,-60.60454844573087
1760958847.037747,-3.8771048580750245,-0.06888012651316984,1.0138375657458298,-0.001729137202516844,-34.00461375291446,32.42096996722334,-60.3602697175626
1760958847.0475123,-4.462020357897681,-0.0822232595386499,1.0170745979277827,-0.0009271623819703925,-29.336059458607295,29.70134866478277,-59.823385688815975
1760958847.0574474,-5.0376076418578455,-0.09195259681842358,1.0164751226289364,0.002493959755345067,-24.456428639834225,26.397659895216087,-58.9464104213432
1760958847.067628,-5.600757827223742,-0.09920700614041568,1.0120831818110239,0.007983913923412403,-19.521513943297435,22.612685513183134,-57.70489789930595
1760958847.0774806,-6.149314362841707,-0.10566350283868398,1.0043906397809184,0.01488010158292592,-14.692826153158753,18.488914334293828,-56.10918459700676
1760958847.0875258,-6.682452162518189,-0.11319745846673489,0.9941655372931825,0.02243676263224425,-10.133601337987187,14.185025992950393,-54.2091184425611
1760958847.0975544,-7.200863643073385,-0.12354006266782262,0.9822750469121879,0.029873416877876167,-6.000798284716182,9.85147794336574,-52.091222456233254
1760958847.1076264,-7.706702588683606,-0.13798018424705263,0.96953725291987,0.03644539532431297,-2.4339698382151154,5.6096392106355175,-49.86904988870755
1760958847.1175172,-8.203275900328594,-0.1571428248055401,0.9566243420247396,0.0415296345728452,0.45719156165708547,1.5378132096112993,-47.668618098636166
1760958847.1274507,-8.694518757944603,-0.1808665068111964,0.9440257478977103,0.044711989627004164,2.604357174561309,-2.3340691362791413,-45.61163088440182
1760958847.1374087,-9.184336589597812,-0.2081967138599399,0.9320651498953902,0.04585863629684638,3.9888349665561607,-6.020893009823118,-43.79960319852464
1760958847.1476223,-9.675937340223737,-0.23750445481991775,0.9209526875878933,0.045154357489590416,4.644768602037544,-9.571053909964146,-42.3019041600158
1760958847.1577535,-10.1712943277727,-0.2667208760531257,0.9108459262336357,0.043094477512089696,4.656198386041057,-13.049422943334802,-41.15008316488442
1760958847.1675367,-10.670860638045538,-0.293652165069652,0.9018929672182535,0.040423915252357966,4.147952329160877,-16.51717259201102,-40.33964607650531
1760958847.1775668,-11.173600976997198,-0.3163158298271775,0.8942416754613929,0.03802645924280936,3.271518190931186,-20.011410313739407,-39.83885233954215
1760958847.1874611,-11.677333407609847,-0.33323351218755853,0.8880179726635162,0.03678011836781699,2.188146399274188,-23.527732012521046,-39.60246335280256
1760958847.197657,-12.179306770214472,-0.3436307448789264,0.8832926848055438,0.03740653171442962,1.0520632436332968,-27.00863453855659,-39.587166407777794
1760958847.207645,-12.676898543895653,-0.3475217635012931,0.8800594200674259,0.040346984033185034,-0.003479530119989146,-30.340059727814747,-39.76502803073064
1760958847.2175374,-13.168306710360856,-0.3456836754737206,0.8782351154944665,0.045690808103910734,-0.8755018821388056,-33.35720715368422,-40.131928255985
1760958847.227678,-13.65312148704568,-0.3395396614634819,0.877679924211565,0.05316705426722186,-1.4954065543972062,-35.859386754802,-40.709285231459084
1760958847.2377434,-14.132689854577468,-0.3309750362143654,0.878223479766651,0.06219420077667692,-1.8285349271444356,-37.63239978471503,-41.53903736585409
1760958847.2476146,-14.610220647331762,-0.32210819716314293,0.8796831842937788,0.07197115807026044,-1.8704915460301452,-38.47595259630654,-42.67330401468084
1760958847.2575722,-15.090614951081552,-0.3150358302084253,0.8818647347587701,0.08158844625306068,-1.641691664929273,-38.23296310870912,-44.1610427017191
1760958847.2675004,-15.580040479383866,-0.3115711234355035,0.8845424638435324,0.09013998124799727,-1.1812807300768156,-36.81726007506175,-46.034237601451736
1760958847.2775872,-16.085296010415867,-0.31299706908134245,0.8874256789914581,0.0968197480924744,-0.5410566514904368,-34.23609069810035,-48.29578673142754
1760958847.2874482,-16.61303203030761,-0.3198635189678154,0.8901253279535262,0.10099168273672082,0.2204732502817924,-30.60412385083778,-50.91056487898934
1760958847.2975638,-17.16890668731965,-0.3318608392903191,0.8921388094741,0.1022264795297559,1.0440399855026445,-26.146358997231513,-53.80042702847101
1760958847.3075442,-17.756761631677985,-0.34779812993977327,0.8928658880151552,0.10030686778320752,1.8756387620560684,-21.188513870636157,-56.84337954945188
1760958847.317572,-18.377899910652584,-0.36569919441587523,0.8916576452942905,0.09521138804978144,2.672397341496305,-16.13490325837018,-59.87683066945695
1760958847.3276224,-19.030538888420157,-0.3830104866436257,0.887890513101659,0.08709225389829495,3.4077559100288837,-11.435306025718138,-62.70469115414682
1760958847.3375268,-19.709497857744427,-0.3968993061908267,0.8810539801401607,0.07626205736951507,4.075350094428572,-7.543664271262248,-65.10804876766771
1760958847.3473752,-20.406165348780103,-0.4046110418264316,0.8708420891106318,0.0631957806014548,4.691114272988506,-4.872541355208636,-66.85909559082913
1760958847.357699,-21.108775581225366,-0.4038489844700927,0.8572396483721109,0.048542336021008395,5.2932814651774205,-3.747990253027834,-67.73785107845106
1760958847.3676481,-21.803004173342025,-0.3931337761467896,0.840590149042694,0.033130533316692974,5.940026791845426,-4.369812859133324,-67.55089928562937
1760958847.3775063,-22.472866040803677,-0.3720902433315446,0.8216254390194446,0.0179533534413649,6.704529826261626,-6.78211747756926,-66.1508005531063
1760958847.38762,-23.10186241585441,-0.34160447221940493,0.8014347971833231,0.004121720653029714,7.667382825195766,-10.858517725845676,-63.454147708129625
1760958847.3975127,-23.674284009445298,-0.3038060568862646,0.7813607197876261,-0.0072107782208928346,8.906670642242096,-16.305068647989593,-59.45569424101527
1760958847.4075818,-24.176543078125192,-0.261864027285214,0.7628295242114125,-0.014943886776706616,10.48662611293892,-22.68197531126041,-54.235930368268804
1760958847.4174995,-24.598388067797245,-0.2196274214373445,0.7471463192324023,-0.018137190015548147,12.44627332701494,-29.442421802314424,-47.96011519982437
1760958847.427601,-24.933855417076142,-0.18117190941906003,0.7352952474506131,-0.01611710864141303,14.7896760907824,-35.98414967836404,-40.86798526420648
1760958847.4376388,-25.18183331466821,-0.1503217562550116,0.727784483096357,-0.008573801876551638,17.47927362952528,-41.70741710204416,-33.254814583056444
1760958847.4476223,-25.3461483598883,-0.13020796921697364,0.7245657105189233,0.004363793704414089,20.433455993369364,-46.07219397175528,-25.445823754143795
1760958847.4574368,-25.43513458705804,-0.12291117482789249,0.7250454873107965,0.022087302935109573,23.529159358242957,-48.647969125019316,-17.766850665304986
1760958847.4676304,-25.460701264870966,-0.12922785861466374,0.7281937700690303,0.043514456546862396,26.609850381689238,-49.151096571116234,-10.514599589492523
1760958847.4775052,-25.436976309050674,-0.14858890053026508,0.7327418136535141,0.06714943630482725,29.498688377006477,-47.466704979461596,-3.9297660832951338
1760958847.487667,-25.378660330585472,-0.17914547139448184,0.737445530724231,0.09119976813168333,32.01581405212429,-43.654299403647855,1.8239372193044574
1760958847.4976304,-25.29927617443193,-0.21801832062920742,0.7413724414730838,0.11374130694411014,33.997740036482966,-37.93791061881496,6.672283332588887
1760958847.5076387,-25.209533208807304,-0.26168428074906264,0.7441561420094854,0.1329119080258522,35.31605270668326,-30.68285910185572,10.632705430323101
1760958847.5176435,-25.11603614856855,-0.3064509683093866,0.7461586550513505,0.14710672671754432,35.892429991946784,-22.36196563994179,13.805348740022179
1760958847.5273924,-25.02054636311156,-0.34895065587048835,0.7484924945465801,0.15514685601806874,35.7074701596909,-13.514523757446831,16.353574518584242
1760958847.537475,-24.919943733219785,-0.3865725042864246,0.7528802699258368,0.15639881019360496,34.80187571109465,-4.7016716209384475,18.476003361679506
1760958847.5475893,-24.80693997990019,-0.4177543474010639,0.7613642306313331,0.15083288723186536,33.26986188631016,3.538034197604556,20.373637639707702
1760958847.5575533,-24.671471586521807,-0.4420744126098118,0.7759120552769463,0.1390189975281726,31.24597900848242,10.72908649485676,22.216757246905633
1760958847.567605,-24.502575530626746,-0.46011938858524315,0.7979897249098575,0.12206453753856239,28.887651268183017,16.492073049327157,24.116853320757645
1760958847.5775588,-24.290453003534697,-0.47315212219765695,0.8281822637232367,0.10149951431523332,26.356511509631602,20.566418220338544,26.108589798036135
1760958847.5875487,-24.02837781153662,-0.4826478465313305,0.8659371155837976,0.07911318666793314,23.801917543952435,22.820895673054068,28.145533147925885
1760958847.5976326,-23.7141161645965,-0.48979851244139433,0.9094841081248861,0.056749317253232505,21.349710968088633,23.251392585275337,30.11124382411948
1760958847.6075969,-23.35059115602797,-0.49509336493436984,0.9559539909796739,0.03607719220148115,19.09821724113732,21.96717190891649,31.84459310715887
1760958847.6175559,-22.94564373748325,-0.4980733484826427,1.0016833349998018,0.018370808535073627,17.12171327096459,19.168679931531308,33.175354713496354
1760958847.6275773,-22.510905544247446,-0.49733265272772526,1.0426702470221485,0.004338755108409552,15.479372090674525,15.121297498381253,33.96377092996734
1760958847.637514,-22.05998543480373,-0.4907992402035989,1.0751344418519166,-0.0059591547861558665,14.22569668489297,10.129830620747585,34.13642000595296
1760958847.6475432,-21.606330828692226,-0.47625839508659695,1.0961133452641851,-0.013093817066994725,13.417656351127007,4.517599005267442,33.710797309516785
1760958847.6576297,-21.161193822683746,-0.45199685639543546,1.103977625488579,-0.018153191983446008,13.11484408799204,-1.3882742089224167,32.80289705085816
1760958847.6675377,-20.73208020625152,-0.4173806419825725,1.0987168592652827,-0.022547010380297765,13.371722230718417,-7.266609561657097,31.615570460265623
1760958847.6775746,-20.321916734427642,-0.3731879281766199,1.0818930717215165,-0.027746296099026783,14.224170208662239,-12.810287701839085,30.409669919827902
1760958847.6876342,-19.929002882153586,-0.32160851447828803,1.0562799166993464,-0.03498736428450953,15.674640239234662,-17.736271139484124,29.463701242801804
1760958847.6974356,-19.547670506379248,-0.26594158183654404,1.0253169521194563,-0.04499579915990403,17.68049474602721,-21.79930632590887,29.02983188249359
1760958847.7076952,-19.169479494210186,-0.2101054467729188,0.9925447479528384,-0.0578041937460568,20.14875630635187,-24.808435828612907,29.294248915252183
1760958847.7176497,-18.78472833130479,-0.1580903205735251,0.9611458518235416,-0.07272580503033325,22.938389374386784,-26.643330037752992,30.34836360246145
1760958847.7275953,-18.384047278922175,-0.11345840782437927,0.9336409272581703,-0.08850335782693085,25.86929323738496,-27.266669907408502,32.17488727003439
1760958847.7375925,-17.95986084280435,-0.07895656001912382,0.9117269815587518,-0.10359731347300484,28.736095746662567,-26.729346151624934,34.64994240844775
1760958847.7476573,-17.507548182024678,-0.05627276510581435,0.8962234918448824,-0.11653501280053645,31.324764328212908,-25.166588498655564,37.559627033627294
1760958847.7574925,-17.026185960942485,-0.045943611607946265,0.8871055606843783,-0.12622714468829876,33.430559140094175,-22.784811072906503,40.62737145646415
1760958847.7677062,-16.51881771913932,-0.04740362507744788,0.8836212064922533,-0.13217402120064656,34.87623722362672,-19.840629841341613,43.54741003779626
1760958847.7774074,-15.992248840426843,-0.05915431828660863,0.8844905178821634,-0.13452254562107807,35.52927840168209,-16.61490644150391,46.01968210169356
1760958847.7875557,-15.456412093791213,-0.07901772441043144,0.8881680300445733,-0.13398000833063475,35.316401035338124,-13.385523919008163,47.78208367404908
1760958847.7973795,-14.923384369395267,-0.10442826348330705,0.8931289479279255,-0.1316265853427494,34.23324197140275,-10.402689801697576,48.63685708033668
1760958847.8074758,-14.406161774069949,-0.13271450629685388,0.8981269902831759,-0.12868457191289065,32.34721723253449,-7.869837686917223,48.46888000956357
1760958847.8178673,-13.917319309723327,-0.16133308282794975,0.9023735411912631,-0.1262993632489136,29.792415789179607,-5.931849719352446,47.25466084384395
1760958847.827479,-13.467692726890814,-0.18803695386839248,0.9056046251061138,-0.12537253632040143,26.756716962124305,-4.67077862203122,45.06189187975518
1760958847.8375094,-13.065220707773252,-0.2109794404947224,0.9080287432462317,-0.12646865306842495,23.46271652899003,-4.108000871788838,42.0403326201797
1760958847.8474863,-12.714071254571634,-0.22876539177619773,0.9101772612685299,-0.12979896191614107,20.145063751222164,-4.2110819176898415,38.40549733289229
1760958847.8576782,-12.414146142579959,-0.2404615850773231,0.9127017598649713,-0.13526955657472803,17.02726121527599,-4.903577128030859,34.417100541675055
1760958847.8676596,-12.161015791318025,-0.24557653808729277,0.9161725459516085,-0.1425708139962984,14.300903419840923,-6.076307751408526,30.354519431832532
1760958847.877466,-11.946290489047367,-0.24402025650109363,0.9209263517507491,-0.15128051647252821,12.109827994389024,-7.5990686874082956,26.4916785725248
1760958847.8875947,-11.758386923964519,-0.2360548707818403,0.9269922195260915,-0.160955407817164,10.54079085582261,-9.332053977752738,23.073705310817022
1760958847.8975253,-11.583603016083467,-0.22224305597177904,0.934100534394578,-0.1711939008848573,9.621163410597939,-11.13645411104605,20.29740964532152
1760958847.907473,-11.407372827689167,-0.20339346102197375,0.941759507561936,-0.1816633136911676,9.32302738873919,-12.883703697211448,18.297156113798877
1760958847.9175465,-11.21554705017552,-0.18049764050652942,0.9493710668658611,-0.19209497095089917,9.572202577443607,-14.462814818039677,17.137104855197435
1760958847.9274597,-10.995545911821521,-0.15465600086017914,0.9563547029656668,-0.2022575980063054,10.26034725208578,-15.7852270433163,16.81016266501238
1760958847.9374933,-10.73726511962297,-0.12699891421336457,0.9622516366216607,-0.2119230045689663,11.258289195754557,-16.786735987085557,17.24334241210443
1760958847.9474683,-10.433672501437941,-0.09861667403208449,0.966790478313023,-0.22083823703967798,12.429038002133781,-17.42637941391838,18.30863920696002
1760958847.9574878,-10.081093718882123,-0.07051238418890396,0.9699068426401496,-0.2287153559330169,13.639350186899453,-17.682644017389865,19.838056854746572
1760958847.9674513,-9.679229384229195,-0.04358378691732254,0.9717205088492779,-0.2352439611266598,14.769152435164175,-17.547898725623416,21.641103543965855
1760958847.977589,-9.230963265026855,-0.018628206266809298,0.9724822899369586,-0.24012382006390648,15.718500726054385,-17.022388568848307,23.522948879271855
1760958847.987554,-8.742017360348903,0.0036430302011574863,0.972506862760601,-0.2431085190568748,16.412031110204428,-16.109271138211017,25.301500479471546
1760958847.9975245,-8.220497528704833,0.022594249765598002,0.972106836521784,-0.24404878287650508,16.801042146782766,-14.81195703758123,26.821897710611587
1760958848.0074425,-7.676362344010827,0.03766728743050718,0.9715390033631373,-0.24292583498003276,16.86346025268694,-13.134454576907542,27.96729351461832
1760958848.017463,-7.120840131817159,0.048397577111265584,0.9709688060292508,-0.23986850970689866,16.60200197054185,-11.084659623514604,28.665247371380076
1760958848.0274928,-6.565813912057957,0.05444232521918704,0.9704550576766684,-0.23515109489286742,16.040880603893683,-8.679775185048644,28.88952524244771
1760958848.0375192,-6.02319154367199,0.05561602297698556,0.96995380183346,-0.22917191382775748,15.2214259227095,-5.9524791159834445,28.657552515112783
1760958848.047426,-5.504279938353885,0.05192672596535561,0.9693378676712839,-0.22241557518847677,14.197007620904168,-2.9562087535324726,28.02415836260842
1760958848.057641,-5.019187325962754,0.04360569577381329,0.9684275796568798,-0.21540433792633062,13.027674248579224,0.23195940203105833,27.072546540421037
1760958848.0675166,-4.576283258218021,0.031123841581959,0.9670281949552048,-0.20864566144927735,11.774924520460717,3.51193073792188,25.903599312812158
1760958848.0775094,-4.181748872386638,0.015190677264902345,0.964970130061562,-0.20258332916662788,10.497003530245802,6.76516443180024,24.624663943608805
1760958848.087552,-3.839248405771382,-0.003266032888737696,0.9621479687757782,-0.19755837213756433,9.245060320522704,9.862904292089311,23.33890451303697
1760958848.0975308,-3.549748206639416,-0.023140373519886338,0.9585534487097704,-0.193783637529081,8.060422070229555,12.677081401965548,22.1361523743229
1760958848.1074677,-3.3115034087230693,-0.043208198935293415,0.9542968483584451,-0.19133304363124912,6.973138715668464,15.092403882787453,21.085974612076672
1760958848.1176705,-3.1202248047342334,-0.06220605479428146,0.9496114687128203,-0.1901443848771473,6.0018297272356,17.017952894750806,20.233415610426615
1760958848.1274912,-2.9694267398312757,-0.07892529136380244,0.944837826875551,-0.19003367948993496,5.154724954315376,18.396711420271636,19.597578583562875
1760958848.1375024,-2.850939243134484,-0.09231279815940503,0.9403876720006429,-0.19071938519700365,4.431646727047536,19.21178748249617,19.172936550127737
1760958848.1476998,-2.7555458552969725,-0.10156537991826249,0.9366922259722646,-0.1918555296928959,3.8265537243719465,19.48856810051835,18.93302095197253
1760958848.1575634,-2.6736876982816407,-0.10620296878405652,0.9341429177085884,-0.19307287900076947,3.3301894341200886,19.292576428271097,18.83594415303858
1760958848.1676104,-2.596160121899739,-0.10610768678814878,0.9330351631705226,-0.19402604978514987,2.932374809443033,18.723329950202505,18.831079063895583
1760958848.1775613,-2.5147258597935886,-0.10152136963306395,0.9335256849916739,-0.1944421259868907,2.6235587733282335,17.9049558230406,18.866150718625796
1760958848.1874046,-2.422581843220116,-0.09300302799720543,0.9356111763732873,-0.19416388128149348,2.395372827269539,16.97467001479912,18.8939876337621
1760958848.1975055,-2.3146451613747963,-0.0813572023747759,0.9391313524787129,-0.19317949532975687,2.240101785660961,16.07043243499736,18.87822602933042
1760958848.2075884,-2.187658377765913,-0.06754915496117614,0.9437942351021875,-0.19163162421879582,2.1491634347325936,15.319118118526,18.79735678562101
1760958848.2175581,-2.0401416846450284,-0.05262020864738548,0.9492176469071142,-0.1898019179947413,2.1108807979072326,14.82638438451515,18.646673997405987
1760958848.2274508,-1.8722304944059167,-0.03760923278032941,0.9549790005937127,-0.1880717759988674,2.1080254930512257,14.669098303149564,18.43794792070965
1760958848.237474,-1.6854339831173395,-0.023480326405592205,0.9606651969909872,-0.18686493497713133,2.1157756781894386,14.890797503754833,18.196983160835867
1760958848.2477221,-1.4823408463772667,-0.011055288823150591,0.9659153580955495,-0.18658109514254623,2.10080669483357,15.50028395671544,17.959555842765045
1760958848.257589,-1.2662901613897943,-0.0009515233535190141,0.9704510473152806,-0.1875315128011995,2.0221642109617837,16.473154755130263,17.76645520377502
1760958848.2675395,-1.041021319882469,0.0064706001637126415,0.9740914045385055,-0.18988715640002404,1.8343420634084198,17.755871036782022,17.658424584333915
1760958848.2774203,-0.8103180435925799,0.011143900140852557,0.9767538169558077,-0.19364779162984402,1.4926178879776335,19.271848134987433,17.671695287711554
1760958848.2874181,-0.5776659584228236,0.013305624710411326,0.9784436302589516,-0.19863690096638673,0.9602326490349374,20.928997905065653,17.834568219055765
1760958848.2974324,-0.34594898282633196,0.013475970912835379,0.9792381708380119,-0.20452360536452108,0.2165071362216841,22.628135154240123,18.16518502568439
1760958848.3076274,-0.11721506457903245,0.012398664266115555,0.9792704670533061,-0.21086921939971973,-0.7354325281904858,24.27163752928703,18.670317845258403
1760958848.317472,0.10745628217512507,0.010943393350577492,0.978716799462048,-0.21719263632335187,-1.8628894652314547,25.771705385164882,19.344771792691223
1760958848.3275423,0.32795709722561617,0.009977183990492267,0.9777908562817508,-0.22304526510021186,-3.101331003775409,27.05752302347397,20.170908508995335
1760958848.3379173,0.5450091897622019,0.01021896402514966,0.9767468175263876,-0.22808289990922115,-4.356827507365591,28.080616694607343,21.117904575391282
1760958848.3476791,0.7598776931647946,0.01209636071521193,0.9758929222293367,-0.2321194188967855,-5.513791125942989,28.817777514683197,22.14063539083461
1760958848.3574605,0.9739581147997723,0.015626993094899108,0.9756133730466088,-0.23514703294603548,-6.447832705078737,29.27109700502708,23.17844163905692
1760958848.3674638,1.188276183046514,0.02034945679480943,0.9763895350478365,-0.2373117979519874,-7.042720045374202,29.464966718053663,24.15438526637981
1760958848.377676,1.4029633927274607,0.0253299187196869,0.9788050683101633,-0.23884259768473132,-7.209609870913481,29.440314579466733,24.9758357592174
1760958848.3874485,1.6167917518516333,0.029264883441105945,0.9835188182802984,-0.2399460203809206,-6.905995942488963,29.246842900632924,25.53726857189805
1760958848.3974948,1.8268613398649325,0.030687091538499398,0.9911960732510128,-0.24069404963976662,-6.151259371357252,28.93450665791792,25.725965069176407
1760958848.4075637,2.0285280174822637,0.02826076119949957,1.002401169222536,-0.2409388905049164,-5.035506505506754,28.545792633047544,25.430881980961182
1760958848.4177444,2.2156333396976913,0.021127985674077854,1.0174678803295207,-0.2402839024097738,-3.7187666750015573,28.110390771735876,24.554352199297565
1760958848.4275694,2.381054652427677,0.009243591224165522,1.0363739509197682,-0.2381227752465608,-2.4187516809972722,27.643526198627978,23.025559773639408
1760958848.437576,2.5175330464683454,-0.006385476540630655,1.0586488989067586,-0.23373834312735145,-1.3872480765983626,27.148599960884997,20.813999305851542
1760958848.447737,2.618668070499505,-0.023648377433103936,1.0833386174406134,-0.22643626520527532,-0.8776495001595916,26.623984245510478,17.940529074682214
1760958848.4575558,2.6799086647775443,-0.03953399392417702,1.1090390337054532,-0.2156828757908045,-1.1087014717728456,26.07293062994331,14.483373551259124
1760958848.4676263,2.699343721855102,-0.05059057245760619,1.1339982965287894,-0.20122144204635906,-2.231395347105314,25.514662096806084,10.576763534172285
1760958848.47757,2.6781185297390864,-0.05355657344782038,1.1562749951488662,-0.18315081323693436,-4.306114182407835,24.993998217290166,6.4009248854212615
1760958848.487688,2.6203714434335996,-0.04601973589612008,1.1739319482148889,-0.16195699234826808,-7.295085891561432,24.586627030297148,2.163678643257357
1760958848.497514,2.5326793881255125,-0.02695394389622512,1.1852447414875646,-0.1384900905469435,-11.07141804184301,24.39770952978394,-1.9243587330568006
1760958848.5074878,2.423096457395935,0.002983688028259047,1.188907716301762,-0.11388230480692067,-15.44180996395244,24.552890354737187,-5.677459331401834
1760958848.5175138,2.299944060749858,0.041458751460432916,1.1842188884020879,-0.08941253711676496,-20.176971267052718,25.18256282904339,-8.960835367365585
1760958848.5274243,2.17054957270528,0.08476743124854141,1.1712185548738185,-0.06633876557077402,-25.042747839246886,26.401795662544796,-11.710350254587572
1760958848.5376208,2.0401313926335107,0.12838252983587706,1.1507522602357274,-0.045731990970986604,-29.825953801621488,28.28925278762781,-13.941962468737163
1760958848.547524,1.9109985558970841,0.1676278771943864,1.1244337751528204,-0.028346589942013885,-34.351211444663015,30.8686232520583,-15.748673836581705
1760958848.5576184,1.7821812253320954,0.1983531953793774,1.0944979042183614,-0.014549619833546083,-38.487791964791704,34.095645678273115,-17.285058690722984
1760958848.5675535,1.6495425689496606,0.21749201795665077,1.0635528440640567,-0.004313221348743206,-42.147765585835835,37.85295697838201,-18.741825834854446
1760958848.5775867,1.5063516822671648,0.2234184497451653,1.0342628683950257,0.00274054179805993,-45.27824323411717,41.95388955891754,-20.31469774796188
1760958848.5876427,1.344232055204363,0.21606532112963117,1.0090093759236327,0.007259029606975436,-47.85097219679744,46.15511238708191,-22.172744993806877
1760958848.5975919,1.1543508653599865,0.19681472520158236,0.9895871539673502,0.010057517277790329,-49.8521519222385,50.17678348046883,-24.431101569432087
1760958848.6076741,0.9286876392863574,0.16820903906365836,0.9769896844574463,0.01200729028221571,-51.2743668203079,53.72782093031769,-27.13192825048344
1760958848.617657,0.6612176175070913,0.13354858657633417,0.9713217685276682,0.013921096888472692,-52.111386251817756,56.53319938543326,-30.235947955419746
1760958848.6276054,0.3488619554492171,0.09644288824075609,0.971852796055202,0.01644535506100298,-52.35564200631543,58.35999499751855,-33.62521393666099
1760958848.6375902,-0.007911587543228111,0.06037374642019711,0.9771956981853621,0.019973741329602123,-51.99772224609675,59.039273393950296,-37.11626311801867
1760958848.6475859,-0.4049122555094996,0.028316519260312378,0.9855717468325935,0.02460103729024642,-51.027256367501614,58.48170212654017,-40.481598173587955
1760958848.6578987,-0.8345013149812571,0.002452572610692775,0.9951058491189682,0.030133621009047977,-49.43491400291334,56.68569684933026,-43.476592564931444
1760958848.6677175,-1.286295919400476,-0.016008594994776595,1.0040948694337462,0.03616132613594702,-47.21560973665864,53.73772881709644,-45.868461049698546
1760958848.6775913,-1.748231920763799,-0.0268927318822067,1.0112030503710572,0.04217764227946695,-44.37315451854763,49.80501832187149,-47.46389540969489
1760958848.6879356,-2.2078748353927593,-0.03101566900293304,1.0155596960967952,0.04771863831979442,-40.92640303829603,45.12123305728044,-48.13229223103318
1760958848.6975572,-2.653837194632397,-0.030043526260027664,1.0167587188867013,0.05248331889130528,-36.91642531832487,39.96610748856747,-47.82211812641907
1760958848.707605,-3.077142290374297,-0.026278404176085922,1.0147811853832878,0.05640348682154329,-32.41356354425404,34.64025472759404,-46.568764047642425
1760958848.7176447,-3.4723709262205866,-0.022393693406704596,1.0098750459103742,0.059647442206843176,-27.522734516017092,29.436976175494838,-44.49313166540295
1760958848.727614,-3.8384403347440688,-0.021143587322941144,1.002427970846927,0.06256165776410645,-22.385258328927325,24.61354629393711,-41.79110968480184
1760958848.737603,-4.17889342927298,-0.025068438193011366,0.9928618135279345,0.06557001147105505,-17.17587209054756,20.365032114569342,-38.71501234260606
1760958848.7477944,-4.50162272847058,-0.03621405756225976,0.9815657569950272,0.06905717933082146,-12.094293627703916,16.803929438152235,-35.54893238128084
1760958848.7576969,-4.8180174748044475,-0.055883061900998454,0.968873926569754,0.07326204941217467,-7.351569402720094,13.948615876329125,-32.580721206126555
1760958848.7676446,-5.141603489225984,-0.08444220697739223,0.9550847208483423,0.0782020144676925,-3.15231648277778,11.7228205438362,-30.073814370637393
1760958848.7777698,-5.486335965668481,-0.12121823983255789,0.9405136519687377,0.08364294119517879,0.3252645463244445,9.9670393096704,-28.242254906090434
1760958848.7878237,-5.864788483029822,-0.16451718241035193,0.9255658287645235,0.08912246492898283,2.9491038136671484,8.461210400181514,-27.23199471353741
1760958848.7976205,-6.2865302691438085,-0.2117889335953338,0.91080525924066,0.09402393191438108,4.649782790784542,6.956238045775289,-27.110871527011774
1760958848.8078022,-6.756972172847933,-0.2599298013626093,0.896990042333303,0.09768560129847212,5.430953906218278,5.210392790093369,-27.86854416321154
1760958848.8176124,-7.276880624978612,-0.3056804203177402,0.8850453729339627,0.09951976483522268,5.371440336022378,3.025505300545482,-29.42617564870192
1760958848.8276598,-7.842624912652148,-0.3460503535923435,0.875965080707761,0.0991141457957685,4.61813737824284,0.2774675613006726,-31.654024846671145
1760958848.8374865,-8.447074999663265,-0.3786941518769749,0.8706597996388719,0.09629389375182085,3.3704785735993195,-3.063931466045298,-34.39373911055103
1760958848.8477042,-9.080949227008754,-0.40217833105952994,0.8697911257264936,0.0911339867575288,1.858692064447045,-6.929316676945013,-37.48142645436066
1760958848.857532,-9.734351765766469,-0.41610623103043276,0.8736350393813906,0.08392529657812292,0.3189831004112577,-11.159376547636054,-40.767719948344144
1760958848.8675776,-10.398239027809737,-0.42109484670414765,0.882003871891097,0.07510880158493344,-1.0309885307391489,-15.528411659418241,-44.13191383304092
1760958848.8776522,-11.065594971352104,-0.4186167524559953,0.8942340700679887,0.06519729640959586,-2.0132972380706695,-19.777981945895032,-47.48852293666477
1760958848.887644,-11.732160683369571,-0.4107332810704112,0.9092300701684122,0.05470118245696553,-2.5052318517820003,-23.655310496324724,-50.7859682705439
1760958848.8975885,-12.396642995569165,-0.39975719712442287,0.9255492983286049,0.04406782611610549,-2.4475100013029016,-26.95062568505299,-53.99831743715355
1760958848.9078336,-13.06040920510422,-0.38789357193072627,0.9415160486507611,0.03363797172461745,-1.8445798061600438,-29.528128362766807,-57.11201507924026
1760958848.9176834,-13.726747118219452,-0.3769106858594083,0.9553552770044573,0.02362109712580428,-0.7573457203475343,-31.346472608520347,-60.11026630805272
1760958848.9276268,-14.399821386039815,-0.36788566639543047,0.9653382347812026,0.014092891758148028,0.7103942035922679,-32.466220304227505,-62.958082868391614
1760958848.9376202,-15.083484854454316,-0.36105628119793415,0.969932300546047,0.005017464558219169,2.4297706977777915,-33.04342851267687,-65.59084820688253
1760958848.9476526,-15.78010929318711,-0.3557970059320888,0.9679484520081485,-0.0037078261046731864,4.266474380769344,-33.31023791130509,-67.90859405419344
1760958848.957604,-16.48958786521515,-0.35072608106001935,0.9586793369885677,-0.012192613414987351,6.099638686094501,-33.54496359456292,-69.77718060750334
1760958848.9676409,-17.2086369002275,-0.3439381388882864,0.9420167125698234,-0.020488522316157904,7.837581240557301,-34.03556672532802,-71.03650218780295
1760958848.9776754,-17.93049049017866,-0.33334104234738243,0.9185309065397219,-0.028527109447722854,9.428415790910876,-35.041250666230816,-71.51490605460882
1760958848.9875343,-18.64503970715347,-0.31705597674351255,0.8894919279799518,-0.036067965618642554,10.864180979748566,-36.75709183028253,-71.04828861047778
1760958848.9979668,-19.339419931551824,-0.29382105461013536,0.8568154607802178,-0.0426660211974303,12.177959249940985,-39.286088000233825,-69.50179859090692
1760958849.0078049,-19.998997854482234,-0.26332781534491856,0.8229261823408976,-0.047668949488398366,13.434392123259936,-42.62195064402791,-66.79167708825753
1760958849.0177689,-20.608660095188963,-0.22642327054508424,0.7905424395734919,-0.050253524384480844,14.714917246085841,-46.644569334329375,-62.90448544759892
1760958849.0277262,-21.154265483995122,-0.18512953874851645,0.7623987262349761,-0.04950356900649483,16.099846969040513,-51.128464105081854,-57.91089544206997
1760958849.0376391,-21.624099170097544,-0.1424651532124412,0.7409354386804781,-0.04452451043506009,17.64998066350649,-55.76284513438366,-51.971492497958394
1760958849.047584,-22.010162493044334,-0.1020896474791892,0.7279970829162542,-0.034582780358748136,19.390684367138086,-60.18034288595751,-45.332791457354595
1760958849.0577512,-22.309149100866097,-0.06782729437081483,0.7245855765922858,-0.01925263078937186,21.301157995662656,-63.990377032750274,-38.312865633336706
1760958849.0676465,-22.522993087362373,-0.04314833657233299,0.7307095345732499,0.0014517765683220896,23.31086003700011,-66.81280644400708,-31.277438378839797
1760958849.0775383,-22.658923326900215,-0.030691574715313284,0.7453532467385848,0.026983443160065606,25.30383682361532,-68.30806289244215,-24.608671304750146
1760958849.087605,-22.72901192450381,-0.031901764848888854,0.7665669980768519,0.056230624335019304,27.13028455153317,-68.20123523408573,-18.66993607531581
1760958849.0975873,-22.74925614357457,-0.046834289515735476,0.7916624555159646,0.08755948780148665,28.623459697865922,-66.2991377897135,-13.770415152240215
1760958849.1075988,-22.73827633619369,-0.07415329966428148,0.8174878166473608,0.1189325531846768,29.61936233857528,-62.500829719945486,-10.133391426327911
1760958849.1175041,-22.715743958126158,-0.11132116083264065,0.8407556065802649,0.14809052638068823,29.97652497374667,-56.802984928417175,-7.871645134243414
1760958849.1276698,-22.70067363830044,-0.15494936668444706,0.8583968733913585,0.17277314186858603,29.59362977769161,-49.30171286404648,-6.972651732301819
1760958849.137532,-22.709723991565287,-0.2012581757555836,0.8679153982163994,0.19094743649513346,28.423344868804016,-40.191895930530045,-7.2953936364931105
1760958849.147698,-22.755656258044617,-0.24657805334960936,0.8677125015874791,0.20101223475103086,26.481459485516876,-29.764100771212934,-8.579593390389466
1760958849.1576164,-22.8460981889587,-0.2878223378305156,0.8573480113606006,0.2019556372776147,23.85086273752576,-18.39808946289052,-10.467043132775093
1760958849.167643,-22.982749268665728,-0.3228671070907784,0.8377004353243832,0.19345468916629205,20.68005704119457,-6.5513685842439875,-12.533492030793843
1760958849.1776054,-23.161137152091754,-0.350789347055238,0.8109938181374252,0.17591797117617933,17.175848308236972,5.25867043808103,-14.328393073618784
1760958849.1876981,-23.370990738799446,-0.371934425620332,0.7806702775659554,0.150477317238922,13.589855843399224,16.479683383675034,-15.418873420186268
1760958849.1977034,-23.597231774841998,-0.38780257297868687,0.7511027277051325,0.11893103999006205,10.198781005377295,26.555824849813902,-15.43369335197068
1760958849.207601,-23.82150637998191,-0.4007576523156602,0.7271595812032334,0.08363076556057619,7.279135233524135,34.96384773483563,-14.102724276610601
1760958849.2176661,-24.024090227198677,-0.41357441223119906,0.7136527529730555,0.04729783060317416,5.078362083083173,41.250906541485456,-11.287588852169534
1760958849.2276378,-24.185926871569553,-0.42886382771379455,0.7147237757981035,0.012765210419527504,3.7857366454696497,45.07051314961519,-6.9995826968759545
1760958849.2377524,-24.290522032840347,-0.4484541465333033,0.7332466379829727,-0.01733135185147467,3.507579660398847,46.21298811260421,-1.401943304424301
1760958849.2476575,-24.325433038868272,-0.4728438497244612,0.7703360815926454,-0.04085846256736773,4.251607166960731,44.62711388990951,5.204913497814287
1760958849.2575872,-24.283162781627222,-0.5008584357349934,0.8250358923249831,-0.056418828584755366,5.924234418322154,40.43046853059746,12.414409759401273
1760958849.2676265,-24.16137592259751,-0.5296209762090274,0.894234602515154,-0.06346134978121697,8.342307196905793,33.90693338176705,19.75779976317837
1760958849.277759,-23.962473652841762,-0.5548872398135978,0.9728363295470857,-0.062251908553918926,11.25756372972362,25.490898955284564,26.75554483463517
1760958849.2876775,-23.692662651152144,-0.5717122239166498,1.0542023632532598,-0.05373039073310346,14.389242003113743,15.738676744740435,32.968954576987905
1760958849.2977414,-23.360715497231755,-0.5753287313836107,1.1308570665808748,-0.039310222670648105,17.458795199232487,5.288760285502816,38.04482630143381
1760958849.307711,-22.976639758887927,-0.5620582604422303,1.1954079805394409,-0.02068855190604025,20.22110704535288,-5.1859768912491795,41.74720247717518
1760958849.3176224,-22.550456941165674,-0.5300610803664093,1.241568678090594,0.00027636299488707235,22.48841533065857,-15.029597546923224,43.97296589499993
1760958849.3276303,-22.09124930226913,-0.4797697226215007,1.265111554930044,0.021601373134234866,24.14534119504419,-23.652566523183925,44.7510847867288
1760958849.337724,-21.606571857668147,-0.4139249462481471,1.264544954580656,0.04116518931433706,25.155022418187734,-30.57430254703194,44.22802745415308
1760958849.347765,-21.102259475482935,-0.3372234105272257,1.2413361767638436,0.056730667757965474,25.55691775981436,-35.45506166876261,42.64345968883042
1760958849.3576794,-20.582595453803727,-0.25566852155504366,1.19960284742716,0.06609049524449512,25.45670993775559,-38.115168990256926,40.30057134954045
1760958849.3677309,-20.050756168122767,-0.17576877567562185,1.1453420199248074,0.06736530648298478,25.008714396447875,-38.5412617935239,37.53457932416418
1760958849.3779776,-19.50941006122905,-0.10373654737355925,1.0853942186913028,0.05939003230917858,24.39193757888154,-36.880349158652066,34.681786959617256
1760958849.3876595,-18.961329682133073,-0.044806173969666865,1.0263905054753348,0.042053947895101064,23.782376304434962,-33.42299875623682,32.05068261736081
1760958849.3977056,-18.409875156485622,-0.002734984388752333,0.9738935591031244,0.01645741277021779,23.325638377180848,-28.576975480680563,29.896285632982327
1760958849.4079266,-17.85923314576345,0.02049521411003655,0.9318518717444152,-0.01518726112621281,23.114631002303106,-22.832619343521927,28.39926266568809
1760958849.4175904,-17.314353407541745,0.024778159284476617,0.9023869616004804,-0.049892777788874035,23.176398897067543,-16.721659960445717,27.65182547286272
1760958849.4275887,-16.780608327695706,0.011787256836136083,0.8858625148362446,-0.08438139135463688,23.470386071076316,-10.772138845294592,27.652463193423085
1760958849.4375806,-16.26328192473729,-0.015309946772834553,0.881154389725492,-0.11559476968383403,23.898143977485486,-5.463240417614455,28.310748955066597
1760958849.4476116,-15.767039563186696,-0.052301157486483556,0.8860433941709331,-0.14111619086484428,24.322471894606757,-1.1845544652808861,29.461942307373327
1760958849.4576619,-15.2955192887916,-0.09448621333007405,0.8976684839911742,-0.1594322001774285,24.592453853981603,1.7956905921408894,30.889480095164014
1760958849.4677029,-14.851128465100853,-0.13725808395792033,0.9129883551129492,-0.17001336716764795,24.569965238582615,3.349585955827741,32.35229140986021
1760958849.477695,-14.435053291665257,-0.1766157763984238,0.9292007697918298,-0.1732378752189879,24.153115172132093,3.493221414709498,33.61343759687891
1760958849.4876394,-14.047424597941438,-0.20953268810474374,0.9440702894410146,-0.17020544551121455,23.292855888125846,2.3745708796330964,34.46678526964608
1760958849.4975893,-13.687550152551205,-0.23413896921239316,0.9561250476401117,-0.16249380978121603,22.000445620849465,0.2473547704467091,34.759024330886575
1760958849.507646,-13.35412508880631,-0.2497177464515681,0.9647035203960402,-0.1519036225146657,20.345198011133437,-2.56524708576346,34.40510481334627
1760958849.5176454,-13.045359461814403,-0.2565495305901848,0.9698594931004,-0.1402271474523099,18.443595933666217,-5.711781588432639,33.395941483545016
1760958849.5276089,-12.759001045832724,-0.2556587155289984,0.9721611902527035,-0.12906431743807445,16.442130862379233,-8.85300443079868,31.79796911705199
1760958849.5377986,-12.492268473499712,-0.24851981519981498,0.9724407637256142,-0.11969793639403703,14.497005732866137,-11.696679238986299,29.74481425224669
1760958849.547646,-12.241736329114424,-0.23677352851076272,0.9715558418486023,-0.11302906253587448,12.754034743872163,-14.0230377404716,27.421979785680872
1760958849.5576584,-12.003227227428638,-0.2219893918403641,0.9702127970822658,-0.10956542474555667,11.33168067236757,-15.698924274295884,25.046013402946972
1760958849.5675585,-11.771766095913856,-0.2054960407340553,0.9688759189226077,-0.10945060277637565,10.309292073666276,-16.68036560795245,22.840163233847104
1760958849.5775058,-11.54163833462815,-0.18828398926807735,0.9677581918027635,-0.11251922117607255,9.721472839839983,-17.004782348208295,21.00905488189788
1760958849.5877817,-11.306566937982426,-0.17097252190057696,0.966869532105672,-0.11836372745305229,9.558424998863835,-16.77508416766757,19.715442728958728
1760958849.5976448,-11.059990715226528,-0.1538258644407993,0.96609288048638,-0.12640216056705528,9.771274033596816,-16.138399413447242,19.0623564814059
1760958849.60781,-10.795400223547094,-0.1368052263876447,0.9652639124001953,-0.1359425890670154,10.280911125122755,-15.262253364342262,19.083477168068672
1760958849.6176405,-10.506682993347509,-0.11964837359561983,0.9642383010141163,-0.14624517367854978,10.988762699044411,-14.310776981149797,19.74303905753509
1760958849.6279504,-10.188446594645786,-0.10197170319839242,0.9629369171338588,-0.15658405641706458,11.788043381808901,-13.423160627865,20.944481549298683
1760958849.637516,-9.836315313164908,-0.08338936125745039,0.9613645926605832,-0.166308454417068,12.574332744665528,-12.696185413996444,22.545488337468285
1760958849.647499,-9.447217983129176,-0.06364077944150907,0.95960332328809,-0.17489808791497255,13.25461316370282,-12.17230524864525,24.37646501904176
1760958849.6577368,-9.019690692801023,-0.042713592936420304,0.957785567425355,-0.18200537807373252,13.754154129176328,-11.834375458159707,26.259657772756462
1760958849.6675656,-8.554206306726256,-0.020944705423999586,0.9560567181866477,-0.18747707620194032,14.020840448153594,-11.607659230807354,28.026586027101537
1760958849.6775286,-8.053516921650973,0.0009197276854191728,0.9545374268643123,-0.1913508500008158,14.026762897407153,-11.369138612213604,29.532076384820666
1760958849.6875143,-7.522963680182851,0.021722650053946167,0.9532956630966222,-0.19382693380498525,13.767142863572387,-10.963415732560755,30.663889926719122
1760958849.6975415,-6.970680777758956,0.03996375235884198,0.9523348621117667,-0.1952201250966174,13.256930574482837,-10.223687139136333,31.347657537133298
1760958849.7074847,-6.407605798035448,0.05393784547896471,0.9515992600240072,-0.19590173203808942,12.525662382242988,-8.995528735225056,31.54749177621522
1760958849.7175715,-5.8472126713354795,0.0619339812603379,0.9509926602084042,-0.19624313560585613,11.611346571255268,-7.160665401864492,31.26314623309284
1760958849.7274904,-5.304909858781821,0.06247307438169281,0.9504039742130481,-0.19657174927018278,10.554234237851515,-4.6576326578922576,30.524874384445123
1760958849.7375433,-4.797094354242645,0.054550483516793445,0.9497323411962931,-0.19714639455977365,9.391301762876571,-1.4963680543487474,29.3871729527079
1760958849.747696,-4.3399142586307216,0.03784365572050879,0.9489063090709795,-0.19815310760903995,8.152128737972983,2.2356407270319405,27.922411621341055
1760958849.7575538,-3.9478546923531743,0.012847149733858863,0.9478946811473205,-0.19971598883551778,6.856627297165817,6.37699273077223,26.215027178428052
1760958849.7674968,-3.632308508932307,-0.01909211085910345,0.9467094134766901,-0.20191363208977378,5.514804781734841,10.705794431637214,24.356590425649827
1760958849.7775009,-3.4003137404909944,-0.05585072498043183,0.9454019267488454,-0.2047915968243941,4.128460126610157,14.961449057429668,22.441729512450895
1760958849.7877302,-3.253629169193761,-0.09470964639722314,0.9440537110022983,-0.2083648348771483,2.6944595563377285,18.872181083216937,20.56468078686226
1760958849.7975135,-3.1882807640346646,-0.13261806966237796,0.9427615154794993,-0.21260897962948633,1.2090374074213668,22.184833815099932,18.816163338448174
1760958849.8075814,-3.1946542111227836,-0.16650747096552027,0.9416175631881496,-0.21744367154147123,-0.3275629854593355,24.69314367461594,17.280310849275978
1760958849.8175876,-3.2581430579213686,-0.19361706901014572,0.9406862756816754,-0.2227132265755861,-1.9068549503685586,26.26089233541059,16.03149034953665
1760958849.8275099,-3.3602969045787425,-0.21179072040367997,0.9399808768544473,-0.2281700697489965,-3.509018844402254,26.837014953051305,15.13095491597491
1760958849.837655,-3.480356686746254,-0.2197085685172929,0.939445561574405,-0.23346559726623226,-5.101612254229137,26.46076326893572,14.623411535912258
1760958849.8476307,-3.5970200416178635,-0.2170246382870162,0.9389507888363062,-0.23815244377965972,-6.64057233797353,25.25623766337618,14.533735574041565
1760958849.8575325,-3.690252868984921,-0.2043931533414085,0.9383094664756287,-0.241701453583837,-8.073747151362966,23.416893782419873,14.864201571318967
1760958849.8676105,-3.742955697662294,-0.1833799951289548,0.9373191034233137,-0.2435354016676252,-9.346824022673054,21.181889995996215,15.592674656278206
1760958849.8775308,-3.7423067858335304,-0.156269706145068,0.9358290088570398,-0.24307951428763466,-10.411052694298023,18.807240072872958,16.67218041682796
1760958849.887634,-3.6806390032548517,-0.12579148015984226,0.933823483269554,-0.23982628126725636,-11.231685782062254,16.535501466468908,18.032154180642248
1760958849.8975127,-3.555763567639041,-0.09479852953513604,0.9315042141099339,-0.23340899567296194,-11.795733277980057,14.567999121554056,19.581509884697233
1760958849.9075735,-3.370725440537408,-0.0659424424126724,0.9293505982066291,-0.22367502432936112,-12.117560128182156,13.04327015500828,21.213506752417622
1760958849.9178505,-3.1330517567263354,-0.041385557172029595,0.9281372588311321,-0.21074649169291815,-12.241064665517333,12.024532629334324,22.812243734093013
1760958849.9274871,-2.8536206251454272,-0.02258817355779641,0.9288935741156483,-0.19505380367133082,-12.237630489095311,11.49765636747081,24.260466953237284
1760958849.9374669,-2.5453171978135405,-0.010193327522447206,0.9327990933616228,-0.1773278465793309,-12.199686019759945,11.379590029898559,25.44821486043668
1760958849.9476004,-2.22164820139048,-0.004013031705758223,0.9410196382318682,-0.1585415856946535,-12.230421088373669,11.535784082124103,26.281641469847667
1760958849.957481,-1.895459871970069,-0.0031032209077055503,0.954501248834036,-0.13980179072327237,-12.43084203819608,11.80407956357721,26.691168915301812
1760958849.9676824,-1.577864006337429,-0.005906729833388256,0.97375290248277,-0.12220449577893394,-12.88576807961327,12.021894638698024,26.637975828860576
1760958849.9775279,-1.2774398766666235,-0.010445054209673735,0.9986605205458774,-0.10667787880394569,-13.650554833979111,12.053303096336903,26.117795261429034
1760958849.9874976,-0.9997531595053036,-0.014544412545363714,1.0283766729237147,-0.09383825031345577,-14.740344875608457,11.812676404747632,25.16112951798754
1760958849.9976332,-0.7472130598396466,-0.01608303328819338,1.0613188142455678,-0.08388045521793282,-16.12355171787076,11.281889223110438,23.829302830664783
1760958850.0077798,-0.519268814189898,-0.01324323784931958,1.0952887065287302,-0.07652015848031207,-17.721040565684888,10.518685864642837,22.20624443890508
1760958850.0174968,-0.31292432409262044,-0.004747448505552568,1.1277040425846288,-0.07100400113368362,-19.411979487550735,9.654737476549066,20.386485674154688
1760958850.0276134,-0.12352653682287355,0.009944749154885909,1.155913094986711,-0.06619831661294708,-21.046595877267436,8.883164697888853,18.460505448005236
1760958850.0376663,0.054239035769654026,0.030500963590161276,1.17754564654307,-0.06075337454366939,-22.465188907136955,8.43667455106671,16.49917258286369
1760958850.0475872,0.22523391954105573,0.055663330821136774,1.190841645986071,-0.05332178020095468,-23.52177612429041,8.558704286708528,14.539482493888356
1760958850.057663,0.3927429181665026,0.08329886346714266,1.1948967020261185,-0.04279470330590051,-24.109673386245703,9.470889764064278,12.573955241561817
1760958850.0677898,0.5574688543839413,0.11056765006705876,1.189773062088341,-0.028513217603233665,-24.185228660064137,11.340713109207343,10.545901591874209
1760958850.0776253,0.7167836649922598,0.134211233863401,1.1764476593488893,-0.010415485024661927,-23.785191331081236,14.253328394511337,8.352274731359302
1760958850.087655,0.8643686823629557,0.1509432399541367,1.156604013379994,0.010906931170373006,-23.03318802686396,18.191307027125163,5.854999772875865
1760958850.0975115,0.9903512161564315,0.15790140768132557,1.132314017205926,0.03425235279560749,-22.13171445379656,23.025369509723138,2.9004773800036343
1760958850.1077178,1.0819945596215281,0.15310253799836368,1.1056859536762598,0.057944416184387504,-21.33800001484857,28.51808439108845,-0.6545944557159878
1760958850.1177626,1.124923271921531,0.13583273326852185,1.0785658761957488,0.08004364765128034,-20.925029977602463,34.34107765950536,-4.914631897673108
1760958850.1276467,1.1047705701225397,0.10690213121480789,1.0523634751884061,0.09861549588287728,-21.13266272167051,40.10463743208983,-9.918669305535698
1760958850.1377585,1.009039146886512,0.06869737095805475,1.0280294180659653,0.11202631856085339,-22.117380893757737,45.39692242091363,-15.621054969466572
1760958850.147626,0.8289015086111962,0.024985600416505955,1.006154215295993,0.11922090867693379,-23.911455503655418,49.82848795742525,-21.88328059836832
1760958850.157631,0.5606559091382649,-0.01953331379056778,0.9871173923933796,0.11991931575524821,-26.401872820527654,53.07665216593887,-28.478729728168464
1760958850.1677442,0.20660215575239277,-0.05987354856287819,0.9712096019677009,0.11467462559887186,-29.335725781843703,54.92349696015566,-35.109847840286825
1760958850.1776435,-0.22480877144468892,-0.09150538812725288,0.9586778662894787,0.10476461935205379,-32.352611725384136,55.281425232508326,-41.435508597703354
1760958850.1876688,-0.7195891352691641,-0.1110598191144626,0.9496891982165705,0.0919389957853209,-35.03785867030401,54.201659159708704,-47.10527441972175
1760958850.1977215,-1.2595229076381855,-0.11686418911361583,0.9442482665512522,0.07808845510001228,-36.98552965086819,51.863913542479175,-51.79655385380879
1760958850.2076805,-1.824003555200975,-0.1092091443691404,0.942122208836228,0.06492253331070076,-37.858657678240114,48.54898576266164,-55.25014716855668
1760958850.217779,-2.3921635364008456,-0.09030031245817058,0.9428157471763938,0.053733092871098426,-37.43597178730163,44.59901189035519,-57.29945059092937
1760958850.2276323,-2.9450142187218513,-0.06390812155651374,0.945612705587618,0.04528727450365997,-35.63829521366682,40.37181804769302,-57.88896143565091
1760958850.2376928,-3.4673069058579933,-0.03478090603669434,0.9496718966801396,0.03985170019313912,-32.532406852623794,36.19606278057193,-57.07894814341691
1760958850.247794,-3.94885835917806,-0.007921313406060962,0.9541481137513332,0.037313104378682224,-28.31432750647929,32.3331270293544,-55.03525120367702
1760958850.2577233,-4.385159730720806,0.012156737009690971,0.9583056046415488,0.037340063865726074,-23.277049087951646,28.95038343062603,-52.005853959034035
1760958850.2675898,-4.777202112267727,0.02207077661102075,0.9615980759036065,0.03953065668697048,-17.76940502380268,26.108796394096732,-48.2884348529437
1760958850.27766,-5.130590268398819,0.02000499428992135,0.9637013690058851,0.043508722111380474,-12.15309048275248,23.765885937408566,-44.194785371743286
1760958850.2878783,-5.454150239871982,0.005863352956047854,0.9644994952889712,0.0489574613342327,-6.763971086311538,21.793059047458645,-40.01823219072624
1760958850.2976086,-5.758327596351647,-0.018879189310092807,0.9640381280071206,0.05560207776332249,-1.882114541393406,20.00436426203563,-36.00901803598491
1760958850.307627,-6.05368695516024,-0.05157980861154026,0.9624670740702821,0.06316590486656203,2.287108243652592,18.192104788788203,-32.36038167292745
1760958850.3176832,-6.349751983864608,-0.08897899802531006,0.9599916691094617,0.0713264665754689,5.6205189115320175,16.163722411535225,-29.205496634820094
1760958850.327807,-6.654296491539991,-0.12776552460232452,0.956843702759138,0.079692209208665,8.074488686189238,13.77418651170952,-26.623191467247292
1760958850.337569,-6.973062150058217,-0.16503406700497592,0.9532701661032088,0.08781043454957999,9.674470960426033,10.948931811006547,-24.64900597701612
1760958850.3480198,-7.309784839671834,-0.19856239950415,0.9495291406901948,0.09520512477084318,10.499557718588125,7.69412943598207,-23.28783786154422
1760958850.3576727,-7.66638468454883,-0.22689860156158084,0.9458815323052526,0.10143333060990847,10.665003338500222,4.093462545986865,-22.525091313120086
1760958850.367626,-8.043209860915841,-0.2493041574852616,0.9425744782690125,0.10614399273895464,10.305354280676653,0.2931199653253874,-22.334518937427273
1760958850.3779078,-8.439291808516057,-0.26562640730936216,0.9398199049062447,0.1091241723037801,9.56013478993697,-3.5211910897324614,-22.68238570119221
1760958850.3876722,-8.85262949084977,-0.2761670378595614,0.9377730981353772,0.11032188936175152,8.563078036737616,-7.150317741799686,-23.52871646268263
1760958850.3976645,-9.280541354945761,-0.28158170012322575,0.936512665457582,0.10983963451589313,7.434938170033131,-10.406060963780797,-24.826931938165313
1760958850.4076517,-9.720098325921036,-0.28280899868351445,0.9360218214662747,0.10789886801946681,6.279291617453302,-13.130358525944613,-26.52312055787074
1760958850.4178553,-10.168598451289359,-0.2810035185251756,0.9361743825881259,0.1047841501896269,5.180569969484406,-15.20752860030166,-28.555737732192185
1760958850.4277208,-10.623996622859837,-0.2774462468195464,0.936733041949323,0.10078281657784587,4.203737687063065,-16.569640572181193,-30.855957845282212
1760958850.4377801,-11.085189474649736,-0.27342356788000405,0.9373673756230508,0.09613793744772156,3.3952800542453327,-17.196291594717497,-33.34850126712278
1760958850.447795,-11.552084437460401,-0.270090044401256,0.93769390537154,0.09102767889152226,2.78528388514693,-17.110491765979337,-35.9526799914893
1760958850.4578488,-12.025438855858553,-0.26834583657453315,0.93733337210688,0.08557537321471417,2.390305431721032,-16.372158370944245,-38.58361936425199
1760958850.4676979,-12.50651564338111,-0.2687602748254477,0.9359749402959967,0.0798845390503285,2.2165147343407514,-15.070253370120987,-41.15392804512665
1760958850.4776835,-12.996646654346701,-0.27156188022733807,0.9334350756057918,0.07408453144190001,2.2624395532142936,-13.314224654840034,-43.57629027031999
1760958850.4876552,-13.496814018681112,-0.2766976231873661,0.9296988588715681,0.06836832233721833,2.520623793784064,-11.225325648765564,-45.76741523211237
1760958850.4977088,-14.007350010870038,-0.2839442612718362,0.924932172520028,0.06300622459237194,2.977721860296364,-8.928556087259013,-47.653469509142376
1760958850.5077314,-14.527820456139224,-0.29303765666565296,0.9194565953348878,0.05832723330181746,3.6129783789894616,-6.546172434568852,-49.17659951980217
1760958850.5176723,-15.057106096221213,-0.3037801571997353,0.9136875481606849,0.054668971325530925,4.395616762365358,-4.193697949762616,-50.301571706049266
1760958850.5276287,-15.593646776334902,-0.316095273982194,0.9080479569007534,0.05230493516597948,5.2821958096416575,-1.9789765918098976,-51.02112501150931
1760958850.5376265,-16.135777825965768,-0.33001750302764554,0.9028774940938379,0.05136406760395677,6.215262001625567,-0.004122142338459133,-51.35851915310239
1760958850.5476408,-16.682071352532446,-0.3456232318299545,0.8983561370847205,0.05176232015742793,7.124480959837881,1.6305746288523477,-51.366047556523995
1760958850.5577602,-17.23159560554235,-0.36292024096816544,0.8944528897989088,0.053165727322561765,7.930906842336531,2.8223556107852503,-51.118919800015796
1760958850.567791,-17.784019798406078,-0.3817188834265814,0.8909045234673576,0.05499816832213948,8.554339383047626,3.4631733882765556,-50.7047580024956
1760958850.577661,-18.3395175706013,-0.40151075662069097,0.887229955663316,0.0564976715929336,8.923057643306597,3.43998251676862,-50.209807073034156
1760958850.5878682,-18.898457642618805,-0.42138191738344155,0.8827884179882065,0.056816787059015716,8.984737229830285,2.639135110296685,-49.70367197950009
1760958850.5975804,-19.460911294416697,-0.43998588575956327,0.8768847941104957,0.05515590804422034,8.717064262356454,0.9549812840216004,-49.22485485249139
1760958850.607632,-20.026046302121582,-0.45559462791856803,0.868911431028211,0.05091200357624159,8.136440023348781,-1.6980784786904162,-48.76948856197057
1760958850.6177292,-20.591507634520358,-0.46623402630005906,0.8585007932142823,0.043818585400709514,7.3032478413237625,-5.37147823185326,-48.28540725221143
1760958850.6278045,-21.152900014569237,-0.46989756911785313,0.845657826236173,0.03404865886057259,6.322448714938654,-10.06808379656616,-47.67308138276857
1760958850.6376457,-21.703483430893048,-0.464819606403349,0.8308457882295988,0.022255831322132318,5.338736594445421,-15.729438815836597,-46.794066580182616
1760958850.647789,-22.23416974294639,-0.44977570337811595,0.8150073791818554,0.009541382409817088,4.5260279848772935,-22.226536078321324,-45.48659260931691
1760958850.6575987,-22.733869177642383,-0.4243636756029679,0.7995102007771917,-0.002648227358789545,4.071646488079616,-29.35572821714139,-43.58686364581537
1760958850.6677186,-23.190186092994374,-0.38921175281705583,0.786014389202782,-0.012675868694343638,4.156219629968769,-36.84099995137853,-40.953668653294095
1760958850.6776512,-23.590413355884092,-0.3460660937490182,0.7762724902997435,-0.01889687786933758,4.931032083689701,-44.34333666387502,-37.49316092047682
1760958850.6875722,-23.922732843535137,-0.2977284306547631,0.7718848456920262,-0.019847915719314893,6.495282400510842,-51.477269655556064,-33.1803287232946
1760958850.6976078,-24.177500380170223,-0.2478402968513589,0.7740441890006077,-0.01442291876566565,8.876211520463137,-57.833804960625066,-28.073857348410833
1760958850.707658,-24.348477009635726,-0.20053579089641052,0.7833083117242651,-0.0020223300547882674,12.015248357112727,-63.00798289065437,-22.321767866034232
1760958850.7177024,-24.43386415533842,-0.16000530348522635,0.7994385878675999,0.01733526662839146,15.763028154891568,-66.62854287615944,-16.156305629036442
1760958850.7276716,-24.437008726406145,-0.13002596193810786,0.8213346668759077,0.04294921022937174,19.88532182202181,-68.38680703144276,-9.877900345696489
1760958850.73768,-24.366666670045177,-0.11351908648170933,0.8470817436359929,0.07343073723247527,24.080575378659947,-68.0620286711884,-3.82944978937317
1760958850.7477946,-24.236749338721054,-0.11219060334422826,0.8741080891494555,0.10676412339623456,28.00799733604902,-65.54102436177917,1.6365301312955696
1760958850.7575765,-24.065524538580156,-0.12630046881047632,0.8994321075108643,0.1404399604352273,31.323213486500098,-60.83071709357354,6.194386852054171
1760958850.7676904,-23.874300720022585,-0.1545949038905046,0.919966474061319,0.17165679576546222,33.716897356397865,-54.062971850618176,9.581420757761931
1760958850.7778158,-23.685684342000656,-0.19441907554649276,0.9328441048842943,0.1975757866549929,34.950983303236825,-45.49160029572031,11.62950185711046
1760958850.787681,-23.521560407067646,-0.24200455603391968,0.9357335222866948,0.21560253004044902,34.88734143493093,-35.481651570360874,12.288503511464741
1760958850.7976942,-23.40099571740087,-0.29289789793462684,0.92711560206632,0.22366451820839886,33.505039716716155,-24.49124846116848,11.638587869405974
1760958850.8077145,-23.33829382065562,-0.34247296746741457,0.9064986850324652,0.22045290435181866,30.904166759489595,-13.046442991089407,9.889445244021372
1760958850.817802,-23.34143164762872,-0.38645844899901477,0.8745550166378722,0.20560205134567033,27.296158717189535,-1.7099305194780312,7.365896176498789
1760958850.827844,-23.4110765244548,-0.42141433281362656,0.8331673433902305,0.17978706032030783,22.982259543574436,8.955018654845816,4.480670174018824
1760958850.8378496,-23.54032101983713,-0.44510248813735287,0.7853775131810784,0.14472554964427603,18.3229448113889,18.423377090062075,1.6965198583814944
1760958850.8478148,-23.71519112743105,-0.4567108289539717,0.7352278370057536,0.10307436091339225,13.70183607521104,26.24712387048525,-0.5190206229095123
1760958850.857699,-23.915894095379976,-0.4569050849768708,0.6874841426926259,0.058216251524441195,9.487902361815715,32.09046694473203,-1.7420420640760903
1760958850.8680363,-24.11868984611101,-0.44769784676645424,0.6472332614125563,0.013939647877420903,5.999736964006833,35.75766970301596,-1.6390297577024435
1760958850.877778,-24.298204992502182,-0.4321443695721407,0.6193617379448798,-0.025970027196482243,3.4755578536579748,37.209769248926065,-0.0068565105406328255
1760958850.8878086,-24.429963817946494,-0.4138992960638551,0.6079497511112373,-0.05818496678452185,2.052266373901134,36.56727645710942,3.1990967019618566
1760958850.897828,-24.492880958456464,-0.39669445280957194,0.6156567921905437,-0.08026584466589547,1.7561404131196006,34.09745524043111,7.853124307241011
1760958850.9076278,-24.471442603648477,-0.38381803731329456,0.6432223226086102,-0.09098198065246776,2.506336780236496,30.186807144439097,13.66658433429123
1760958850.9176917,-24.35730891986147,-0.37768023248408855,0.6892187080766381,-0.09044219603572093,4.13053363763139,25.301509295971034,20.214960328593804
1760958850.9277225,-24.150122342748332,-0.37953290176382554,0.7501427320261274,-0.07999775005022268,6.3902486312541225,19.94024056245765,26.98208651830233
1760958850.9377236,-23.857410220682695,-0.3893756737323847,0.8208365864472599,-0.06193782820053114,9.012012064441205,14.584713616709115,33.41616124787247
1760958850.9478185,-23.49360092960374,-0.4060406984009112,0.8951491846206051,-0.03905133511363648,11.71982788820505,9.653285750073717,38.99013332945626
1760958850.95796,-23.078292878806003,-0.42741604882223716,0.9667164661840812,-0.014156687379070122,14.264346993173975,5.462479799493528,43.25834624165415
1760958850.9677331,-22.634002760048748,-0.45075055215222914,1.0297410982104924,0.010299652266255628,16.445010583423468,2.20035587244064,45.90212716986158
1760958850.9775484,-22.183668670625423,-0.47298432161058507,1.0796657374315843,0.032497399197106036,18.1229900161426,-0.08539978522287917,46.75903566701512
1760958850.9877815,-21.74819914587378,-0.4910662956028523,1.1136543108739234,0.05130646651437605,19.224703509465485,-1.4829769276046445,45.8331747147938
1760958850.997813,-21.34434408237255,-0.5022409401444632,1.130824784656892,0.0661626207172812,19.737573509268497,-2.1952030499951833,43.28675744130693
1760958851.0077226,-20.983119690192428,-0.5042974588289226,1.1322129569574078,0.07680682952694655,19.701019953318493,-2.5030643588904904,39.4155999935285
1760958851.0178735,-20.668949527965253,-0.49577190658951364,1.1204836068217179,0.08298617698561017,19.196017897625023,-2.717965911820943,34.6130499030405
1760958851.0277116,-20.39959397549334,-0.47608444031297037,1.0994376073858119,0.08423721003103242,18.33567700107865,-3.1294301417617283,29.327796828977256
1760958851.0377266,-20.166842711389943,-0.4455944495811054,1.0733909203481846,0.07985273856799063,17.2575170612045,-3.956831740680779,24.020910957053218
1760958851.04781,-19.95785226950995,-0.40556887528559377,1.0465237339038578,0.06906621018477613,16.116225949209934,-5.313775121070324,19.126422454546773
1760958851.0578275,-19.75693445986981,-0.35807248747310955,1.0223086815344884,0.051397756281617725,15.074657858055472,-7.191515546784535,15.018228659013907
1760958851.0676894,-19.547548913157367,-0.30579156458551293,1.0031143140385785,0.02703481862153484,14.29124835854827,-9.463981348809533,11.98470373672351
1760958851.0776916,-19.314232401165384,-0.2517970623948418,0.9900397668928076,-0.0028989483404173785,13.903748059928462,-11.912548076987845,10.211519057556266
1760958851.0876985,-19.044220567111374,-0.1992556142200711,0.9829821490100396,-0.03629484556011675,14.011362971758913,-14.264905021206623,9.772883180398326
1760958851.0978458,-18.728590900284946,-0.15111635487025782,0.98089081994276,-0.07026473674910093,14.658897193984993,-16.24010103784929,10.631364189469352
1760958851.107718,-18.362863328738918,-0.10982607059305868,0.9821331281614571,-0.10155764582955525,15.82655867237286,-17.591627750783314,12.646269106761835
1760958851.1179929,-17.947096450263224,-0.07712961909512202,0.9848832922952698,-0.12708857273262747,17.427821795965954,-18.141960463156945,15.590003896260772
1760958851.1277487,-17.48557640432598,-0.053987700406078296,0.9874520116627494,-0.1444593182253402,19.3159676547321,-17.804542077911226,19.171001533907205
1760958851.137683,-16.98620720978363,-0.04060591412091181,0.9885048350690465,-0.15236171683282718,21.298485071284745,-16.59186804265856,23.06098940387581
1760958851.1477413,-16.459698010880334,-0.03654024513228623,0.9871635740628006,-0.15078781101557107,23.157692061982388,-14.610500844888216,26.923885412105104
1760958851.1577625,-15.918625066369506,-0.04083513207702822,0.983021668519378,-0.14101775410204107,24.67545032607899,-12.045291454118594,30.443592745269623
1760958851.1677089,-15.37643337976112,-0.052159168928736996,0.9761132719904952,-0.12540165435330403,25.65932213047806,-9.135864442422017,33.34831729343578
1760958851.1777246,-14.846438089071984,-0.06892310479617746,0.9668620907229272,-0.10698533169067861,25.966923800692648,-6.14868655211859,35.42958560596346
1760958851.1877918,-14.340888627027272,-0.08938470192652667,0.9560169534082271,-0.08904822604934343,25.524886734256953,-3.3479452460954238,36.55476589936921
1760958851.1978555,-13.87016146890002,-0.11175404684775218,0.9445691532454119,-0.07462749547607467,24.339136021113415,-0.9681701977073194,36.67252236751837
1760958851.2076976,-13.442140495159732,-0.13430715902101079,0.933645396234074,-0.06609972476126802,22.49433195204918,0.8088325707825453,35.81122886349197
1760958851.2177927,-13.061825453085953,-0.15550200967569378,0.9243776809832132,-0.06488126639960953,20.142174919597057,1.8705614680686642,34.070923185353784
1760958851.227707,-12.731184072071422,-0.17408021161979292,0.9177624407226227,-0.07128863868936443,17.480425202157566,2.1822637766530377,31.609905672177895
1760958851.237706,-12.449238698476321,-0.1891362752284349,0.9145300783992972,-0.08457234204323925,14.726348744681372,1.786365031200319,28.627569663326227
1760958851.247692,-12.21235834261933,-0.20014424883585383,0.9150486944871695,-0.10310617193947047,12.089344727023482,0.7930453117482062,25.345432019697597
1760958851.2579043,-12.014713886732409,-0.20694328222290073,0.919280283323484,-0.12468782516022048,9.747432981823982,-0.6367223359661315,21.988472190679058
1760958851.267932,-11.84884665494425,-0.2096918997452443,0.9267948309604339,-0.1468920036720892,7.83108625311376,-2.3133335138727653,18.76866377309936
1760958851.2777562,-11.706294559018156,-0.20880182681327344,0.9368338148760273,-0.1674160729511168,6.415975675042047,-4.042886234859914,15.872002791173601
1760958851.2877104,-11.578214267642057,-0.2048589893106816,0.9484074889892149,-0.18436817076668507,5.524199202918671,-5.650410885264613,13.449557215764717
1760958851.297649,-11.455937998238195,-0.19853763283273382,0.9604109492965892,-0.19646447126027677,5.132037833434013,-6.99894624166013,11.61230199912032
1760958851.30785,-11.331417216101034,-0.19051553159539852,0.9717460704699775,-0.20312174332502023,5.181495486084293,-8.0020785928652,10.428976568890244
1760958851.3176556,-11.197532675045887,-0.1814010727432786,0.9814362000675676,-0.2044491094788035,5.592842566910881,-8.628574889981204,9.926045838046262
1760958851.3276699,-11.048281147916335,-0.17168290232575664,0.9887205765577043,-0.20115596611556527,6.275963329282903,-8.898949826992311,10.089051506824557
1760958851.3376412,-10.878871576578105,-0.1617086698311084,0.993118534415765,-0.19440045629658506,7.139235517354339,-8.875015376922338,10.865051043164154
1760958851.3477082,-10.685769803576926,-0.1516925734322579,0.9944583963490308,-0.18560520056860863,8.095615358080613,-8.6444657355126,12.166245186568046
1760958851.357701,-10.46672205400827,-0.1417446586376088,0.992870339127409,-0.17626523876241243,9.066297402082913,-8.30318512400991,13.875124481972968
1760958851.3676732,-10.220770201086358,-0.1319111024464251,0.9887464574804404,-0.16776901476319564,9.982658533880626,-7.938133455827831,15.851449051078683
1760958851.3777328,-9.94825578488323,-0.12221517330050845,0.9826753901444795,-0.1612487060624926,10.787218481696002,-7.613360090088242,17.94113491164964
1760958851.3877394,-9.650800700551354,-0.11269187760343596,0.9753622984620279,-0.1574721124373188,11.434173777572505,-7.361011493479915,19.986739647801414
1760958851.3976238,-9.331251813692875,-0.10341339937332474,0.9675462271334307,-0.15678419631488688,11.889803430068127,-7.178288110389038,21.8388269782449
1760958851.4077535,-8.99358234331517,-0.0945055453735592,0.9599255865757651,-0.15910167097866354,12.132777741699753,-7.030335889596823,23.367148478774563
1760958851.4177012,-8.642749569256123,-0.08615595904889112,0.9530992259753324,-0.1639588246686575,12.154189725902116,-6.858186944377824,24.470414983747904
1760958851.427828,-8.284510644226295,-0.0786126759168346,0.94752634803209,-0.17059743234230057,11.95704510722023,-6.590215124725042,25.083518455934623
1760958851.4378428,-7.925194738943394,-0.07216919695849591,0.9435048652626478,-0.17808868801866629,11.55503348528619,-6.155201042214454,25.18140270708814
1760958851.4477248,-7.571425699530518,-0.06713331373835284,0.9411658763927799,-0.18547107494933118,10.970615229468784,-5.495001141785584,24.779266726046302
1760958851.4578152,-7.229792427380759,-0.0637823963232319,0.9404817149158599,-0.19188522464832292,10.232682297191621,-4.57496141721397,23.929275781296152
1760958851.467752,-6.90647737227154,-0.06231456962193875,0.9412853389249362,-0.19668599070945741,9.374175092043483,-3.3905881215844214,22.71433505475905
1760958851.477765,-6.606873211843972,-0.06280894934115673,0.9432984335842222,-0.19951506702046246,8.430007155702755,-1.969558412072449,21.239689206017225
1760958851.4875774,-6.335235816924778,-0.06520680107758943,0.9461646750887674,-0.2003251716336176,7.435482196124926,-0.36886522516872455,19.623161135694264
1760958851.4977767,-6.094428073277644,-0.06931910750467708,0.9494845976000439,-0.1993568358188205,6.425164105012111,1.3323541610198912,17.984807133845408
1760958851.5076506,-5.8857973590230435,-0.0748567112627782,0.9528497800005381,-0.19707764636185246,5.431991205922654,3.0430769527937427,16.436736545042677
1760958851.5177913,-5.709202217036424,-0.08147161694664816,0.9558754042522017,-0.1940987386584316,4.486392872095797,4.672030776384302,15.073872004453548
1760958851.5278363,-5.56317267536433,-0.08879637911788497,0.9582307330241421,-0.1910836304895429,3.615268355408041,6.13882098636003,13.96647368260843
1760958851.538115,-5.445165456443001,-0.09647252411170543,0.9596667728395791,-0.18866164970857832,2.8408449800357216,7.382846059393419,13.15522294483339
1760958851.5479505,-5.351864251956848,-0.10416470949746316,0.9600395351799736,-0.1873548339248383,2.1795561475546616,8.368791365773399,12.649486710435946
1760958851.557809,-5.279474519747475,-0.11156163678961437,0.9593261876533522,-0.18752451033446943,1.6411247185421016,9.088169210652424,12.42905711466663
1760958851.5678082,-5.223969592858055,-0.11836733393447758,0.9576306353276968,-0.18934136276491623,1.228006533415085,9.55708761567248,12.449222664896514
1760958851.5778685,-5.181259090103427,-0.12428807209068707,0.955175296838282,-0.19278010636986645,0.9352716662071486,9.81104653073513,12.648551776249278
1760958851.5879092,-5.147269307382404,-0.1290207965007913,0.9522773474286859,-0.19763701075965176,0.7509200599927418,9.89796672961554,12.958358349524621
1760958851.597782,-5.1179443741485375,-0.13224824237258834,0.9493103783637225,-0.20356585073622366,0.6565793260771002,9.870794458055503,13.312565463395352
1760958851.6076918,-5.089192854114975,-0.1336443253139513,0.9466555814555312,-0.21012595940469456,0.6285269069794861,9.780903912602612,13.656636823967853
1760958851.6177826,-5.056815306997295,-0.13289168225850742,0.9446492810275238,-0.21683545121988076,0.6390015362642735,9.673201848787537,13.954404565624692
1760958851.6277156,-5.016453590953538,-0.12971175630487056,0.9435353225335098,-0.22322342371726994,0.6577910659083511,9.583410575819524,14.191948318504673
1760958851.6378312,-4.963602152213411,-0.12390641719298236,0.9434310179412309,-0.22887636456537452,0.6540805859845524,9.537556423353784,14.37811703540768
1760958851.6478097,-4.893713993852095,-0.11540798957432227,0.9443131352260198,-0.23347522023318493,0.5985085698039899,9.553294150351515,14.54176443827017
1760958851.657752,-4.802417391768279,-0.10433100802735205,0.9460255391030881,-0.236820407393561,0.4653163000293746,9.642404194037173,14.726218009876053
1760958851.6679232,-4.685834286875003,-0.09101510278622846,0.9483046818372954,-0.2388430163913873,0.23439990703262625,9.813641260687678,14.981853011416439
1760958851.6778488,-4.540963450649029,-0.07604673668179937,0.9508163944319065,-0.23960189577303967,-0.10699687690701215,10.075105689320813,15.357851186862758
1760958851.687794,-4.366069388482754,-0.06024952012567878,0.953198026457214,-0.23926772541214114,-0.5632535054496063,10.435448351530951,15.894271355740788
1760958851.6977482,-4.161007785784694,-0.044637781341771994,0.9551017951146875,-0.23809612982355802,-1.130299960401617,10.903479743121986,16.61545397722983
1760958851.7079117,-3.92742286173141,-0.030334555409185948,0.9562363213450341,-0.23639264304556457,-1.7967057863294664,11.486093336951258,17.52554971499887
1760958851.7177951,-3.6687708036191187,-0.018461932303027357,0.9564035968163281,-0.23447322797240144,-2.545951547809085,12.184777584016409,18.606642149100153
1760958851.7278402,-3.390151590443222,-0.010016885102882124,0.9555285728110681,-0.23262467135134834,-3.3596282805931743,12.991315318526727,19.81957967766558
1760958851.7378523,-3.0979598131131865,-0.005747301963968264,0.9536785841027665,-0.23106892211764932,-4.221010554044208,13.883495253393784,21.107302919084365
1760958851.7478542,-2.7993858112809513,-0.006041426742639643,0.9510705435801413,-0.22993452974280126,-5.1182397567537405,14.821757408923594,22.40020264451481
1760958851.7578661,-2.501811130620274,-0.010842329319654375,0.9480657877417291,-0.22923778605569428,-6.046328716103718,15.747664112628076,23.62288375504452
1760958851.7677598,-2.2121515592190324,-0.019599140547156862,0.9451545842422985,-0.22887659113829598,-7.007366324551838,16.58494542361813,24.70162068186799
1760958851.7779205,-1.9362092437664826,-0.031266787927992507,0.9429324078330147,-0.22864072837018923,-8.008604553120644,17.243622809251708,25.571746118343786
1760958851.7878344,-1.6781005331111012,-0.044363192553030374,0.9420675635916005,-0.22824160899278237,-9.058487538644004,17.627366795601063,26.1842185487699
1760958851.7978723,-1.43982504490931,-0.057086815483951295,0.9432567790792987,-0.22736164499063852,-10.161105615723047,17.643786985380206,26.510670880562486
1760958851.8077652,-1.2210322525308615,-0.06748909494469786,0.9471648182241139,-0.2257183565278161,-11.310002229466573,17.21680701009122,26.546350129062645
1760958851.8179054,-1.0190241439777596,-0.07368659372697692,0.9543473197962639,-0.2231315727131177,-12.482624516238824,16.299729618430664,26.310513489298046
1760958851.8277168,-0.8290069378732655,-0.07408771009897577,0.9651623608065955,-0.21957436739898165,-13.63680540660563,14.88719194684167,25.844048987623292
1760958851.8378124,-0.6445747365250116,-0.06760156626000059,0.9796833953667201,-0.21518358871679089,-14.710385712366582,13.024080246570259,25.20433781295678
1760958851.8478584,-0.4583797922656739,-0.05379681424428203,0.9976310672159715,-0.2102125060249957,-15.62452605652775,10.809666740612144,24.457665371830515
1760958851.8579028,-0.26292483950498324,-0.03298774947117318,1.0183415799108773,-0.20493057922867167,-16.290650428136725,8.395706349280635,23.669799679991147
1760958851.867695,-0.05140558298727277,-0.006239656285787476,1.0407843856642958,-0.19950219079177017,-16.620465640533894,5.977908462129881,22.895648485530057
1760958851.8781974,0.18146730179484666,0.02470340775988809,1.063633402319454,-0.19388724669264973,-16.538140898769388,3.7810042234699472,22.16913595044456
1760958851.8877609,0.43873284073398106,0.05756041815628198,1.085386273986572,-0.18779502053216987,-15.993498747558151,2.038474581846606,21.49457356472796
1760958851.8976924,0.7205926201465859,0.08971526362398513,1.104517409792008,-0.18070066445236174,-14.974937588591903,0.9687859894896824,20.8408174880246
1760958851.9076796,1.0240282726616443,0.11846648630523277,1.1196439877260806,-0.17191652949760433,-13.520681728364607,0.7506298611644479,20.13939792355029
1760958851.9176605,1.3426724032672062,0.1413070498195281,1.1296809945566693,-0.1607028245377057,-11.726738734417337,1.5001374021778897,19.28757457535498
1760958851.9275956,1.666969683752731,0.15620931882034259,1.1339618255608348,-0.14640076906664098,-9.749667269717422,3.253258176133947,18.156888753394927
1760958851.937847,1.98464961888625,0.16188649729876603,1.132303513197321,-0.12857110087903417,-7.80210043539755,5.956301466072993,16.6071796604325
1760958851.9476242,2.281516207137234,0.1580029893993976,1.1250005547286892,-0.10711846043817991,-6.139185062994418,9.466915417107892,14.505152179257319
1760958851.9576373,2.542536634916038,0.14530686946636417,1.1127429786707332,-0.08237808707900057,-5.03497698205765,13.566513470655927,11.745461178933445
1760958851.967685,2.753167488623269,0.1256512817928889,1.0964759232399646,-0.055139924764710656,-4.749633208962207,17.98350247678869,8.271122298012623
1760958851.9776707,2.9007876488283495,0.10186437283255682,1.0772426603960557,-0.02659372134386018,-5.490925863993948,22.424889399201167,4.089311055877355
1760958851.9876657,2.9760329099985694,0.07743699676772187,1.056063092509626,0.0018004909894441719,-7.3764850787737855,26.612258401623674,-0.7211915619635456
1760958851.9975777,2.9737902118219286,0.05603469289084962,1.0338817214430425,0.0284885397642829,-10.404979419016085,30.317014885658654,-6.013278349528655
1760958852.0076005,2.8936432214639742,0.040896711658073764,1.0115814021989022,0.0520062227033113,-14.44397106951489,33.389413445252096,-11.585714822162696
1760958852.0176485,2.739665155000041,0.03423727029486243,0.990027934291846,0.07114008518939373,-19.239100210282164,35.77637299067157,-17.20620598643595
1760958852.027851,2.5195941009887757,0.03678824911375504,0.9701038572518784,0.08504841309095927,-24.44429312362035,37.52452235376444,-22.63957148694436
1760958852.03762,2.2435549108978194,0.0476035341704846,0.9527047035368459,0.09333632268861362,-29.667409411246666,38.76724236020904,-27.676362076142052
1760958852.0476506,1.9225751294238045,0.06418618512130225,0.9386931789462017,0.09608273330969343,-34.521989347073095,39.697301872989776,-32.15717559926998
1760958852.0577154,1.5671651448804615,0.08292094121623962,0.9288233891125138,0.09381881528769541,-38.67480876371852,40.52940056266088,-35.988644191621226
1760958852.0677118,1.1861987302876795,0.09972334261098581,0.9236528188771709,0.08746029987008344,-41.88082654524991,41.45890811376641,-39.1484570133265
1760958852.0781136,0.7862560224229568,0.11077296281352085,0.9234576625680831,0.07820029710483689,-44.00078140053093,42.62391962151957,-41.678669170279406
1760958852.0878203,0.37149589470203787,0.11318803552107656,0.9281642790596776,0.06737416902566687,-45.000814702429686,44.077284788222364,-43.6686749084277
1760958852.0976524,-0.0559752208351015,0.10551712072329972,0.9373090900644687,0.056312063851691685,-44.93699260200931,45.77360655503146,-45.231223479760864
1760958852.1076822,-0.4953610008444196,0.087961770260214,0.9500392471344005,0.04619679683676223,-43.92986226661335,47.5736349542977,-46.47624245073372
1760958852.11774,-0.9462470858461202,0.062294921526147407,0.9651637443186403,0.03794486826429414,-42.13503146004114,49.26544183847128,-47.48759037814039
1760958852.1277103,-1.4077015700646223,0.03149588497539995,0.9812573249250922,0.032126900009991737,-39.71537732856417,50.59877463427924,-48.3070864450413
1760958852.1376297,-1.877602564271614,-0.0008246393123923616,0.9968077668254164,0.02894032841345019,-36.81924827482466,51.326598650594654,-48.92852009635071
1760958852.1477761,-2.3523375314527035,-0.031097396974982778,1.0103847434628836,0.02824072432362468,-33.567340333724445,51.24653188630397,-49.302299259323775
1760958852.1578188,-2.826939869410618,-0.0564366390495593,1.0208009254047479,0.029627433018421096,-30.04912336891974,50.23495132863016,-49.3494261777433
1760958852.167826,-3.29563936689676,-0.07513144316029009,1.0272361469382028,0.03256510729099995,-26.327967044190576,48.267983564542725,-48.981936441241274
1760958852.1778998,-3.7527210351481113,-0.08689788050328287,1.0293027122330138,0.03651028128230247,-22.452640321846957,45.42602232807104,-48.12597345291634
1760958852.187759,-4.193525605856013,-0.09285245224315111,1.027042501036144,0.04100930481901062,-18.471812370292746,41.8813166822338,-46.74335275155163
1760958852.1977124,-4.615394855103147,-0.09522454284765852,1.0208616257157856,0.0457447580935495,-14.447748612342675,37.87107580308909,-44.84778492465403
1760958852.2082317,-5.018370612553327,-0.09687831270758328,1.0114213554591134,0.050527148091931,-10.465689878914008,33.66102832411349,-42.51279709293836
1760958852.2177393,-5.4054962676943035,-0.10074793638523823,0.999510880022837,0.05524716029981278,-6.636391081252947,29.505990446798993,-39.86969486534624
1760958852.2277894,-5.782636645053137,-0.10929621963203714,0.9859276018158298,0.059813516506539544,-3.0907777024195084,25.614319868684998,-37.095494253160545
1760958852.237693,-6.15781574355365,-0.12408869021573203,0.9713858837757561,0.06410126492349286,0.032638389915616885,22.12208236716586,-34.392458083923515
1760958852.247745,-6.540159467276518,-0.14554417524472718,0.9564675787716655,0.0679277763910207,2.605369405265453,19.08068514878445,-31.962452502617953
1760958852.2577116,-6.938608088646187,-0.17288907581713173,0.9416184531415931,0.07106263091251494,4.528214890648816,16.459198351131196,-29.980466328931833
1760958852.2676826,-7.360616277070456,-0.20431143092517354,0.9271844711230753,0.07326673575202028,5.748320526629713,14.160113069716157,-28.571979488251298
1760958852.277692,-7.811073365673289,-0.23728304342962458,0.9134716924943458,0.0743482444446525,6.270504293623555,12.04524564399901,-27.79825811795638
1760958852.2880461,-8.291642785735831,-0.26899253240015464,0.9008056408811127,0.07421895900941804,6.16039803461701,9.967125266084876,-27.65218766917327
1760958852.2977922,-8.800636891065265,-0.29681169492383913,0.8895650138092674,0.07293454438161018,5.5385310594560995,7.800598515873047,-28.06523998887497
1760958852.307789,-9.333428937837915,-0.3187098010639119,0.880174086379178,0.07070532241936417,4.566233908495464,5.469545215771269,-28.92402144394589
1760958852.3177094,-9.883292164288678,-0.3335433371340386,0.8730554588381414,0.0678718853387119,3.4257981228720866,2.9644670592343005,-30.093020870916984
1760958852.3277352,-10.442483689056854,-0.3411817209973876,0.8685611562451836,0.06484967308755937,2.29833170157973,0.3482034628938508,-31.43907790374218
1760958852.3377664,-11.003376299645062,-0.3424701381295103,0.8669065629521445,0.0620556920435493,1.3429584145163371,-2.2510242487765404,-32.852966814083445
1760958852.3476536,-11.559473407888412,-0.33906164078482137,0.8681251544885547,0.05983517389182641,0.6804089438589745,-4.657975238699917,-34.264342602540225
1760958852.3578062,-12.106194667246557,-0.3331627377679217,0.8720479006005003,0.058404236539253265,0.38288493655180117,-6.677135881192628,-35.64788977971445
1760958852.3677728,-12.641369840353443,-0.3272332952901688,0.8782999293791909,0.05781792807017528,0.4707548113768577,-8.123716347770408,-37.02041604991899
1760958852.3777473,-13.165417157538311,-0.32367177303738953,0.8863049988237857,0.05796525181979988,0.9155484722514765,-8.854431537100789,-38.43032546946283
1760958852.3876083,-13.681208672806584,-0.32450792237089066,0.8952938821758853,0.05858688256361519,1.648047038869992,-8.793965128358305,-39.941983091488964
1760958852.3977776,-14.193642345564724,-0.3311214866629879,0.9043207436585219,0.05930833546465176,2.569997947503275,-7.953831650896293,-41.61781765585684
1760958852.4077408,-14.708955255486035,-0.3440091585114018,0.9122976417853524,0.05968151190501691,3.5679951242859245,-6.441364442310107,-43.50076789714886
1760958852.4177258,-15.233831274392536,-0.3626311493414595,0.9180584868728071,0.05922993699549275,4.528180848325583,-4.457621435534855,-45.599180633180346
1760958852.4277658,-15.774381951183752,-0.38537620606193423,0.9204589129805321,0.05749562745948117,5.35051184568141,-2.284068302478123,-47.8757861275109
1760958852.437689,-16.335106095588,-0.40967972388958146,0.9185087400705209,0.05408725250929467,5.961345669158176,-0.2589490960934007,-50.242010825174475
1760958852.4478106,-16.91795126931171,-0.4323073737016438,0.911521899393144,0.048730228471858414,6.323116455526165,1.2547341813226671,-52.55857733395621
1760958852.4577808,-17.521600691534193,-0.44978007474968373,0.8992586749944269,0.04131894510610356,6.440000365069848,1.9067673376530647,-54.642940381449556
1760958852.467723,-18.141090086097222,-0.45887750945054356,0.8820303066020997,0.03196811203206111,6.358790500710415,1.3991032945354247,-56.283480276617
1760958852.4777098,-18.76782387144809,-0.4571310610517799,0.8607383537041557,0.021054949959171534,6.164693770550952,-0.4772186314734857,-57.25948126730753
