timestamp,linear_acceleration_x,linear_acceleration_y,linear_acceleration_z,angular_velocity_x,angular_velocity_y,angular_velocity_z
1760596078.1570935,-0.07568612450736625,0.9845426579335653,0.006338087243934701,-0.039144929389410915,-1.2320297263292364,-0.6381066708931943
1760596078.1670575,-0.0800828382617933,0.9841271892634066,0.005540414017583205,-0.20955268993604403,-0.7224421672989279,-0.41313495011646606
1760596078.1770537,-0.08568476711088574,0.983496574938955,0.004472409736612359,-0.3540258842342552,-0.215241908877522,-0.20457323065571792
1760596078.187093,-0.0917386625789949,0.9827339919626812,0.00325583879294805,-0.45592306733786514,0.24041272207730077,-0.03322208494596942
1760596078.197033,-0.09750021381270685,0.9819428675235626,0.002018810018997354,-0.5041605946617123,0.6051662847496323,0.08620378987569254
1760596078.2070336,-0.10234609202617825,0.9812294392323572,0.0008785105072266925,-0.4947477747697796,0.8538505823760525,0.14664886894167753
1760596078.2170367,-0.10584693008080608,0.9806854248090159,-7.329008152991356e-05,-0.4311290239076391,0.977390385817877,0.1490066828926818
1760596078.2270417,-0.10779585379776933,0.9803740158121139,-0.0007801022719956572,-0.3233238349459959,0.9821959691256548,0.10121990983559304
1760596078.237034,-0.1081980237457817,0.9803212491301504,-0.0012246666148902473,-0.1860884128982721,0.8874346812958911,0.016472567638138993
1760596078.2470324,-0.10723298626217498,0.9805135734329309,-0.0014266889903153405,-0.036491180833658335,0.7208777577563511,-0.08913614122559808
1760596078.257083,-0.10520311845454483,0.980901402533118,-0.001435216903461833,0.10863437529609944,0.5141567803700597,-0.1990251628317037
1760596078.2684882,-0.10247924127670607,0.9814076741682439,-0.001317333735836293,0.2349268674932529,0.29823173809338444,-0.29831149762833065
1760596078.2770672,-0.09945054470154405,0.9819398716978883,-0.0011451393937268203,0.33210169799516,0.0997043141455014,-0.3754724398950378
1760596078.287054,-0.09648229741277703,0.9824036916189083,-0.0009830063109122252,0.39475248482879943,-0.061635732237015815,-0.4233404301481346
1760596078.2970593,-0.09388262694570883,0.9827165792309842,-0.0008770987467468341,0.42233486714594876,-0.17390519157278536,-0.43939341213921096
1760596078.30706,-0.09187895034695662,0.9828194879195499,-0.0008490211057182942,0.41845263247096626,-0.23296612967299132,-0.4254029636033068
1760596078.317045,-0.09060464184301045,0.9826852760066151,-0.000894927413976816,0.389661576807163,-0.24127690956286413,-0.3865808122202143
1760596078.3270504,-0.09009653751968266,0.9823223273462421,-0.0009903459645403665,0.3440544664780493,-0.20611315181603845,-0.3304134806790279
1760596078.3370695,-0.09030335998316918,0.9817725498937994,-0.0010995211761892088,0.28988834207247566,-0.1375347291834694,-0.2653886626502802
1760596078.3470707,-0.09110375824984375,0.9811038997090087,-0.0011866953733587345,0.23446719640284214,-0.04643788470404271,-0.19979727478341652
1760596078.357066,-0.09233079278551509,0.9803987648904289,-0.0012260716620648773,0.1834118643384026,0.05704204811216034,-0.14075278522197002
1760596078.3670564,-0.09379848941485654,0.9797405321206892,-0.0012077304340357463,0.1403557019179329,0.16460697626623583,-0.09351797261511571
1760596078.3770444,-0.09532636213443496,0.9792010283590252,-0.0011384315408564556,0.10702081037648264,0.2702874221590865,-0.06117748627195077
1760596078.3870516,-0.09675915552497516,0.9788311020375197,-0.0010381254543844782,0.0835704340268349,0.3703908729614723,-0.04464555844023761
1760596078.3970478,-0.09798040080304392,0.9786556211602726,-0.0009340381229688679,0.06910562611555726,0.4630378885951776,-0.042954494456337325
1760596078.4070573,-0.09891927364874058,0.97867310105276,-0.0008541411525252592,0.06217748173085215,0.5474716044404953,-0.05373662997562616
1760596078.417057,-0.09955097568158577,0.9788593711431788,-0.0008213565807475674,0.06121344297271101,0.6233378564091605,-0.07379657887569646
1760596078.4270453,-0.09989152114135863,0.9791741599196792,-0.0008495471596362212,0.0647977262183452,0.6901037763746739,-0.09967414588248429
1760596078.4370694,-0.09998820352028091,0.9795690780497682,-0.0009420173201150938,0.07179148920087484,0.7467246356242416,-0.12811800508428375
1760596078.4470942,-0.09990721978944911,0.9799952151379766,-0.0010925343716807544,0.08131789988492845,0.7915988020640601,-0.1564195983077349
1760596078.4570425,-0.09972011754955314,0.9804086606403141,-0.0012879979518203887,0.09266264992745028,0.822784649175867,-0.1825883230422409
1760596078.467035,-0.0994908813404232,0.9807729451767001,-0.0015114616785787825,0.10514800377069876,0.8384030449782109,-0.20537638261450372
1760596078.4770446,-0.09926561515341924,0.9810586386239502,-0.0017445037921139002,0.11802988717510118,0.8371218268659515,-0.22418112471374466
1760596078.4870596,-0.09906688254522991,0.9812416638066629,-0.0019685697988417114,0.13044853431117734,0.8186151326332068,-0.23886486717151761
1760596078.497077,-0.09889432942919779,0.9813024787468727,-0.0021653839160127517,0.14144134227704971,0.7839051534322807,-0.24953891026488298
1760596078.5070767,-0.09873169955811133,0.9812275643460121,-0.0023168125910959674,0.1500083990552512,0.735519620752805,-0.25635921876159784
1760596078.5170443,-0.098558158816633,0.9810129630404221,-0.002404864790232812,0.15521037231197257,0.6774298084747679,-0.2593744990988158
1760596078.5270472,-0.09836026106910457,0.9806681401153192,-0.002412707384724078,0.1562756386868755,0.6147671030339765,-0.25845383047154896
1760596078.5370502,-0.09814087166939178,0.9802181971939031,-0.0023272293032804356,0.15269649822965461,0.5533479100650451,-0.2533038494608607
1760596078.5470335,-0.09792265375650755,0.9797033508497042,-0.002142719140678713,0.14429954119442817,0.4990643651070176,-0.24356754478574502
1760596078.5570347,-0.09774537480988815,0.9791756714874804,-0.0018642692064905506,0.1312804591369437,0.4572200063864447,-0.2289795652532545
1760596078.567046,-0.09765775372047163,0.9786936835598047,-0.0015093858831531776,0.11419867553677063,0.43190268206812976,-0.20953912889870668
1760596078.5770416,-0.09770579737332728,0.9783156055291772,-0.0011070368018014044,0.093932488376565,0.4254878290621128,-0.18565579171574617
1760596078.5870607,-0.09792045437872712,0.9780921199698804,-0.0006943401134512452,0.07160064408211128,0.4383501276064521,-0.15822915058792142
1760596078.5970502,-0.09830766430056016,0.9780597569033266,-0.0003117454035376505,0.04846054776636433,0.46883020197529496,-0.12863942836796324
1760596078.6070626,-0.09884340894000623,0.9782360459192364,2.19849221344337e-06,0.025795856619170863,0.5134614606642196,-0.09864567699929853
1760596078.6170707,-0.09947527409908057,0.9786173002806385,0.000215453122813308,0.004806801825951447,0.5674198577232475,-0.07020648145506697
1760596078.6270628,-0.10013039636771737,0.9791793109899787,0.00030574962973426285,-0.013484415375796324,0.6251251030282463,-0.045252170333077
1760596078.6370876,-0.10072781750772877,0.97988066772062,0.00026220647982223475,-0.02830325605259043,0.6809022051273809,-0.025446404938697917
1760596078.647086,-0.10119204642216223,0.9806680656875935,8.542031472874459e-05,-0.03916152132716909,0.7296104982270927,-0.011976881156121444
1760596078.657048,-0.10146482790549764,0.9814827359841949,-0.0002136009310359244,-0.04586374488166295,0.7671617946212708,-0.005408853274555069
1760596078.667059,-0.10151345052250973,0.9822669907432608,-0.0006152672482525698,-0.04848409690958707,0.7908739663220585,-0.005622756624088253
1760596078.6770725,-0.10133515645778833,0.9829698944180802,-0.0010937590837310938,-0.04731966746384288,0.7996339925945422,-0.011841636642193457
1760596078.6870763,-0.10095754470207972,0.9835513524689077,-0.001619795473099342,-0.04282809841654256,0.7938699340550579,-0.022739349091675007
1760596078.6970592,-0.10043474675835784,0.9839843822584708,-0.0021636393497387854,-0.03555836618866867,0.7753517538405974,-0.03661019571674978
1760596078.7070622,-0.09983952808331435,0.9842558068175894,-0.002697909726510406,-0.026083010852362712,0.7468563629557097,-0.05157597223166231
1760596078.717069,-0.09925248273460809,0.9843659039549405,-0.0031995458883103457,-0.014939287198095754,0.711744113192423,-0.06580511272354204
1760596078.7270823,-0.09875039173927208,0.9843275363077293,-0.0036503740357533665,-0.00258630978502097,0.673502758927549,-0.07771797746587583
1760596078.7370825,-0.09839586683482336,0.9841649821798409,-0.00403627807606259,0.01061577576018043,0.6353186822314192,-0.08615237487449712
1760596078.7470872,-0.0982296809676115,0.9839122491649505,-0.004345646410307153,0.02440160351067143,0.5997308016926043,-0.09046639203561153
1760596078.7570553,-0.0982664046053794,0.9836103746146369,-0.00456807169645215,0.038572850094719405,0.5684092403013463,-0.09056348185204079
1760596078.7670805,-0.09849355438415303,0.9833033429698708,-0.0046941107769274395,0.05295255544275304,0.5420808406896646,-0.08683749814012962
1760596078.7772665,-0.09887424101363369,0.9830327825712157,-0.004716512702322483,0.06733029656199295,0.5206004020796934,-0.08005027006061151
1760596078.7870712,-0.09935303467347933,0.9828322791055324,-0.004632848430920471,0.0814095651659303,0.5031436475744518,-0.07116676115341411
1760596078.7970817,-0.09986443988759192,0.98272259753963,-0.00444891589547685,0.09477007969758931,0.4884794358651496,-0.06117901128055862
1760596078.807068,-0.10034295924165029,0.9827090558340272,-0.00418178751633529,0.10685652249548241,0.47526823648414157,-0.05094894144856802
1760596078.8170629,-0.10073315843470916,0.9827816904811777,-0.0038611807547574285,0.11700060805772326,0.46233344111835495,-0.04109347829204815
1760596078.8270545,-0.1009976479634738,0.9829179875814994,-0.0035280484555065645,0.12447664713711164,0.44886154220687025,-0.03192609897931727
1760596078.837071,-0.10112099999809882,0.9830872749377335,-0.0032298394363544968,0.12858421815438725,0.43450424973684465,-0.023458800507733177
1760596078.8471122,-0.10110864154313218,0.9832556563143672,-0.0030127432329185746,0.12874649160293777,0.41937683495595124,-0.015458471338689146
1760596078.8570824,-0.1009813742500519,0.983390616929547,-0.002912281758533594,0.12460902450552057,0.40396838201140556,-0.007542489063335946
1760596078.867096,-0.10076756443155774,0.9834648883736762,-0.0029444893308776627,0.11612183168160216,0.38899598688219683,0.0007080904510400656
1760596078.8771477,-0.10049551574572604,0.9834594226013907,-0.003100196657555014,0.10358854463064522,0.37524153463232396,0.009640951818798055
1760596078.8871033,-0.10018795969139875,0.9833651896890595,-0.0033443487665353886,0.0876708769116677,0.3634054941085885,0.019449720217511696
1760596078.8970811,-0.09985951853543096,0.9831833054310768,-0.003620987474423192,0.06934341648357781,0.3540003109118581,0.03012744660983482
1760596078.907066,-0.09951708799131057,0.9829232294886213,-0.0038630412599741466,0.04980167139417878,0.3472916455248791,0.04146001844616715
1760596078.9173207,-0.09916257883700344,0.9825994971180011,-0.004004924264568467,0.030334400546285993,0.3432839159426762,0.05305736428363666
1760596078.9270623,-0.09879713905231635,0.9822281065972661,-0.003995378193392117,0.01217866480053901,0.3417400702076185,0.06441633071288168
1760596078.9371102,-0.09842556804150367,0.9818237493687475,-0.0038079741029609193,-0.003619045483513549,0.34222384822534957,0.07500527405300451
1760596078.9470696,-0.09805918659936672,0.9813985803484397,-0.0034471717544960825,-0.016312115604857555,0.34415405242449654,0.0843560657901674
1760596078.9570613,-0.09771550446092682,0.9809625760610944,-0.0029487622592188336,-0.02551559903271177,0.34686302402715885,0.0921456526279337
1760596078.9670815,-0.09741409313427511,0.9805249677287131,-0.0023747086772992624,-0.031212439574060044,0.3496549985691711,0.09824906597868077
1760596078.977082,-0.09716977283608863,0.9800958930165837,-0.0018035049699200497,-0.03370765494656879,0.3518634850560375,0.10275076602839524
1760596078.9870815,-0.096985649217293,0.9796874660685937,-0.0013178927654974718,-0.03354417046995357,0.35290838291854487,0.10591084387106259
1760596078.9970608,-0.09684890262518776,0.9793139070660944,-0.0009920121341582856,-0.03139983150124882,0.35235143806950636,0.1080936172659543
1760596079.0070786,-0.096731291042624,0.9789908594560804,-0.0008798970265804566,-0.027985312668201565,0.34994367651241187,0.10967475662843724
1760596079.0170631,-0.09659456106594967,0.978734235562777,-0.00100682295191525,-0.023958153244216657,0.34565439647338403,0.11094738572197368
1760596079.027109,-0.09639928624538371,0.978558814060482,-0.0013645830844368626,-0.019861478594341887,0.3396716983589493,0.11204785405309942
1760596079.0370677,-0.09611475919358767,0.9784765695780323,-0.0019114439356000047,-0.016089394121378407,0.3323696619579565,0.11291874976010426
1760596079.0470717,-0.0957275956881977,0.9784947209099115,-0.0025771873536080416,-0.012875712485085572,0.3242445485610421,0.11332023579091056
1760596079.0570786,-0.09524732515574723,0.9786138510781128,-0.0032729636861205205,-0.010299440826533878,0.3158290320562556,0.11289115116166902
1760596079.0671046,-0.0947079093246425,0.9788267191394335,-0.0039045669194492966,-0.008300490185144959,0.30759816270964385,0.1112501242962092
1760596079.0771365,-0.09416457573361044,0.9791181303042703,-0.004386654451116776,-0.00670257861227193,0.29988339893593735,0.10811690219242354
1760596079.0870874,-0.09368578459006688,0.9794657501991068,-0.004655102025130177,-0.005244892298312065,0.29281139847606913,0.10342771367383986
1760596079.0970829,-0.0933410447267587,0.9798416188680958,-0.0046753881394610225,-0.003625747709839855,0.2862814122655419,0.09741742023777149
1760596079.1071138,-0.09318679648199764,0.9802143958876152,-0.004446185864978399,-0.001558287862558445,0.2799882467038283,0.09064628475165779
1760596079.1171546,-0.09325390014398936,0.9805525672261413,-0.003998480870756952,0.0011675082607128203,0.2734878708607011,0.08395994109616411
1760596079.1271348,-0.09354019659623156,0.9808285548175939,-0.0033910833679463605,0.004626354887973049,0.2662931421992353,0.0783854612526851
1760596079.1370745,-0.09400993243144819,0.9810230126223647,-0.0027033771280315345,0.008713416119250982,0.25798134154770774,0.0749811360247568
1760596079.1470952,-0.09459969917576846,0.9811281312211468,-0.0020259732944204493,0.013123759820164746,0.24829432017529074,0.07466908247674969
1760596079.1570768,-0.09522908636302382,0.9811489211695072,-0.0014500509164467248,0.01736279035370727,0.2372144535599686,0.07808438129805666
1760596079.1670735,-0.09581365837229426,0.9811020385985351,-0.001056583131701418,0.020791211146243424,0.22500338448976953,0.08547017547233797
1760596079.1771536,-0.09627773827358517,0.9810123328397022,-0.0009069811035244347,0.022702116109537495,0.21219515069463538,0.09663664059570501
1760596079.187091,-0.09656468188011078,0.9809078175232748,-0.0010365607282048204,0.022420733863984115,0.1995408835483068,0.11098731905383
1760596079.1971037,-0.09664305244628747,0.9808142720230593,-0.0014516359512163426,0.01941177548707158,0.18790910109967676,0.12760322662008652
1760596079.2070777,-0.09650833561229379,0.9807509385329495,-0.0021302926799932065,0.013377501880589629,0.17815345211802067,0.14536536386741092
1760596079.2170606,-0.0961810078629621,0.9807283957791333,-0.003026273707541907,0.0043318752842306674,0.17096684939745402,0.16309003796629634
1760596079.227058,-0.09570229274034849,0.9807487787533637,-0.004074977229995325,-0.007359275034345035,0.16674501662989352,0.17964980000247285
1760596079.2371063,-0.09512874048871496,0.9808077095741133,-0.005200434078516539,-0.02097799153266891,0.16548295305340563,0.1940583111169778
1760596079.247131,-0.09452618441204054,0.9808970111394304,-0.006322339192909957,-0.03549735786865918,0.16672528674748938,0.20551042713831277
1760596079.2571294,-0.09396309623869123,0.9810073493989133,-0.00736255407724189,-0.0496695507699246,0.16958579854072028,0.21338469807003926
1760596079.267117,-0.09350334939093215,0.9811301544654343,-0.008250727436824666,-0.0621558269957588,0.17284167506751033,0.2172274780867185
1760596079.2770953,-0.093199054772022,0.9812584829684694,-0.008928848102005508,-0.07168784006894874,0.17509463870079145,0.21674140581018392
1760596079.287249,-0.09308486424279658,0.9813868721826886,-0.009354743500253082,-0.07724065978352282,0.1749769538973371,0.21179546478908204
1760596079.2970958,-0.09317505849823651,0.9815104999979943,-0.009504621035996131,-0.07819076413256904,0.1713695735884799,0.20246134259055104
1760596079.3070993,-0.09346371474991472,0.9816239939671189,-0.009374577033418294,-0.0744297381047663,0.1635949085154303,0.18906539764043281
1760596079.3170848,-0.09392707414386309,0.9817202436314679,-0.008980768755393944,-0.066408067586832,0.15154839169364245,0.17223241156462257
1760596079.3271914,-0.09452678145389456,0.9817897914324941,-0.008357982912469197,-0.05509402995735455,0.13574136370170833,0.15289185169892558
1760596079.3370998,-0.09521319003721739,0.9818215594215272,-0.007556653186617602,-0.04184885136872334,0.11724283606506826,0.1322233771165798
1760596079.3471,-0.09592883206291268,0.9818053134710756,-0.006638706957980858,-0.028236681147314306,0.09752749578596856,0.1115354807685174
1760596079.3570895,-0.09661253151158822,0.981735353234142,-0.005672740008004346,-0.015801637953779417,0.07825737100264765,0.09209406318439545
1760596079.367097,-0.0972041911995082,0.9816140487709138,-0.004728910417921069,-0.005851428773135555,0.06103915479406308,0.07493777139995984
1760596079.3770926,-0.09764964828488655,0.9814536829632243,-0.0038737151139129574,0.0007132747304968999,0.04720373949199938,0.06072586712223659
1760596079.3871217,-0.09790489270838158,0.9812757231453602,-0.003164659490659723,0.0034929472366720293,0.03764782797960209,0.0496582270273591
1760596079.3970952,-0.09793938166319678,0.9811076248552365,-0.0026449752136693022,0.0025915798490895,0.03276219216281466,0.041488372736717224
1760596079.4071045,-0.09773864184810702,0.9809779421116576,-0.0023389642473947286,-0.0014688844858404197,0.03245217396935566,0.03562621775741896
1760596079.4170601,-0.09730648787337862,0.9809107332828219,-0.00224887441366256,-0.00790057265148095,0.03623825397853514,0.03130472091023856
1760596079.4270957,-0.09666699702601747,0.9809202983169638,-0.0023541340370196694,-0.015834465856848386,0.043411014114066254,0.027769447753075147
1760596079.4372633,-0.09586591423053822,0.9810073805217278,-0.002613449167782066,-0.02449986783825303,0.053206591752505535,0.024446143520168693
1760596079.4470916,-0.09497049506527062,0.9811579662098312,-0.0029700159209004305,-0.03336438643459365,0.06496595996287999,0.02104969908364123
1760596079.4570904,-0.09406629199910607,0.9813453939411003,-0.0033598063621781056,-0.04221067086671483,0.07824454089572806,0.017614802107580357
1760596079.4671197,-0.09324966234895458,0.9815355624665356,-0.0037221217377023347,-0.051139381561704673,0.09284828010657435,0.014448065718074273
1760596079.4770901,-0.09261614350143343,0.9816939979302892,-0.004010430569067547,-0.06050061100300718,0.10878792504730682,0.012018407989829663
1760596079.4870696,-0.09224674744822722,0.9817930029722971,-0.004200697272554175,-0.07076736197071977,0.12616245041062937,0.010813969852437077
1760596079.4971445,-0.09219545830701878,0.9818172782049348,-0.004294698233319605,-0.082374962027323,0.14500100334721108,0.011198407222142642
1760596079.5071247,-0.0924809212286971,0.9817669399776335,-0.004317253030614274,-0.0955578658732329,0.16510527253530788,0.013296707272733844
1760596079.5170965,-0.09308378378732698,0.9816573809836132,-0.004308252261312665,-0.11021711705380954,0.18593665222045822,0.016932105085853286
1760596079.5271015,-0.09394953627312107,0.9815159827494143,-0.0043119462830208555,-0.12584657544928154,0.20658368047757739,0.02162384708381292
1760596079.5371354,-0.09499589314080784,0.9813764777738304,-0.004366493399106521,-0.14153563792128457,0.22582706655098517,0.026643218541603366
1760596079.5470963,-0.09612362405773686,0.9812725246416705,-0.004496204512239927,-0.15605294913477713,0.24229637219981748,0.031114669970607498
1760596079.557102,-0.09722947569875992,0.9812322129403682,-0.004707717199680546,-0.16800087164504793,0.25468968102513434,0.03414228760581597
1760596079.5670881,-0.09821909678057891,0.9812745580562491,-0.004989989850776845,-0.17601639970192928,0.2620118448396113,0.03494101343340955
1760596079.5770867,-0.09901736846945701,0.981408077127783,-0.005316991612264282,-0.1789846381899619,0.26378231669528823,0.032955841414912146
1760596079.5870996,-0.09957410596481174,0.9816308729763312,-0.005651720894240195,-0.1762285666132568,0.26016933087541866,0.02795661851008153
1760596079.5970964,-0.09986461856802463,0.9819314836548227,-0.005950725109242283,-0.16764285766340264,0.25201967021819255,0.020097889434282222
1760596079.6070974,-0.09988613656738593,0.9822899827841703,-0.006169013088655951,-0.15374822687067308,0.24077011326679618,0.009933143454975018
1760596079.6171043,-0.0996519293402336,0.982679276125777,-0.00626555177535643,-0.13565530264696765,0.22824716612436954,-0.001625672422969765
1760596079.627186,-0.09918505366227913,0.9830669675693973,-0.006209322931746021,-0.11494195834238008,0.21638421526976656,-0.013406021510762157
1760596079.6371052,-0.09851335362505005,0.9834182585976217,-0.005985353621691462,-0.09346233218508819,0.20690539712083783,-0.024120813211701442
1760596079.6470897,-0.09766673594473056,0.9836999608688908,-0.005599480542372022,-0.07311617181617415,0.2010374341284379,-0.03254021165887831
1760596079.6570954,-0.09667696416204101,0.9838850305828198,-0.0050803103505015915,-0.055612353555258454,0.19931026886415779,-0.03765830597875907
1760596079.6670866,-0.0955794646647846,0.9839565619886909,-0.004477278613963489,-0.04226085919779215,0.20149332654369606,-0.03882335921537549
1760596079.677108,-0.09441614764295977,0.9839102894755006,-0.003854731017785476,-0.033823910997203985,0.20668803872612745,-0.03580769641045075
1760596079.6870966,-0.09323802073893987,0.9837551987565128,-0.0032829617716937437,-0.030449582857435955,0.21356335578621383,-0.028805915513629758
1760596079.697085,-0.09210630007078024,0.9835123493804296,-0.0028277440065624655,-0.031699799009070884,0.22068717167651525,-0.018365005963553494
1760596079.707084,-0.09109090533461135,0.9832122322114316,-0.0025401332979803556,-0.036669575646425596,0.22688199834022607,-0.00526339688082763
1760596079.7170916,-0.09026583837501975,0.9828911099837052,-0.002448369350640011,-0.04417768355739538,0.2315249532966062,0.009635790031945098
1760596079.7270896,-0.08970184403006085,0.9825869389932613,-0.002553460715939005,-0.05299400443983864,0.23472237928846354,0.025530349254310174
1760596079.737108,-0.08945758176841045,0.9823354444591404,-0.0028294012113922965,-0.06205942107044941,0.23731493250681795,0.041799819464066926
1760596079.7470958,-0.08957104267511608,0.9821666089763671,-0.0032280615098661766,-0.07065350667692726,0.24070328198250343,0.05808336774888298
1760596079.7571073,-0.09005294822169267,0.9821015342638267,-0.0036878757904408588,-0.07847553586813144,0.24652099051900558,0.07430264166030824
1760596079.7671084,-0.09088329683213178,0.982149695451663,-0.0041446829599879505,-0.08562397011152975,0.25621386482576625,0.09062445215012925
1760596079.7771332,-0.09201141187659068,0.982306950238193,-0.004542640852244815,-0.09248306763852669,0.2706082948027916,0.10736702716519379
1760596079.7871084,-0.0933593461907397,0.9825549269788864,-0.004843178055542233,-0.09954564695209014,0.289559425924344,0.12486445518329214
1760596079.797118,-0.09482844989210061,0.982862343177394,-0.005030486134239044,-0.10721346048963874,0.311760533453534,0.14331502247889522
1760596079.8074088,-0.09630885614026116,0.9831884002173928,-0.005112816647241435,-0.11561944876863951,0.3347683853787248,0.16264683847944703
1760596079.8171167,-0.09769112940852095,0.9834878446416346,-0.005119529826558904,-0.12450963102239496,0.35525936956600385,0.18243439383854643
1760596079.8270967,-0.0988785112375612,0.9837168435434346,-0.005094425319802371,-0.13320857892757756,0.3694849097484118,0.20189074004760957
1760596079.8371384,-0.09979769119169415,0.9838386907615126,-0.005086527191094191,-0.1406754090752435,0.3738528170992276,0.21994387054380546
1760596079.8472116,-0.10040605679072472,0.9838285290669107,-0.005140118084916132,-0.14564138122496842,0.36553391399630725,0.23538710804210872
1760596079.8571908,-0.10069368989745847,0.9836765207047169,-0.005286064529797419,-0.14680786819220315,0.3429862791870195,0.24707670160063136
1760596079.8672,-0.10067918865567776,0.9833890587297761,-0.005536121685038409,-0.14307494608822177,0.3063035705839134,0.25413960750402037
1760596079.8771572,-0.1004002511540592,0.9829878089300459,-0.00588110400667606,-0.13376558198497746,0.2573254735900084,0.25615313940511075
1760596079.8871305,-0.0999021942490292,0.9825067726210458,-0.006292911282425398,-0.11880833704877569,0.1994899429669177,0.2532654017058531
1760596079.8971071,-0.09922840311675395,0.9819879692411327,-0.006729675134886557,-0.09884411339905423,0.13744971812524046,0.24623767698639493
1760596079.9071207,-0.09841537845543888,0.9814764277442884,-0.007142838445729115,-0.0752317286485252,0.07651247643961558,0.2364028869699893
1760596079.9171014,-0.09749268813327236,0.9810150401361971,-0.007484812524591036,-0.04994271872120212,0.021989793880377095,0.2255452546624564
1760596079.9270988,-0.09648621375264878,0.9806398276763852,-0.0077159081442035975,-0.0253540393996568,-0.021449599682734168,0.21571473305484773
1760596079.9371328,-0.09542225037569117,0.9803762833644389,-0.007809394033307035,-0.003963541326198963,-0.050333874992623935,0.2089960037995399
1760596079.947129,-0.09433024128610831,0.9802373187991363,-0.007753854860449332,0.011935321946935498,-0.06278193755624074,0.20725683544938653
1760596079.9571087,-0.09324296106966871,0.9802229089160024,-0.0075526607249453365,0.020576146499028593,-0.05869676259665432,0.21190499362802762
1760596079.967132,-0.09219440815274084,0.9803212003391901,-0.007221169164129098,0.020993475582934046,-0.0397459797795561,0.22368575996846923
1760596079.9771159,-0.0912169088896497,0.9805108710526134,-0.006782800333168585,0.013204177539411967,-0.009144046595015297,0.2425512187264697
1760596079.9870913,-0.09033927185239815,0.9807646192682765,-0.00626512583578629,-0.001738535099392893,0.028726314585960443,0.26762613524989154
1760596079.9971175,-0.08958697120864842,0.9810534578461448,-0.005696801706856187,-0.0218373590271831,0.06879870859692196,0.29728330527261304
1760596080.0072248,-0.08898375065053075,0.9813510698857574,-0.005105815777629748,-0.044387039173433084,0.10585111769291305,0.32932476980816294
1760596080.017139,-0.08855276731007536,0.9816372085414813,-0.004519095994748109,-0.06632834878499078,0.13501703885957764,0.3612468183615105
1760596080.0271256,-0.08831537784201803,0.9818992456825247,-0.0039630039109085635,-0.08467146209034353,0.1522298016151894,0.39055087986341847
1760596080.0371993,-0.08828699223546295,0.9821314926250629,-0.0034638679432010397,-0.09692360648348239,0.1545650026316634,0.41505423456187135
1760596080.04718,-0.08847114874298968,0.9823326696139653,-0.003047757191364894,-0.10145010387434564,0.1404610839706139,0.4331556793910713
1760596080.0574121,-0.08885397754036857,0.982502591442449,-0.0027390593478018436,-0.09770655322052794,0.10981095870892357,0.4440194873305714
1760596080.0671422,-0.08940127214467739,0.9826394283762521,-0.0025578530203997146,-0.08630212381993596,0.06392798712374895,0.44765316505190056
1760596080.0771267,-0.09005990651820146,0.9827386458037962,-0.002516490125647268,-0.0688840649549349,0.005398118109912352,0.44486920897024435
1760596080.0873003,-0.09076440710146694,0.9827940303125302,-0.0026162198239722866,-0.04786420335917416,-0.06216352155136251,0.43713718308683625
1760596080.0971706,-0.09144784962325016,0.9828003070286335,-0.002844920596465603,-0.026034311739505687,-0.13442933852397945,0.42634790556983665
1760596080.10717,-0.09205425466276602,0.9827561081189585,-0.003176893853541246,-0.00613624951068068,-0.20672461860361319,0.41452414007423893
1760596080.1171339,-0.09254845201318149,0.9826659416534426,-0.0035752582593599615,0.00953834268084414,-0.2744139232743273,0.40352044898298783
1760596080.1271372,-0.09291996720431939,0.9825404589300398,-0.003996881464651928,0.019449194491587128,-0.3332769618872704,0.3947576091602151
1760596080.1371865,-0.09317980595142565,0.9823951805132858,-0.004399045687753283,0.02296019049084892,-0.37983951259208204,0.38903328382808766
1760596080.1471934,-0.09335188847512692,0.9822482716529328,-0.0047463815385314695,0.020325792086089405,-0.411626435390382,0.38644041896190556
1760596080.1571438,-0.09346273777935947,0.9821179189023403,-0.00501643688050425,0.012526697462768837,-0.42731146139735154,0.38640906707812694
1760596080.1671352,-0.0935330535819581,0.9820196993910955,-0.005202710114568322,0.000997969160623328,-0.42675224142466966,0.38786757922689147
1760596080.1773708,-0.09357343486758972,0.9819641996526496,-0.005314674142140797,-0.012690406833903704,-0.4109171208361765,0.3894974100067702
1760596080.1871285,-0.09358464482544114,0.9819550191938455,-0.0053748369821124044,-0.02713616976521584,-0.38172777649732886,0.3900355580410749
1760596080.1971262,-0.09356113952994988,0.9819873277974442,-0.005413329229875069,-0.041333864018204776,-0.34185327759670237,0.38856507614741526
1760596080.2071044,-0.09349572661210052,0.9820474484816483,-0.0054611359296847725,-0.054791407484726246,-0.2944923262665122,0.3847324655068987
1760596080.2171078,-0.09338349592118912,0.9821142011424381,-0.005543638638590071,-0.0675196473926601,-0.24317169318144016,0.3788437458284982
1760596080.227104,-0.09322405996204432,0.9821624565323951,-0.005676022344286778,-0.07990665820472351,-0.1915737620340324,0.3718168284860763
1760596080.2371128,-0.09302191297601994,0.9821684920242356,-0.0058612765411955115,-0.09251205228600444,-0.14338919139502596,0.3650007989933225
1760596080.2471068,-0.09278532631351633,0.9821158994388356,-0.006090620356681332,-0.10583310123753176,-0.10217696777825751,0.3599044358284697
1760596080.2570977,-0.09252482960825226,0.9820005338330204,-0.006345784091737051,-0.12010012160304219,-0.071209076248768,0.35789767176164955
1760596080.2671201,-0.09225244576732476,0.9818333147033065,-0.0066025903828901295,-0.13515147726801166,-0.05328422582771687,0.359954170470767
1760596080.2771368,-0.09198188655639938,0.9816401972796515,-0.006835266813618569,-0.15041990180082235,-0.05051250364699066,0.3664896603517544
1760596080.287132,-0.09172862354546524,0.9814590352450372,-0.007020791115421325,-0.16503536607709193,-0.06409328393922957,0.3773240817794501
1760596080.2971094,-0.09150853791202775,0.9813334733845898,-0.00714255762645379,-0.178021203332494,-0.09412427189448191,0.3917644918456983
1760596080.3071177,-0.09133490476829134,0.9813047081013293,-0.007192863848348526,-0.18853705182823202,-0.1394847533461962,0.4087787126292135
1760596080.3171246,-0.09121464743226967,0.9814028360314067,-0.0071740163370516,-0.19611111039324172,-0.19782856388635847,0.42721349051293284
1760596080.3271418,-0.09114521396453448,0.9816400214106538,-0.007098092162519773,-0.20080820648308403,-0.26570387632809134,0.44600831589610096
1760596080.3371308,-0.09111317661074021,0.9820073926362207,-0.006985498155681636,-0.20329695217355911,-0.33879434337301645,0.4643649188674753
1760596080.3471591,-0.09109524212885749,0.9824765070208354,-0.006862493486067923,-0.2048023395333219,-0.4122572383234281,0.48184713119959804
1760596080.357107,-0.09106200537573184,0.9830048488476307,-0.006757910525226656,-0.20695245187470576,-0.481123090528288,0.4984007599123048
1760596080.3671286,-0.09098428955723824,0.9835436583097458,-0.006699453353628959,-0.21154548350730662,-0.5407179405552028,0.5142953554834498
1760596080.3771136,-0.09084107591736758,0.9840458766211115,-0.006710027375030454,-0.2202750009382769,-0.5870721094387001,0.5299988442401757
1760596080.387152,-0.09062702114228598,0.9844723372269157,-0.006804445313365206,-0.23445677372470855,-0.6172857645552294,0.5460030062961896
1760596080.397124,-0.09035706588698203,0.984795293338284,-0.006986685047037403,-0.25479835167719567,-0.629828287302322,0.5626238029043056
1760596080.4071085,-0.09006623663775411,0.9849994008016798,-0.007247890949860835,-0.281243181554646,-0.6247526550363813,0.5798057248921131
1760596080.417118,-0.08980416391093504,0.9850808952932687,-0.007565577677550975,-0.3129078837626516,-0.6038065538033228,0.5969628832946042
1760596080.4271147,-0.0896252232862647,0.9850457780485549,-0.007904733318123422,-0.3481189037693244,-0.5704198859131234,0.6128898322065947
1760596080.4371266,-0.08957612711430879,0.984907571514165,-0.008221325480272781,-0.38454561305377916,-0.5295471536272277,0.6257698187654211
1760596080.4471223,-0.08968335505275674,0.9846849588799163,-0.008467999649032078,-0.4194208827614145,-0.4873469655656895,0.6332961067596232
1760596080.457121,-0.08994296628441058,0.9843995337501665,-0.008600919987205807,-0.44983534587328083,-0.45069200580575264,0.63290489649876
1760596080.4671044,-0.09031493248488132,0.9840738753820399,-0.008586284158788867,-0.4730852442320889,-0.42652125787435247,0.6221002633501767
1760596080.4773054,-0.09072333878856229,0.9837300925265017,-0.008405228374611285,-0.48704407824683954,-0.42107068066273595,0.5988364783533345
1760596080.487346,-0.0910629413286328,0.9833887787432422,-0.00805635004961008,-0.4905169944012306,-0.439045941060751,0.5619129581068903
1760596080.4971251,-0.09121179158184496,0.9830680757423377,-0.007555554195938839,-0.48352891543742826,-0.48282611082876203,0.5113319001469872
1760596080.5071125,-0.09104893346799083,0.9827825418817343,-0.006933304877642686,-0.4674966432067151,-0.5518051935991451,0.4485674064956616
1760596080.5171132,-0.090475431726205,0.9825419495999551,-0.006229863847556476,-0.4452413751831204,-0.6419865375179067,0.3766959387781077
1760596080.5271277,-0.089436100932057,0.9823506201383392,-0.005489809986927845,-0.4208097924733897,-0.7459424630841942,0.3003405086617244
1760596080.5371141,-0.08793847386249515,0.9822078822362812,-0.004757544558081954,-0.39909010708760134,-0.853233528204622,0.2253878515393537
1760596080.5471053,-0.08606509406613833,0.9821096621652641,-0.004074923595937633,-0.3852365366570601,-0.9513413610103448,0.1584551851087993
1760596080.5571144,-0.08397508729801435,0.9820504959737429,-0.0034807348456780377,-0.38395091287368294,-1.0270995476263056,0.10611753965311774
1760596080.567127,-0.08189115279250146,0.9820248434462517,-0.0030103959547777867,-0.3987084169381514,-1.0685061991711065,0.07396175750164954
1760596080.577119,-0.0800697809315375,0.9820268659519927,-0.0026939271961014476,-0.43104827681722346,-1.0666762394222962,0.06560520658634364
1760596080.5871332,-0.07875730687412247,0.9820489539220165,-0.002551295630497675,-0.48007011684246154,-1.0175726348786753,0.08188506500893104
1760596080.5971258,-0.07814138811649993,0.9820805348022784,-0.0025861894172768667,-0.5422697921595636,-0.9231079247506394,0.1204463684417199
1760596080.6072624,-0.07831201802230242,0.9821087385541433,-0.0027809266184862214,-0.6118042271297828,-0.7912899910288843,0.17589552459262167
1760596080.6171334,-0.0792441545806188,0.9821210389073896,-0.0030953258169267015,-0.681194903859817,-0.6352928957818997,0.24054471338294844
1760596080.6271205,-0.0808063034861045,0.9821083951346502,-0.0034709183745876724,-0.7423817047945168,-0.4715891942748063,0.30560656691561366
1760596080.6371195,-0.08279066300851347,0.9820671448324937,-0.0038398799829718515,-0.7879490493290522,-0.3174972977928458,0.36257676668053
1760596080.647186,-0.08495489249328392,0.9819988955451227,-0.004136483502911451,-0.812292164398223,-0.18862001309211865,0.4045055620097531
1760596080.6571333,-0.08706436985231962,0.9819088290390291,-0.004308175437972416,-0.8124928969294857,-0.09665564698935199,0.42690849159409483
1760596080.6671236,-0.08892592131590672,0.9818034008636616,-0.004323644075544138,-0.7887347540549294,-0.04795722296731814,0.42817519611339666
1760596080.677122,-0.09040796173336012,0.9816884096591793,-0.004176282673798741,-0.7441896559126948,-0.043033175690999854,0.4094647184955959
1760596080.687142,-0.09144638383064115,0.9815680835545669,-0.0038828387516617654,-0.6844237921449934,-0.07697961916254392,0.3741865940850965
1760596080.6971378,-0.09203898660660223,0.9814453319534802,-0.0034782747250669036,-0.6164633734057253,-0.14066342823063877,0.32723105451640233
1760596080.7071314,-0.09223279841664225,0.9813228337145669,-0.0030084816493678524,-0.547711511755915,-0.22236842297394327,0.27412242992706215
1760596080.7171295,-0.09210832822361256,0.9812044131846478,-0.0025223564052759997,-0.4849122641736416,-0.309582363511074,0.22024071155994684
1760596080.7271194,-0.09176338882482074,0.9810962094320388,-0.002064251283896974,-0.43332596266198636,-0.39063365206513734,0.17020802373604071
1760596080.737135,-0.09129781354004576,0.9810072558790444,-0.0016674735610051948,-0.3962236242000699,-0.45596552613840197,0.12748712025327785
1760596080.7471306,-0.0907999339697821,0.9809491266097031,-0.001349536719151545,-0.3747406230063725,-0.4989364623823496,0.09419803024241966
1760596080.7571375,-0.09033602192619769,0.9809344138564214,-0.0011099814032675787,-0.3680639889488806,-0.51613254574382,0.07112925165056434
1760596080.7671325,-0.08994420084835512,0.9809741457667002,-0.0009314228935220371,-0.373875042418607,-0.5072505531930691,0.05790046451123645
1760596080.7771285,-0.08963391657091416,0.9810747033447386,-0.000783910675563574,-0.3889373544844161,-0.47464955102994066,0.05322402643816352
1760596080.787137,-0.08939093589796908,0.9812350709045496,-0.0006318488274074202,-0.4097118822770441,-0.42267751248198965,0.05521226936166558
1760596080.7971659,-0.08918645231973106,0.9814452888039342,-0.0004418906893363972,-0.43289431098883224,-0.3568726727757438,0.06168492689131214
1760596080.807129,-0.08898782004727065,0.9816868372854749,-0.00018974906467137192,-0.45579897716553563,-0.28313297925601294,0.07044242999873845
1760596080.8171186,-0.08876830786036025,0.981935267260594,0.00013583115395129577,-0.4765529607692581,-0.20694662609676773,0.07948318637233655
1760596080.8271368,-0.08851407080408358,0.9821646076315262,0.0005325515231560512,-0.49410543451273736,-0.13277488125156595,0.08715477524918584
1760596080.837258,-0.08822755618859336,0.982352236846476,0.0009867570011784241,-0.50809203439384,-0.06366355613375042,0.09223985488834023
1760596080.8471625,-0.08792724640000632,0.9824826324423409,0.0014769357971091612,-0.5186140296978389,-0.0011267482803804406,0.0939864706831358
1760596080.8572888,-0.08764414187235797,0.9825490078192849,0.001977394860971039,-0.5259950341627808,0.054698922168423675,0.09209692783000169
1760596080.8671355,-0.08741591927623923,0.9825529289384286,0.002461718534355145,-0.5305675842082456,0.10467901753657623,0.08668771477629565
1760596080.8771412,-0.08728006403172096,0.982502810908835,0.0029060319565916777,-0.5325246078824982,0.1501733337941859,0.07822709488701178
1760596080.8871555,-0.08726719106229407,0.982412219349589,0.003291990149387887,-0.531852444983093,0.19250483519357417,0.06745211663587258
1760596080.8971496,-0.08739534088223841,0.9822983052883244,0.0036091835965125292,-0.5283458562356745,0.23251342553474033,0.05526686566528059
1760596080.9071252,-0.08766573139959563,0.9821801292265439,0.0038565537511659888,-0.5216919651489242,0.2702797714313913,0.042628214073113214
1760596080.9171922,-0.08806053662144468,0.9820765872650318,0.004042356653164363,-0.5115993595774666,0.305067253840808,0.030430830252539336
1760596080.9272914,-0.08854346479336139,0.9820040365512146,0.004182229371744337,-0.49794193616707333,0.3354867747146439,0.01940723060091824
1760596080.9371545,-0.0890637156465972,0.9819739981952798,0.004295305772158447,-0.480886093917615,0.3598467935443653,0.010059664695551444
1760596080.9472077,-0.08956319708809803,0.9819912246760557,0.004399131167416127,-0.4609744486919547,0.37661556630294435,0.002637050964423085
1760596080.9571543,-0.08998599076689205,0.9820522703972275,0.004504832694489621,-0.4391474494401385,0.3848991181104218,-0.002838671968944183
1760596080.9671338,-0.09028828068168883,0.9821448710918618,0.004614092719836596,-0.4166939931349626,0.38483124638900995,-0.0065046453121992915
1760596080.9771302,-0.09044647645229824,0.9822487148554221,0.004718896426274033,-0.3951319966323587,0.37778371000963973,-0.008567031943624239
1760596080.9871454,-0.09046137330640758,0.9823379979400388,0.004804071252050023,-0.37602947982090795,0.36633567720741267,-0.009214797324194496
1760596080.9971342,-0.09035718295236003,0.9823854005060773,0.004851677875871021,-0.3607863590616371,0.3539873527753824,-0.008562491934581126
1760596081.0071573,-0.09017585933702812,0.9823664525808341,0.004845728149727333,-0.35040679038898975,0.344655237304211,-0.006638819081576953
1760596081.0171702,-0.08996848295360033,0.9822633004627234,0.004775773674425696,-0.34529967710559073,0.3420343942065413,-0.0034239771117307223
1760596081.0271544,-0.08978591192638402,0.9820674192657772,0.0046386104764959725,-0.3451473507388993,0.3489450078287613,0.0010766945173110898
1760596081.0371675,-0.08967051123987861,0.981781211698964,0.00443826254853475,-0.34887632300327326,0.3667888207216851,0.006747652200707192
1760596081.0471542,-0.0896500381902972,0.9814184386603922,0.004184975211772497,-0.3547486661404818,0.39522380569863375,0.013296448457464237
1760596081.0571656,-0.08973416725339091,0.9810032788014517,0.003893930395389018,-0.3605704474501175,0.43212588030666643,0.020230334173769616
1760596081.0671492,-0.089913830953607,0.9805678399066334,0.003584015730604782,-0.3639897997283614,0.4738525691614187,0.026888201581064995
1760596081.0771432,-0.09016336454672086,0.9801482797377256,0.0032765870975181906,-0.3628377348547748,0.5157669042043885,0.03252379338067191
1760596081.08715,-0.09044517631938453,0.9797801743511382,0.002993939884671726,-0.3554547503541998,0.5529323335754672,0.03642204225852021
1760596081.0971465,-0.09071633528586638,0.9794940729459299,0.002757208396573232,-0.340947972602305,0.580859503779065,0.03802190258926134
1760596081.1071773,-0.09093614091752862,0.9793121045233398,0.00258366668340959,-0.31933585688161686,0.5961779606818097,0.03701765388776007
1760596081.1171563,-0.09107338638205233,0.9792461189166284,0.002483799097336227,-0.29155657981115507,0.5971208066286442,0.03341655642515857
1760596081.1271477,-0.09111178261415304,0.9792973923579279,0.002458802559517438,-0.25933818331484054,0.5837450399302088,0.027542430210857765
1760596081.1371412,-0.09105226879434157,0.9794576070066378,0.002499200176652546,-0.22495041341150226,0.5578583308676889,0.01998859823502931
1760596081.1471224,-0.09091182073784357,0.9797106286215393,0.002585021161659055,-0.1908777440050013,0.5226758935383777,0.011534901211407744
