timestamp,angle,linear_acceleration_x,linear_acceleration_y,linear_acceleration_z,angular_velocity_x,angular_velocity_y,angular_velocity_z
1760682112.7734146,-23.708436573122473,-0.17071294899898784,1.1288987920820912,-0.12586018396224832,4.568282067223027,9.291309533216907,30.72861950046513
1760682112.7834067,-23.03222547262406,-0.1371213153133497,1.0795315238192005,-0.1385439479367902,5.018370187214941,11.068766357084712,34.125953997047745
1760682112.7936242,-22.34302985278333,-0.12131690282212346,1.0295368810154335,-0.15031929768221844,5.804767330949121,13.098432705593272,37.897012608253775
1760682112.803538,-21.657021480370634,-0.12489084306829801,0.9826402801351515,-0.16266842354987437,6.812737833657774,15.254171885885778,41.79433986293462
1760682112.8135428,-20.989189120678578,-0.14695464210696002,0.941455219582531,-0.1768170624517495,7.909445987464854,17.370575420422256,45.538936183100326
1760682112.82355,-20.35199949451143,-0.184344373951775,0.9075071325648513,-0.19340972627627098,8.96697937088141,19.258416814171873,48.860221075197025
1760682112.8336763,-19.754418067034532,-0.2321559665125244,0.8814519649086257,-0.2123246975653378,9.882053986846184,20.72425041093493,51.531689502282
1760682112.84364,-19.20134445207823,-0.2844698788691928,0.8633628456962924,-0.23266180106753886,10.58859953644409,21.591613492882722,53.397392974480205
1760682112.8537002,-18.69345669937014,-0.3351272095728746,0.8529721049946367,-0.25289664474310597,11.061558698960905,21.721291204183853,54.38676339614153
1760682112.8637583,-18.22742459220865,-0.3784478651034585,0.8498077626251225,-0.2711609607204957,11.312428399610273,21.028332158848087,54.51748218082755
1760682112.873459,-17.796433498093286,-0.40981373705241786,0.8532244634796113,-0.2855863495093673,11.378754160088484,19.493835431986994,53.88770968495648
1760682112.8836544,-17.390949660416368,-0.4260690787174341,0.8623716605101357,-0.29464126079754854,11.310692130619767,17.170023042041574,52.659972438177455
1760682112.8935332,-16.999652353917565,-0.4257184743964624,0.8761545304929752,-0.2973977718604231,11.157847535814259,14.177853321718692,51.03946329514954
1760682112.9037526,-16.610456768473043,-0.40892962876930433,0.8932308120616967,-0.2936826946719527,10.9590115762777,10.697374914107817,49.24959229498355
1760682112.9137268,-16.21155181034921,-0.37736924195403787,0.9120632188300941,-0.28409316547788604,10.736381012338855,6.951971883391724,47.50747028342042
1760682112.9234748,-15.792378497839168,-0.3339125332172693,0.9310239463466138,-0.2698853161805134,10.494631188907748,3.1883922904010227,46.001701585704424
1760682112.933445,-15.344479498987036,-0.28227177074834564,0.9485311691848318,-0.2527687257954716,10.224098508851698,-0.34512699857645257,44.87445143872883
1760682112.9438915,-14.86216161030243,-0.22658985216838934,0.9631902211864525,-0.23465250488351225,9.906547529340683,-3.4202470178367883,44.20926744953405
1760682112.953686,-14.342930912192385,-0.17104325393979936,0.9739150652645792,-0.21738974099673625,9.52169845096408,-5.847264433846005,44.025588345541195
1760682112.9636369,-13.787681166422345,-0.11949267662952355,0.9800154867432197,-0.20255921717584616,9.05288449584025,-7.489497185174003,44.28026752306443
1760682112.9734826,-13.200633824554348,-0.07520713796090618,0.9812454327202232,-0.1913108050862676,8.490766877893641,-8.272176907676167,44.875775284810295
1760682112.9837687,-12.589039273424035,-0.04067027478038326,0.977812436386561,-0.18428622233265382,7.834739828610096,-8.185287503547706,45.67405726012111
1760682112.9934797,-11.962656371318195,-0.017463823210157194,0.9703474355025792,-0.18161243276868694,7.092281572056433,-7.2803655265950695,46.514396826687836
1760682113.0035477,-11.33303844235157,-0.006219974175903739,0.9598338466926887,-0.18295395378815987,6.276893620771491,-5.661852535860771,47.23315505022627
1760682113.0135558,-10.712673328119472,-0.00664030062659404,0.947498492454135,-0.187604935271732,5.4053852222118,-3.4741367550765805,47.68302868432976
1760682113.0237875,-10.114048169706553,-0.01758420479535489,0.9346735991880263,-0.19460213728151632,4.495165586695903,-0.8858699469611447,47.74953543866802
1760682113.0334897,-9.548725432525178,-0.03722586519801491,0.9226447447767381,-0.20284405165448918,3.5620035723206094,1.9265899732737481,47.362822013287754
1760682113.0435636,-9.026517395852865,-0.06326659151022886,0.9125024035860634,-0.21120702218912735,2.618494248314637,4.794738285502733,46.50354147385965
1760682113.0536175,-8.554832160392273,-0.09317722715659411,0.9050153075285264,-0.21865406003570176,1.6732928086561278,7.57085434023347,45.20235382403602
1760682113.0636258,-8.138241373260398,-0.1244399179241441,0.9005434087093531,-0.2243341446689675,0.7310561402617689,10.137149664393636,43.53344647465945
1760682113.0734394,-7.778294687076334,-0.15476159609509982,0.8990065701452419,-0.22766846439249475,-0.20703256838186454,12.410592893442145,41.60323952456085
1760682113.0836754,-7.473580874713146,-0.18223861702177943,0.8999203089784313,-0.22841681371918238,-1.1422935167799582,14.343490982179649,39.53603120148085
1760682113.0934951,-7.2200104006413275,-0.20545868463464598,0.9025002483364519,-0.22671488357587624,-2.0772455457470325,15.92043067812186,37.458658577309045
1760682113.1035213,-7.011271521708176,-0.22353325611491898,0.9058234663577387,-0.22307316361631924,-3.0140518056561274,17.152564584124775,35.48623479776812
1760682113.113525,-6.839397959596897,-0.23606406960153983,0.9090217326360063,-0.21833085350043976,-3.952816550055535,18.0704347687892,33.71067401497334
1760682113.1236115,-6.695385949975372,-0.24305977185802838,0.9114731701793655,-0.21356321890005253,-4.889904911752513,18.716535183573797,32.193107912351635
1760682113.1336412,-6.569810815723359,-0.24482692912693474,0.9129575483647523,-0.2099475294227851,-5.81656139751491,19.13861562562362,30.9605707265494
1760682113.143707,-6.453411441560682,-0.24186006362370546,0.9137460203390132,-0.20859950644201275,-6.7181947845853225,19.384375131831646,30.00663028522419
1760682113.1537228,-6.3376274184974175,-0.2347488175739425,0.9146069539051283,-0.21039737075651616,-7.574724244570215,19.497783099406966,29.295102432898478
1760682113.1637907,-6.215082494212298,-0.22411045889494358,0.9167233724370016,-0.21581363911412346,-8.36230433429332,19.51691176203614,28.76570639013653
1760682113.17342,-6.080006869304837,-0.21054619969714675,0.9215321095837199,-0.2247762943329128,-9.056557335470547,19.4729393447828,28.340535790255252
1760682113.1837547,-5.928581362441591,-0.19461305909670587,0.9305077160058801,-0.2365808640529536,-9.637159223904531,19.389912177533855,27.930483776449258
1760682113.1934485,-5.759173676901912,-0.17680102221214575,0.9449232972898175,-0.24987245290592844,-10.093285881561709,19.28491746024099,27.441153733197023
1760682113.2036593,-5.572427934243002,-0.15750820630998644,0.965624343072638,-0.2627115194840419,-10.429089822395953,19.168477569342397,26.778176561400766
1760682113.213752,-5.371170398109917,-0.13701365657200076,0.9928497908388872,-0.27273005024626545,-10.668135714489159,19.045180189615586,25.852136635379622
1760682113.2234452,-5.160112152437386,-0.11545631884943973,1.026127712642444,-0.27737622044502985,-10.855666971115092,18.914736500000764,24.583428257420668
1760682113.2334788,-4.9453629968801565,-0.09283583624037121,1.064262350385444,-0.27423406111129606,-11.05774992463257,18.77372925939429,22.90731159388512
1760682113.2437568,-4.733810291549721,-0.06905058448788283,1.1054158753999739,-0.2613885983436373,-11.356725544978763,18.61820768964593,20.77922366104391
1760682113.2534783,-4.53244634113682,-0.043977961674845946,1.1472735709985626,-0.23778876048886152,-11.84292580313436,18.447004427887286,18.180068506871645
1760682113.2642636,-4.347737087247681,-0.017585731023444455,1.1872678337709073,-0.2035460665476251,-12.603197300268372,18.265275261291507,15.120859899034485
1760682113.2734866,-4.185113469891858,0.009949728255481936,1.2228280244769567,-0.160102867519456,-13.707331613305538,18.08742643801431,11.645849791827626
1760682113.2852354,-4.0486427953098785,0.038145248335652915,1.2516216029347256,-0.11021412094392478,-15.193965648550387,17.938418092987533,7.83322572011534
1760682113.2939484,-3.9409098502687576,0.06615194299914119,1.2717560234652918,-0.05771369056115874,-17.057855017527878,17.85250252095573,3.792583537562919
1760682113.303933,-3.863112374575823,0.09274202450847276,1.2819188556715122,-0.007077489673973152,-19.240607761279158,17.86881409116321,-0.3413713891375138
1760682113.313642,-3.815354486307799,0.11633940131245235,1.281445252485471,0.03715910568565169,-21.62692014345224,18.023834119361883,-4.41907425077424
1760682113.323964,-3.7971027329486025,0.1350929700496154,1.2703159863700726,0.07103780847128645,-24.04797588400583,18.341475117066338,-8.289971197536119
1760682113.3335235,-3.8077497803214704,0.14699773480229572,1.2491013661551316,0.09176143675240156,-26.292888295303793,18.822192001551667,-11.81904407387358
1760682113.3442595,-3.847210207435927,0.1500705030553266,1.2188719402565373,0.09812362009830695,-28.127918740855456,19.432986294783856,-14.904341902710412
1760682113.3537924,-3.916455942380796,0.14257741320794662,1.1810958204578788,0.0907035470820053,-29.321857721452744,20.1003071947718,-17.493275414150734
1760682113.3637636,-4.017892816991893,0.12329359085422538,1.1375378440912438,0.07178094902599151,-29.67465879715525,20.707590346228006,-19.595082980515656
1760682113.373593,-4.155490037378222,0.09176125138096115,1.090169849854697,0.04497409649723593,-29.04544695126051,21.09854384741255,-21.286896086038002
1760682113.3837974,-4.334602556833628,0.04850753918459269,1.0410941410733396,0.01465545369638625,-27.375629729710656,21.086501474741535,-22.711260761432616
1760682113.3938565,-4.561471201749024,-0.004816645904877716,0.992473838241497,-0.014755251348051168,-24.703172282855625,20.469500531169615,-24.06381686977475
1760682113.4035287,-4.842443310789733,-0.06541599165763771,0.9464565632226953,-0.03949329098189506,-21.16513564492583,19.050320946868734,-25.571100073042437
1760682113.413589,-5.183018662623477,-0.12948428497467726,0.9050762644040102,-0.057015704958894055,-16.987162987019,16.660333525468495,-27.46006162911125
1760682113.4234986,-5.586875480095121,-0.1925112248515415,0.8701260607189291,-0.06632306766424305,-12.460546800291997,13.185275609678515,-29.922733506559325
1760682113.4334786,-6.0550496390019415,-0.24974733680136715,0.843012104112369,-0.0679720879774987,-7.909604056608542,8.589889674746411,-33.08115883983401
1760682113.4440248,-6.585413735166643,-0.29676920319942646,0.8246168288133688,-0.06378037113338547,-3.653968526254276,2.9371682159912345,-36.95874367144617
1760682113.4537804,-7.17253723426604,-0.33005466099285374,0.81520761693001,-0.05629699156843072,0.028412131331216776,-3.602459980121948,-41.46403237030139
1760682113.4634538,-7.8079317461968705,-0.34747113710185185,0.8144162146452557,-0.04816920788465845,2.9317500249617034,-10.755724908712558,-46.3913172509213
1760682113.4737349,-8.48062816696312,-0.34860059587049075,0.8212898124320838,-0.0415561790235106,4.9417724062259065,-18.1663911880706,-51.43972050312022
1760682113.4835129,-9.178008180532649,-0.3348557455727026,0.8343924567925952,-0.03771792326109895,6.041570472029513,-25.42902939648562,-56.24910114062064
1760682113.493729,-9.886809991094434,-0.30936754733611443,0.8519306068364572,-0.03685244066615528,6.304110698779133,-32.1325174664167,-60.448059046094635
1760682113.5037088,-10.594225399494125,-0.27664168746096984,0.8718898111628919,-0.03818724189897249,5.873862782919264,-37.90703673963062,-63.70693132006977
1760682113.513729,-11.288989604379113,-0.24200194966092525,0.8921852462123594,-0.04027331478828103,4.94154717950091,-42.46737159912593,-65.78732816151128
1760682113.5234907,-11.96234144572411,-0.2108696745674643,0.9108313072867322,-0.04139156617199498,3.716591296027943,-45.645681823910714,-66.57973535135771
1760682113.5337465,-12.60871778722187,-0.1879674509917394,0.9261234292457949,-0.0399694905084533,2.4015451522372206,-47.40850997440326,-66.12223171690893
1760682113.5437398,-13.226059351851138,-0.17657035309787608,0.9368094327520141,-0.03491942232439571,1.1716950031906601,-47.855276291509,-64.59636212044656
1760682113.5538447,-13.815655126463643,-0.17794660091098133,0.9422179859795085,-0.025841862775219233,0.16175468884364216,-47.19846669029704,-62.300217738144255
1760682113.563747,-14.381532439188325,-0.19111929952403686,0.9423132794310927,-0.013074832324472404,-0.5398953677028185,-45.72866231763298,-59.603019173171155
1760682113.573695,-14.929489917141842,-0.21303287222557182,0.9376585793782823,0.0023983758944864948,-0.8901858663583118,-43.76997892495411,-56.88902113620628
1760682113.5837128,-15.465943912075952,-0.2391238595200982,0.9292924502771063,0.019149222955456718,-0.8852228273534648,-41.632940156473005,-54.50053980883194
1760682113.5936387,-15.996793264621783,-0.2641954619782268,0.9185415785924588,0.035565430229273734,-0.5512036372588719,-39.57208139685789,-52.6899343748029
1760682113.6036747,-16.52649361240638,-0.2834129745886003,0.9068067990749651,0.05012325228723709,0.06538965768117129,-37.75468951307226,-51.58851040262397
1760682113.613476,-17.057478332483193,-0.29320632759544146,0.8953630667492355,0.061623342418859584,0.906454206883315,-36.24520030884529,-51.19699083547912
1760682113.623899,-17.58998786602966,-0.29189679017741804,0.8852107602074017,0.06935345687964639,1.9086205493298516,-35.00717304783657,-51.39812555356333
1760682113.6338925,-18.122293484926175,-0.2799392965647406,0.8770041086034633,0.07315654878619794,3.0069909275695657,-33.92182856867446,-51.9879960125548
1760682113.6434453,-18.65123931482227,-0.2597598474143219,0.8710623448154151,0.07340057837130028,4.136742447282929,-32.81936581609273,-52.71934847017013
1760682113.6537085,-19.172983046399104,-0.23524614504847585,0.8674452011381126,0.07086347153197292,5.233598734681864,-31.517158144536417,-53.348411247458756
1760682113.6637502,-19.683792762685062,-0.21100742310879567,0.8660560184805954,0.0665599837564181,6.234355106311746,-29.85785508455056,-53.67644990058828
1760682113.6737332,-20.180755786137027,-0.191551209655902,0.8667309444480449,0.0615453065546459,7.078496983802751,-27.74058677090028,-53.57880588994411
1760682113.683762,-20.662275533056807,-0.18052804820440882,0.8692828517585506,0.05673285657730437,7.711535578480035,-25.13992199967895,-53.01699243954908
1760682113.6936889,-21.128271260484947,-0.18017073194183703,0.8734884793840718,0.05276020274042319,8.090078509761014,-22.10976669346545,-52.03294082187667
1760682113.70367,-21.580047502103227,-0.1910089242611936,0.8790285636083849,0.04992698665235506,8.187974723130838,-18.772492364915824,-50.7279594421603
1760682113.7138546,-22.01985751885333,-0.21188439937523412,0.8854066812863824,0.048213194025223095,8.002289936428628,-15.296508950510537,-49.23173580988238
1760682113.723972,-22.450239828613437,-0.24023782705642932,0.8918803197800954,0.04736836803314279,7.557562952982779,-11.867533857375701,-47.668314480399744
1760682113.7339041,-22.873249315483257,-0.2725940702709709,0.897437031572124,0.04704654391728057,6.906891102265585,-8.65953204165537,-46.126160298181716
1760682113.7437778,-23.289725543190624,-0.30514670577502206,0.9008402953329787,0.04695217422521628,6.128904212415658,-5.810676225438047,-44.63814942754706
1760682113.7541711,-23.69873593649448,-0.33433827448194275,0.9007556718867694,0.046961543695331585,5.320486687705818,-3.40803233108955,-43.17493736966497
1760682113.763457,-24.097302756042136,-0.35734901966040067,0.8959498651940732,0.047191026636119945,4.585984253018335,-1.4825230015293172,-41.6522419315418
1760682113.7735472,-24.48047772468839,-0.37243552974601407,0.8855353829365109,0.04799526415359983,4.024380414704667,-0.013538703693058951,-39.94981859956066
1760682113.7836156,-24.841773629678222,-0.3790910505457298,0.8692161461272896,0.04989374083634316,3.716421613374392,1.0592466347029281,-37.93779058541761
1760682113.7938893,-25.173902581358384,-0.3780244346814176,0.8474812478031726,0.05344237186272511,3.713849331558082,1.8203697118179414,-35.50479511654426
1760682113.8038142,-25.469712533207296,-0.3709748796483833,0.8216988052057144,0.059083000873320066,4.032705572679767,2.3629770641231853,-32.58226295086816
1760682113.8137293,-25.72316893938293,-0.36039704836637265,0.7940778992927501,0.06701092624738782,4.652050789923093,2.7758764674307828,-29.160124842765345
1760682113.8239007,-25.930208617458142,-0.34906480302992154,0.7674904483231859,0.07709428724840314,5.51839270045215,3.1346398254046215,-25.291212812411658
1760682113.833452,-26.089302952689703,-0.33964815579993834,0.7451724531337008,0.08886134448665738,6.554900304971915,3.496915335275299,-21.08414167326876
1760682113.843712,-26.20160621309298,-0.33431580117075427,0.7303479152652392,0.10155000811257878,7.673475416309469,3.901408905578934,-16.686810700200198
1760682113.8535538,-26.270628896773182,-0.33440863080046795,0.7258303644214766,0.11419750401698356,8.787318948176651,4.36987762877092,-12.264230407054448
1760682113.8638525,-26.301461440997862,-0.3402237653240927,0.7336543885379218,0.1257423227641877,9.821824086809471,4.911634904766512,-7.97491925571855
1760682113.873805,-26.2996696203643,-0.35094365148860207,0.7547782605783736,0.13511527330416748,10.72225859513179,5.530119982157433,-3.949782299351212
1760682113.8835065,-26.27006895415441,-0.3647341795674907,0.788885954673734,0.1413074680699964,11.457505945366345,6.230838289405397,-0.27648773901812196
1760682113.8935275,-26.2156347048398,-0.3790151889014835,0.8343085525625358,0.1434153986700526,12.019930768602782,7.029484105318742,3.0088157294385636
1760682113.9034348,-26.136794617984165,-0.3908783633005771,0.8880833481566108,0.14067208735026454,12.42209985586159,7.9585283261468565,5.921837297769216
1760682113.9135094,-26.031279058887527,-0.3975977999427572,0.946168291107465,0.13247493135064525,12.69153065568435,9.070271473855113,8.523103190940635
1760682113.923605,-25.894584443944392,-0.39715373370867546,1.0038191689618872,0.1184156916872642,12.864762091663774,10.434588491001836,10.905106073835501
1760682113.9336011,-25.72097012435111,-0.3886748754778879,1.05611057042379,0.09831223445125456,12.98179548423761,12.130432020940525,13.175956936852844
1760682113.9435456,-25.504789027134972,-0.3727062791239551,1.0985425494921783,0.07224155859336423,13.081406126300305,14.231428010200228,15.442202197779515
1760682113.9538794,-25.24187924456655,-0.3512340199588586,1.1276350234083812,0.040576583392269105,13.197222670023487,16.787221447499945,17.793302894020304
1760682113.9637244,-24.930736055815572,-0.32744200317245636,1.1413891286455393,0.004024203670059741,13.354167561270222,19.803390427891507,20.28959060691656
1760682113.9737773,-24.57323944810398,-0.3052275338643911,1.1395083194872542,-0.03635315332023738,13.565090892611254,23.223754840230516,22.954556128793122
1760682113.9837117,-24.174812191532222,-0.2885505245594553,1.1233291674766235,-0.07916044677430092,13.828081349119753,26.919585912857027,25.77152051332264
1760682113.9939253,-23.744001705120592,-0.2807296134513822,1.0954934777052048,-0.12275516279345153,14.125499109021076,30.68993726872327,28.684413706240598
1760682114.0038385,-23.291586993109973,-0.2838178169399502,1.0594616954457738,-0.16538732449007837,14.42575422030571,34.275509607193875,31.602486607098125
1760682114.0139418,-22.82938495971869,-0.298182670352453,1.0189939854599783,-0.20536580451436354,14.688164946412078,37.38541239835828,34.408916509883284
1760682114.0237768,-22.368956111513924,-0.32238064040890907,0.9777073156211805,-0.24121556052793305,14.870209922677205,39.73295763220526,36.973062287882264
1760682114.0337908,-21.92039277528189,-0.353357615094623,0.9387705706941187,-0.27179630760129475,14.935606573857873,41.07431532576024,39.16551707102362
1760682114.0437858,-21.491330115462617,-0.3869362210908274,0.904745832733988,-0.2963664086304872,14.861252971517306,41.24308220549326,40.87432239242569
1760682114.0538614,-21.086270058983597,-0.4184861613682209,0.8775408358844053,-0.31459105529099646,14.64128431658746,40.17461627792373,42.02009573647228
1760682114.0636642,-20.706263587784893,-0.4436384051295351,0.8584180397023905,-0.3265062615179053,14.28723297970341,37.9160603630312,42.56767450281028
1760682114.0737486,-20.348961894947312,-0.4589075593632857,0.8480130559127249,-0.33245728354095033,13.824314191294686,34.62080708860529,42.53231175578374
1760682114.085357,-20.00901905362299,-0.46212207968699387,0.8463413652725605,-0.3330311356966079,13.28488506909481,30.529086286674477,41.97936164509854
1760682114.093529,-19.678803437895354,-0.4526149820716772,0.8528019172534319,-0.3289974695566331,12.70083465877791,25.938657897755313,41.017483722409864
1760682114.1037211,-19.34934917117977,-0.43118269730100905,0.8662045073096207,-0.3212618205857849,12.096844133023383,21.17073732298861,39.786381210440474
1760682114.1139853,-19.011453225088758,-0.3998609366882924,0.8848480984337208,-0.31082527716213604,11.486085652127667,16.53618827760018,38.44079166345356
1760682114.123438,-18.656803270802868,-0.36158431317058415,0.9066625022755312,-0.2987404704167205,10.869169606914783,12.306051153047989,37.13283034746731
1760682114.1336732,-18.27901152192212,-0.3197928956733446,0.9294046845045691,-0.286056681401989,10.236257411812606,8.689147013956989,35.99488579541233
1760682114.1436954,-17.874433618081483,-0.278034299695288,0.950882541850003,-0.27375374122269575,9.571482884996287,5.81820250482658,35.125130068793055
1760682114.153487,-17.442670282840297,-0.23959549863383062,0.9691697209114655,-0.2626713008702609,8.858369309244573,3.7448705162402955,34.57735955589263
1760682114.1636639,-16.986683306339252,-0.20718985543574506,0.9827771649887681,-0.25344448925908886,8.084886564184988,2.4432116478494166,34.35634745191232
1760682114.1735663,-16.512503669239546,-0.18272052268642525,0.9907585612735191,-0.24645795281683394,7.247110890415679,1.820591280515681,34.419208391477454
1760682114.1835275,-16.028561857043524,-0.1671369915544022,0.9927427985299294,-0.24182789654057021,6.350959783341391,1.734443174088909,34.68252280732089
1760682114.1935112,-15.544720750857751,-0.16039485752994972,0.9889015400288566,-0.23941702284562913,5.411985038163276,2.0129103567706705,35.034245422564915
1760682114.2037,-15.071133005134786,-0.1615203655202431,0.9798700514464822,-0.23888125427228216,4.453584160604812,2.4770363024981275,35.34883514970219
1760682114.2135696,-14.617071266960277,-0.16877183172081167,0.9666425992559691,-0.23974063050543457,3.5041793137042783,2.9620252973346637,35.50367522913082
1760682114.2235627,-14.189884631757378,-0.17987939993649463,0.9504605576268342,-0.24146113205483355,2.5939245922477077,3.3352049920077684,35.394751853642795
1760682114.233565,-13.794214844746998,-0.19233368419003918,0.9327043475925451,-0.24353155254013253,1.7513958023252858,3.5087627769872167,34.9497346900913
1760682114.2436538,-13.431564750547913,-0.20368639825633847,0.9147927883978192,-0.24552142579790226,1.000574956159196,3.446070594675365,34.13700641190308
1760682114.2537339,-13.100259614131126,-0.2118256754411773,0.8980884111137917,-0.2471116876070729,0.35833088124122636,3.1613398288989445,32.96973050772799
1760682114.263494,-12.79578941973442,-0.2151951084494159,0.8838066189263036,-0.24809684914121605,-0.16746153836758543,2.7132784242793027,31.504634578135658
1760682114.273616,-12.511473726230141,-0.212935559208747,0.8729298377636145,-0.2483640721370934,-0.5790447847279921,2.1941811044200072,29.83575181290026
1760682114.2838616,-12.23935521218764,-0.2049404693412373,0.8661324637296369,-0.2478596866247628,-0.8890437658300123,1.7163451959446128,28.083865687415447
1760682114.2935474,-11.971208027031999,-0.19182757776854673,0.8637256676337499,-0.2465560523735178,-1.1198067840823922,1.3978169752280911,26.38282696091479
1760682114.3036866,-11.699542773024191,-0.17483999316751722,0.8656313639193124,-0.24442987710230513,-1.3018200760736234,1.3492634577070652,24.864254210614984
1760682114.313799,-11.418496684122752,-0.15569450616669442,0.871392050209231,-0.2414579157613982,-1.4712833485796608,1.6633182235454969,23.642367120142115
1760682114.323591,-11.124510370576225,-0.13639485506372104,0.8802193173689424,-0.23763031725959516,-1.6670412113627422,2.4071825149003665,22.800778600712867
1760682114.3334801,-10.816711415419917,-0.11902581081745048,0.8910798789479576,-0.23297808204439593,-1.9271718398562727,3.6186962451300757,22.382916026069623
1760682114.3436837,-10.496955294797175,-0.10554421425578088,0.9028136370127479,-0.22760912443274625,-2.285607843481898,5.305626171018828,22.38731438279047
1760682114.353831,-10.169519260534654,-0.09758588297838917,0.9142729903595488,-0.22174616539645228,-2.7691753955625678,7.447592136283814,22.768364911226275
1760682114.3635933,-9.840499236392253,-0.09630885707057789,0.9244675890289502,-0.21575849434521202,-3.395379228489159,9.999851338002086,23.442332760053244
1760682114.3735406,-9.51700806069145,-0.10228961869550358,0.9326964539264617,-0.2101786356648012,-4.171149112705779,12.89804774758145,24.29772593824388
1760682114.3837662,-9.206299998962644,-0.11547951522969947,0.9386506552310246,-0.20569475708374638,-5.09262135479655,16.06299956927029,25.2085306904541
1760682114.393732,-8.914945226003743,-0.13521752648302118,0.9424733074408357,-0.20311106044104635,-6.145882866133623,19.40469082445107,26.048508254341872
1760682114.4038417,-8.648153664120073,-0.1602872742442977,0.9447678879037917,-0.20327160447837148,-7.308488687392718,22.82492276334081,26.70470839094335
1760682114.4138317,-8.409310374909465,-0.18900293175979072,0.9465501236947884,-0.20694761614380186,-8.55150772606248,26.21856424739613,27.088572705434924
1760682114.4237812,-8.199744513726479,-0.21930997642648592,0.9491431410003871,-0.21469434522967215,-9.84186608973153,29.47390766283988,27.14341061357371
1760682114.4340336,-8.018718175105969,-0.2488915395167017,0.9540211043263049,-0.226691391444917,-11.144824884232174,32.47312911465344,26.847559950464476
1760682114.4436035,-7.8635960671042096,-0.2752790514508321,0.9626139963761,-0.24258969190979418,-12.426514144135801,35.0941272381871,26.21312798857413
1760682114.4537594,-7.730145502335013,-0.2959752214467557,0.9760949488339444,-0.2613964996731295,-13.656508197392451,37.214970179095644,25.28078198502615
1760682114.463485,-7.612918343839345,-0.30860322206829,0.9951791757430324,-0.2814330535140913,-14.810439568147764,38.72176064949252,24.111545839986523
1760682114.4738867,-7.505677350318279,-0.3110921849813466,1.0199668623155431,-0.3003952574803029,-15.872595174151591,39.51996841726744,22.776884840272587
1760682114.48382,-7.401841554271574,-0.30189373060701946,1.04985913833493,-0.3155344850456385,-16.83832871646752,39.54831765862808,21.348474534914182
1760682114.4937205,-7.294933954609889,-0.28020379616611196,1.0835663590999196,-0.32395466422067765,-17.715987917010708,38.79335298417774,19.88894570034417
1760682114.503731,-7.179020377561394,-0.246150676777778,1.1192130290912512,-0.3229962887341771,-18.527950492854597,37.30204593120158,18.444603363802027
1760682114.5139778,-7.049133570656914,-0.20091115444501276,1.1545267800249361,-0.3106535611154986,-19.31034922108264,35.18942458884701,17.040699061983048
1760682114.5236945,-6.901680627933295,-0.14672811404410532,1.1870834332422295,-0.2859549013852943,-20.11116099554067,32.63835993340087,15.679401513877929
1760682114.533623,-6.734830036441983,-0.08681665929917132,1.2145697133028903,-0.2492355842912697,-20.986492962914035,29.889420607019044,14.34028024823692
1760682114.5438588,-6.548863660877169,-0.025157100916041727,1.2350220133226684,-0.20224515444292696,-21.99506228343325,27.220120378542124,12.982948746636316
1760682114.5535629,-6.346460677871534,0.033816704253201844,1.2470047694073498,-0.14805708510711288,-23.191017358504755,24.91478518332948,11.551479344287271
1760682114.563625,-6.132861440005923,0.08561335881135003,1.2497047724773938,-0.09077829894998156,-24.615416463924596,23.228345751694704,9.980216114723063
1760682114.5738716,-5.915848746278863,0.12612775540151341,1.2429353888612142,-0.0350878524687473,-26.28690865621766,22.349180738259147,8.200580607558509
1760682114.585352,-5.705491012084867,0.15207715914472403,1.2270630519251238,0.014336028447209624,-28.192477842334835,22.367206299073175,6.148327633423188
1760682114.593488,-5.513620589596433,0.16136152361646003,1.2028831687940058,0.05341822204308933,-30.279493858702978,23.253307780720846,3.7704817937329955
1760682114.603523,-5.353067218355111,0.15328453323659205,1.171480327388351,0.07922551705319926,-32.450674193914296,24.854745833772622,1.0309839363171982
1760682114.6135762,-5.236721098670425,0.1285934161888168,1.1341071338777986,0.09035560745320254,-34.56374128117538,26.908504081680835,-2.085951057381062
1760682114.6240268,-5.176548762146725,0.08932640605410229,1.0921076710335627,0.0871127557470773,-36.43738752090544,29.071195765389742,-5.575529665326593
1760682114.6338375,-5.182711279306402,0.038491394953479134,1.0468958732696183,0.0714409453899606,-37.86450423546339,30.960873667925476,-9.415400203900452
1760682114.6435506,-5.262923264806189,-0.0203658456165569,0.9999780058650092,0.04662454245644288,-38.63247197746335,32.2036799917255,-13.57157825820204
1760682114.6535602,-5.422140670829839,-0.08362003608503053,0.9529892482045241,0.016803769945051082,-38.548784702044436,32.47733202592724,-18.006077955715504
1760682114.6634727,-5.662592933300702,-0.14796455793323443,0.9077070327104694,-0.01361846144005964,-37.46870171159659,31.544273841574427,-22.68439516655052
1760682114.6734893,-5.9841063872407325,-0.21068607164955427,0.8660120901656795,-0.04058505103552821,-35.32043747539631,29.26985361421934,-27.580724537761498
1760682114.6839204,-6.384618165705118,-0.2697899100385256,0.8297868089449066,-0.06091352946125076,-32.123070866759086,25.624499889993995,-32.67908591410896
1760682114.693838,-6.860756221466403,-0.323982784761267,0.8007608367170952,-0.07266476926886783,-27.993170405962708,20.672493449853558,-37.969360368914906
1760682114.7035186,-7.408357628953792,-0.37253492520063325,0.7803298123836564,-0.07530064335367519,-23.138033014120605,14.552457105850495,-43.438394717635205
1760682114.713481,-8.022811915261983,-0.4150492454478943,0.7693818222005012,-0.0696186826324761,-17.835965856315354,7.455483879770987,-49.05752931139061
1760682114.7239015,-8.699151806673713,-0.45117701351159745,0.7681655093160804,-0.057491261451118776,-12.406514577563849,-0.39404968224317105,-54.76886678919469
1760682114.7337017,-9.431872686197414,-0.4803447411985224,0.7762236388244074,-0.041467356985090145,-7.1753251449173865,-8.751914326353685,-60.47322193761163
1760682114.7436247,-10.214537402665242,-0.5015810131301514,0.7924018773123439,-0.024310868546867672,-2.43907088760046,-17.3609923144663,-66.02299243928493
1760682114.753769,-11.039296209916003,-0.5135282172136068,0.8149327454358483,-0.008551005102093851,1.5644339333529724,-25.953209000215136,-71.22306883561481
1760682114.763694,-11.896497966939526,-0.5146793981540789,0.8415905299655142,0.0038889434293880782,4.676966349189308,-34.24935919705643,-75.8420336743207
1760682114.7737796,-12.774569670895424,-0.503809223739827,0.8699065007839006,0.011934396719042154,6.829235720193539,-41.96033560408405,-79.63405577629983
1760682114.7840896,-13.660293330301606,-0.48049855411459175,0.8974188520658801,0.01544500896072472,8.038627360009666,-48.79290940378805,-82.36936710409877
1760682114.793802,-14.539523042430474,-0.4456064949630029,0.9219158758084924,0.01513902284199121,8.397094103945836,-54.46208089595401,-83.86878333728129
1760682114.803641,-15.398280997830073,-0.4015372816179219,0.9416298216275049,0.012378904807226324,8.052350876701002,-58.71032796483448,-84.03615395453255
1760682114.8136263,-16.224073636321332,-0.3521904706071788,0.9553571406899254,0.008864030764911964,7.18606062345822,-61.33211065336869,-82.88233220743186
1760682114.8237226,-17.007201967827754,-0.3025628989165052,0.9625045111417858,0.006290978480089706,5.992344709336324,-62.2001438903585,-80.53531137404752
1760682114.8338037,-17.741819710128137,-0.2580631009586578,0.9630735409393509,0.006044240061922935,4.659015921683589,-61.28869790903166,-77.23338445903939
1760682114.8436675,-18.42652559814909,-0.2236744001222835,0.9575984212073293,0.008968999909552194,3.3528645751428034,-58.68890869535892,-73.30116635215329
1760682114.853608,-19.064356767022225,-0.20314250778737689,0.9470477912281906,0.015256066757089693,2.2094808349896087,-54.611921872548905,-69.11152021966056
1760682114.8637679,-19.66216198619303,-0.19835966913538702,0.9327001487422875,0.024443972643802558,1.3275941509684979,-49.37749653806041,-65.03917767217057
1760682114.873761,-20.229451605140966,-0.20907268930125883,0.916001568522156,0.03552265173972332,0.7676687882889422,-43.38806539157244,-61.41348755025537
1760682114.883631,-20.77691724837515,-0.23296786448393442,0.8984148974435674,0.0471115993837888,0.5543274840158359,-37.09069984242564,-58.477852587514704
1760682114.893751,-21.31486586305407,-0.26610175616135784,0.8812715491931399,0.057682114468436824,0.681928971309269,-30.931556207201684,-56.361998967522744
1760682114.903708,-21.85181129556604,-0.3035772886943596,0.8656396534231359,0.06579408397962379,1.1222877139274696,-25.30890553123135,-55.07071615457589
1760682114.9138482,-22.39342039827971,-0.3403278992482668,0.852223472840923,0.07031923176213281,1.833237505436948,-20.531537068546065,-54.489826945441195
1760682114.923738,-22.941937439749235,-0.3718710707541013,0.8413079196305865,0.07062374670539896,2.7666748297982315,-16.78893197968546,-54.40755854875815
1760682114.933731,-23.496128251359337,-0.3949165829314402,0.832759133097698,0.06668504547471411,3.8749312581302213,-14.138022693060316,-54.547566921055996
1760682114.9437063,-24.05170762048715,-0.4077508484658597,0.8260868178019248,0.05912236550486897,5.114745724552037,-12.508750216695447,-54.60872796701329
1760682114.9536123,-24.60214838636769,-0.4103563193579135,0.820564625653292,0.049130402223055245,6.448621439667144,-11.72743589269911,-54.30637452840256
1760682114.9636135,-25.139723952697707,-0.40426110323459225,0.8153911412470437,0.038319296092107505,7.843867052642297,-11.55381453588616,-53.40978061757151
1760682114.973541,-25.65661267405239,-0.3921527200720424,0.8098604416334927,0.02848104596798963,9.27006638442369,-11.725126768131826,-51.77127985820179
1760682114.9836993,-26.14589667152891,-0.3773316313229033,0.8035054275937329,0.021317696512501035,10.696014694267214,-11.999513631436344,-49.34345575203119
1760682114.9936025,-26.60231767118441,-0.36311175416836344,0.7961832796094012,0.018175651538337775,12.087231276432986,-12.191338071681894,-46.1823708355167
1760682115.0038188,-27.022700986910785,-0.3522795783955856,0.7880871365800206,0.019831065424140572,13.404997069582913,-12.192810051687713,-42.436703365233605
1760682115.0138211,-27.406016049825837,-0.34669803313303654,0.7796852651957605,0.026364669107977506,14.607515174841254,-11.978994145223417,-38.3246526168559
1760682115.0237992,-27.753099662046683,-0.34710095165803395,0.7716044670885113,0.037152394692482764,15.65330519011704,-11.596467410589705,-34.10217326738713
1760682115.0336714,-28.066120622405663,-0.3530873135310212,0.7644851417770847,0.050980677019970715,16.506380375229366,-11.13906064642227,-30.027182639173486
1760682115.0437288,-28.347906399109323,-0.3632991330969706,0.7588388810882514,0.06627158009950436,17.142218031766703,-10.716577870561753,-26.32473657104719
1760682115.0535696,-28.6012762384314,-0.37574808186968883,0.7549366095796768,0.08137561046777421,17.55315313974524,-10.42344723976997,-23.157865408662655
1760682115.063602,-28.828519398449227,-0.3882356551711246,0.7527491237056035,0.09486794761844015,17.751744209530784,-10.313610485148903,-20.607892510948442
1760682115.0739515,-29.031115289308396,-0.39879124415063283,0.7519538795515178,0.10577869352463756,17.770974191034114,-10.385938565937026,-18.666644774280293
1760682115.0838559,-29.209722121635718,-0.40604433145475255,0.7520118695285322,0.11370628119418483,17.66083226628178,-10.581827802906034,-17.241106353962785
1760682115.093736,-29.364384926916582,-0.40946117217125444,0.7523065985158506,0.11879952082911054,17.481684565608028,-10.794148106606064,-16.16910142418545
1760682115.1037886,-29.494857745154338,-0.40940901288521736,0.7523246988566873,0.12163162037605618,17.295602600762212,-10.884854379471397,-15.243002568465885
1760682115.1137316,-29.600913982632473,-0.4070494321792085,0.7518467250775626,0.12301299822161557,17.157256194668957,-10.70747120554452,-14.237606843814326
1760682115.1238177,-29.68253576827205,-0.4040950441653996,0.7511097455755459,0.1237928015579188,17.106025008319936,-10.130268664730016,-12.938270397653078
1760682115.133694,-29.739919538631188,-0.40248432827424446,0.7509026874070581,0.12468692629935037,17.160696472203902,-9.056189345633562,-11.165957018684237
1760682115.143626,-29.77329726664577,-0.40403684951285346,0.7525621009126452,0.1261533964704967,17.317594923768425,-7.436414717700126,-8.796734410243834
1760682115.1539118,-29.782633987635656,-0.4101468840822257,0.7578495912752284,0.1283220648130138,17.552325065977957,-5.275784931488109,-5.774180090641831
1760682115.1636803,-29.76730548469513,-0.4215588667023255,0.7687105478942954,0.13097677663503143,17.824632617360503,-2.629908486788903,-2.1140019613568
1760682115.1738632,-29.725873306310984,-0.4382472857392712,0.7869346674304467,0.13358295285579705,18.085341421984197,0.40461811918613466,2.099081601505358
1760682115.183807,-29.65605465522281,-0.4594033966124555,0.8137604183290251,0.13535027983151676,18.28406761044113,3.7043235965809265,6.721509090723964
1760682115.193478,-29.554935435704174,-0.48351549334129784,0.8494859633677928,0.13531813090235267,18.376498787094405,7.134363022737291,11.566853382319852
1760682115.2036426,-29.41940473981289,-0.5085197614153758,0.8931644211763325,0.13245122852560645,18.330380567210117,10.562833812162504,16.42595196504564
1760682115.2138307,-29.24671761339506,-0.5319981630165675,0.9424664796702655,0.1257361604220398,18.129790639897152,13.87219069491175,21.08923341639593
1760682115.2238343,-29.03504859948773,-0.5514107105464197,0.9937823683506162,0.11427476964629962,17.77762094347578,16.967014214916336,25.369063954600904
1760682115.233572,-28.78390213271412,-0.5643633653411112,1.0426022347495916,0.09737440553980492,17.296334744456853,19.778157650705335,29.11975584403089
1760682115.243667,-28.4942929954764,-0.5689120441453334,1.0841558381226308,0.07463507937577377,16.72700490352383,22.263677201850054,32.2528084656791
1760682115.2539232,-28.168676055406152,-0.5638799219527679,1.1142146308281982,0.04603138108563978,16.126431853559218,24.406917770492853,34.74519231729737
1760682115.2637122,-27.81066509985119,-0.5491319737973492,1.1298826628930523,0.011983788461068347,15.561958740597905,26.21189570019242,36.63916914348426
1760682115.27381,-27.424622243799018,-0.5257284779252952,1.130163836134367,-0.02659318942241312,15.103725005169553,27.69610374414311,38.03321264576202
1760682115.2838295,-27.015215483038496,-0.4958837127563809,1.1161288256510482,-0.06828914501366923,14.814718981932392,28.88136912796225,39.064917075565475
1760682115.293545,-26.587030620678213,-0.4626944124642878,1.0906223055493447,-0.11126872266874231,14.739969089876334,29.78424547926743,39.88820793184023
1760682115.305286,-26.144290763715603,-0.42966664516968334,1.057605077988115,-0.15342865556592736,14.897086820171209,30.408014264836257,40.648435684923854
1760682115.313828,-25.690694969238727,-0.4001332713193103,1.0213406310621351,-0.19262831221972257,15.27062943719504,30.73824496110054,41.459630365911245
1760682115.3250523,-25.229352778134846,-0.37668943185016657,0.9856592357948933,-0.22695540948332862,15.81214216570964,30.743080178611645,42.38797541484667
1760682115.3337703,-24.762774413188158,-0.3607706591755727,0.9534693098871827,-0.25497250479385314,16.446415961483815,30.378366262981213,43.444379668375475
1760682115.3441305,-24.292879070917788,-0.3524623794182866,0.9265796250200787,-0.2758889779608643,17.082900489382457,29.596752774623234,44.58718122735642
1760682115.3535244,-23.820998698256048,-0.3505716782830504,0.9057937442695739,-0.28962008321483423,17.6298747437063,28.35907627513252,45.73398586880556
1760682115.3638384,-23.34787237204246,-0.35292866558893266,0.8911702447014115,-0.2967251479214154,18.008316706488063,26.645848629571702,46.77991311701642
1760682115.3735006,-22.873641126051183,-0.3568355030136971,0.882322948095368,-0.2982493523917249,18.1626038148439,24.466624061399664,47.61847411501065
1760682115.3835468,-22.39786236754866,-0.35955959192817705,0.8786622864004494,-0.29551524464329443,18.066120011609932,21.86544719132853,48.161120015036026
1760682115.393801,-21.91956528237646,-0.35877428213701684,0.8795323341519957,-0.28991492301424104,17.721214959419353,18.921346687153203,48.35211475802662
1760682115.403859,-21.437363433342814,-0.35287707085809944,0.8842503544333348,-0.28274297327579406,17.1543137553416,15.74372917857156,48.176556875546
1760682115.4139671,-20.94963021430335,-0.3411508384139716,0.8920873341040498,-0.27509012723161635,16.40792463752086,12.463385914265437,47.66080471245031
1760682115.4236295,-20.454730728171832,-0.3237694147998493,0.9022344497400856,-0.2677964488265389,15.531649479055199,9.220543700264026,46.86596390398091
1760682115.433936,-19.951292977705435,-0.3016768373598855,0.9137885053941848,-0.2614482652919602,14.574099947651682,6.1518530681194035,45.87621591379577
1760682115.443735,-19.43849257123333,-0.2763835488257705,0.9257704802532721,-0.25639915253283435,13.577033745978843,3.3782859523585054,44.7844247437345
1760682115.4536388,-18.916318027084184,-0.24972233285996723,0.9371756367731835,-0.2528003708913807,12.572270264059977,0.9955867165681032,43.677621148608495
1760682115.4638636,-18.385779292611424,-0.22359907298299378,0.9470458532587476,-0.25063422155442916,11.581231970244502,-0.9316929141492659,42.62470936584679
1760682115.4736488,-17.849022983632047,-0.19976566909032673,0.9545531741061084,-0.24974926357722554,10.616445933899996,-2.3722490440565505,41.66817503255785
1760682115.4837444,-17.309326385713415,-0.17963663008625552,0.9590832614385857,-0.2498975214053388,9.684109258602884,-3.326480840389759,40.8207783571743
1760682115.4935563,-16.77095848122984,-0.16416541010628002,0.9603057222407227,-0.25077249159984183,8.786861403624448,-3.8221332153722964,40.06729224548615
1760682115.5035849,-16.238916789089686,-0.15378917072845014,0.9582167435140476,-0.25204539246469104,7.926123255755522,-3.9081905287777454,39.3704577269977
1760682115.5140934,-15.718567295866464,-0.1484400138154496,0.9531418013040246,-0.25339694215364283,7.10363068591925,-3.6481358868491918,38.679688466903706
1760682115.5236096,-15.215226147927675,-0.1476094252846948,0.945693747713372,-0.25454289371473715,6.32202038825135,-3.1135157272120852,37.94080365778688
1760682115.5337055,-14.733726669454517,-0.1504469168004986,0.9366915949900134,-0.25525280788201515,5.584506951747463,-2.3783912797256925,37.10519130812666
1760682115.5438282,-14.278017317233719,-0.15587620952537976,0.9270537370763993,-0.25536237811951346,4.893849525820874,-1.5148124198907598,36.137168437152134
1760682115.553556,-13.850835282730518,-0.16271740724180553,0.9176836648085039,-0.25477998925734674,4.25094514886669,-0.5890509010857288,35.018763956562296
1760682115.5636137,-13.453493342723442,-0.1698057759320404,0.9093659061292967,-0.2534886200218184,3.6534683811836666,0.34188241949119325,33.75161096303667
1760682115.5735776,-13.085804788905335,-0.17609845507765676,0.9026859582739226,-0.2515447105915703,3.0949650480160535,1.2338469322532863,32.35605342336667
1760682115.5838413,-12.74615778672409,-0.18076333626180222,0.8979823802885714,-0.24907518717866356,2.5646904803693533,2.059377131694923,30.86792251035982
1760682115.5937972,-12.431738922180553,-0.18324819945075255,0.895333788405601,-0.24627185203739624,2.048288260704067,2.81124515098611,29.33369313847229
1760682115.603842,-12.138893207264218,-0.18332912822772585,0.8945789607656838,-0.2433800563938627,1.5291949444802884,3.5048683297372425,27.804862257207635
1760682115.6140614,-11.86359070408621,-0.18113450237003018,0.8953646246551911,-0.24067801480855255,0.9904942610144396,4.178418946778036,26.33238517401468
1760682115.6237736,-11.601948887506833,-0.17713755283422541,0.8972127848308711,-0.2384452005976542,0.4168698977568047,4.889659316377498,24.961880234342498
1760682115.633844,-11.350740423540726,-0.17210993961437598,0.8995977660709701,-0.23692254709597946,-0.20367878447454293,5.709111768220723,23.73010047221062
1760682115.6436365,-11.10780525459366,-0.16703233382573635,0.902022656370182,-0.2362724085629618,-0.8786153752391653,6.710037384494769,22.662920983284252
1760682115.6540778,-10.872289462434479,-0.1629650506899996,0.9040859154946603,-0.23655027831365363,-1.6102902288100451,7.956573870111057,21.77485290139773
1760682115.663889,-10.644653624603473,-0.16089078851782626,0.9055318129570614,-0.2377005277424303,-2.3960485211280744,9.491999214659442,21.069903872400356
1760682115.673684,-10.426428158141004,-0.1615502296619219,0.9062825561353289,-0.23958338703969564,-3.228949127434924,11.329267972681093,20.54347413193486
1760682115.6837094,-10.219737931541118,-0.16529806935231217,0.9064540463429012,-0.24203105289846188,-4.0989107234706,13.445667362284219,20.18490086781569
1760682115.6937618,-10.026667643378198,-0.1720105310565868,0.9063594112029373,-0.2449205545204592,-4.994014863277388,15.782739498562838,19.980223256737272
1760682115.7038467,-9.848583212519227,-0.18107219046576747,0.906503472191623,-0.24824350327296382,-5.901673209475826,18.251680422103433,19.914726031723813
1760682115.713618,-9.685547749809132,-0.1914566090612391,0.9075671392523041,-0.2521501410454499,-6.809441589042169,20.743452066049315,19.974842307744158
1760682115.7236252,-9.535961651914485,-0.2018937445268998,0.9103755497156641,-0.25694760131476996,-7.705429194455645,23.142005493798635,20.149074903440837
1760682115.7336478,-9.396514799801311,-0.21109458333936304,0.9158412313519416,-0.2630397733329482,-8.57844827605106,25.338460047927004,20.427729096543025
1760682115.7439718,-9.262475576845182,-0.21798683204739056,0.9248764302899953,-0.270808190176836,-9.418198030410695,27.243921990876597,20.801414858852745
1760682115.7536767,-9.128271077647508,-0.22190806971038582,0.9382767349731128,-0.28044866975377203,-10.215817909945184,28.79888689307062,21.258443866452644
1760682115.7636526,-8.988250666025396,-0.22270726368007662,0.9565880530292142,-0.2917935012817601,-10.965067848162,29.97779656681284,21.78139989900566
1760682115.7738857,-8.83748791202061,-0.22072605452035435,0.9799770765032256,-0.3041586477830351,-11.664216601912813,30.788208514070536,22.343295338404065
1760682115.7839391,-8.672477721830445,-0.21666596801820012,1.0081294556132883,-0.31625690920973654,-12.31847463644334,31.265032976996334,22.903833893372543
1760682115.7936356,-8.49162541447952,-0.21138301647344582,1.040199467642779,-0.32621249826686677,-12.942539274394528,31.46119043096954,23.40637505696876
1760682115.8037786,-8.295483985491101,-0.2056696568677129,1.0748296515418945,-0.33170135006000306,-13.562599336257843,31.436620034759393,23.776244974769497
1760682115.8138218,-8.08675002530077,-0.20007894915705102,1.1102479491608914,-0.3302233789032511,-14.217052174083866,31.247695441175065,23.921063503952183
1760682115.8240867,-7.870061880015902,-0.19482410985511578,1.144433913140346,-0.31948722395983226,-14.955263648178489,30.938798480972153,23.73373324654136
1760682115.8341959,-7.651654269731532,-0.18976161473051525,1.1753287831263992,-0.2978584297880127,-15.833950757484866,30.5371982610869,23.098607615859706
1760682115.8441117,-7.438919364034592,-0.18444744701510415,1.2010537332687887,-0.26479505874747056,-16.911146543201752,30.051641616719298,21.901051624881458
1760682115.853785,-7.239914094297234,-0.1782468232225254,1.220100661329721,-0.22117771458702182,-18.238141782867928,29.47432266185715,20.04007763605041
1760682115.8639243,-7.062843945239861,-0.17047533436808576,1.2314682470593137,-0.16944146016814698,-19.850190665608253,28.785320685301382,17.44299021364094
1760682115.8736887,-6.915549038894048,-0.16055041189279803,1.2347268294735747,-0.11344159871940557,-21.757039718674893,27.958346295762254,14.080134803061876
1760682115.884052,-6.805020751539459,-0.14813483042112685,1.2300055638215268,-0.05803494509218903,-23.934475254077885,26.966789095701376,9.977154717455102
1760682115.89364,-6.736984506727288,-0.13325797515681753,1.2179052501821852,-0.008424263541245373,-26.318128310467632,25.789467091090096,5.22190145331545
1760682115.9036658,-6.715591223466459,-0.11640328018235575,1.1993518724174237,0.030623471553678845,-28.800769368540028,24.415797497448285,-0.036470377861990096
1760682115.913953,-6.743259215135585,-0.09854936393130193,1.175418097647372,0.05553667936907467,-31.234247954770737,22.85003366864521,-5.597607544739871
1760682115.9239542,-6.820696037906272,-0.08115087208524269,1.1471493751710082,0.06452815411266764,-33.437002708160534,21.113721985436154,-11.229038335930035
1760682115.9337099,-6.947107773191658,-0.06604893469581306,1.1154343159495035,0.05789910690350229,-35.20758441247344,19.24496287996907,-16.69224954452918
1760682115.9437523,-7.120578122760054,-0.05531255288689065,1.0809527784123536,0.038000415337752225,-36.34382294205711,17.292942595157612,-21.772312893347184
1760682115.953731,-7.33857788391116,-0.051026351038982135,1.0442184269329755,0.008858439924986005,-36.66614568501485,15.306949586962078,-26.306765243584145
1760682115.9636917,-7.598548577106278,-0.055049095954727546,1.0057076801860299,-0.024466149791285727,-36.04230830916456,13.320709407253432,-30.209342803273074
1760682115.9739099,-7.898489536653858,-0.06876730865774489,0.9660393761760285,-0.05667206971720479,-34.40979367449057,11.334886595107987,-33.48468802271045
1760682115.9838023,-8.237463938680905,-0.0928636985262734,0.9261480255791398,-0.08302524231510805,-31.791779194449084,9.3022540384812,-36.23106377396815
1760682115.993637,-8.615930821075393,-0.12712035287473528,0.8873888573873956,-0.10004356984675583,-28.303120901932388,7.120627598391216,-38.629345682900485
1760682116.0039494,-9.035817273795747,-0.17028523219411568,0.8515295699540953,-0.10594699784726719,-24.144245388526933,4.637817853326091,-40.918250272068626
1760682116.0136192,-9.500275104257632,-0.2200392509734288,0.8206143540192842,-0.10080563354367174,-19.582931843391794,1.6705637501702335,-43.357972051570435
1760682116.0236733,-10.013117311813287,-0.2730973881053186,0.7967175628816147,-0.08637378443725374,-14.926261556240693,-1.963877500735108,-46.18685812118932
1760682116.0339198,-10.577990370059357,-0.32545710432928143,0.7816297777688426,-0.06565490855382648,-10.48691166702456,-6.408266079657676,-49.577765647630294
1760682116.0435355,-11.19739449805511,-0.37277979957027524,0.7765356012805693,-0.04229186384664648,-6.548920909831258,-11.725434211240435,-53.60158848911627
1760682116.0539072,-11.871705114934912,-0.4108689605059729,0.7817479898072999,-0.0199070343053012,-3.3378627455981253,-17.86620334627655,-58.20472636351237
1760682116.063693,-12.598367777290656,-0.43619593799780326,0.7965561225361097,-0.0015184672290981926,-0.9992727251970817,-24.652493335083808,-63.205147545185
1760682116.0737128,-13.371429857619571,-0.4464131147988506,0.8192228527724188,0.010870416942152001,0.4123629865320676,-31.780295062861605,-68.30866172605636
1760682116.0835917,-14.181530087895078,-0.4407780523237206,0.8471376009314209,0.016458987474630486,0.9333889729677612,-38.84362223164212,-73.14366667135586
1760682116.0935934,-15.016394034954896,-0.42039895577956743,0.8771005532713875,0.015618769377256212,0.6804057220856361,-45.37688560853239,-77.30951037807614
1760682116.103514,-15.861791935416917,-0.3882194580451484,0.9056946748682878,0.00968649457604729,-0.1684958108439277,-50.909930596697116,-80.43120468999207
1760682116.1136954,-16.702824846820395,-0.3487009010562561,0.9296948428563185,0.0006440035746945519,-1.3976779457983683,-55.02772365103263,-82.21197581758348
1760682116.1235569,-17.525337611382575,-0.30722628153033815,0.9464613130505972,-0.009247184304677329,-2.7797903934160892,-57.425771181746335,-82.47536677421793
1760682116.1337445,-18.3172305053083,-0.2693191400804087,0.9542640859138668,-0.017796276904422554,-4.100432851414404,-57.95292720438561,-81.19035567476087
1760682116.1437736,-19.069463481816843,-0.2398188865472805,0.9524900392703302,-0.023174481934435578,-5.179098628148591,-56.635051466059245,-78.47590382163011
1760682116.153779,-19.776612476081137,-0.22216882510386943,0.9417005430122191,-0.02412292172045207,-5.884476367088443,-53.67565567723349,-74.58491346848221
1760682116.1639333,-20.43692949432946,-0.21795311323542302,0.9235315385936353,-0.020069725306962063,-6.142880338488277,-49.432913629190345,-69.87100939436014
1760682116.1738114,-21.051952896887308,-0.22676806844887795,0.9004539531328716,-0.0111583523823562,-5.939375317721507,-44.37586125072022,-64.74408743752284
1760682116.183613,-21.625787255178757,-0.24644135618839855,0.8754329529584072,0.0018069682910331264,-5.312037047155484,-39.025761861025025,-59.621678243091566
1760682116.1936667,-22.164208448827154,-0.27353735922424516,0.8515357754029109,0.017489741501069838,-4.3406134310549955,-33.89086772234759,-54.88284488110778
1760682116.2037659,-22.673747559542182,-0.30402912218873007,0.8315399226831494,0.03420937821097344,-3.1314626152387106,-29.403747655680505,-50.83000541129557
1760682116.2139213,-23.16087507221181,-0.3339915827869742,0.8175898077693758,0.05016831781578395,-1.8009534394338123,-25.869891398603208,-47.662300497444974
1760682116.223945,-23.63135907234973,-0.3601822961765587,0.8109432323184678,0.0636923600391902,-0.45952414136620484,-23.43463434025236,-45.462312136371544
1760682116.233694,-24.089824335129045,-0.3804194751252682,0.8118391450137771,0.07345569094990194,0.8016544990877789,-22.072845835682323,-44.19629689568008
1760682116.2436225,-24.53950747525548,-0.3937279651842902,0.8195035555970177,0.07866127377062497,1.9199318802050094,-21.602596145691955,-43.726744651543754
1760682116.2539172,-24.982190493076978,-0.40027981686423914,0.832291329506542,0.0791492468851275,2.8654911627536657,-21.720553639735467,-43.83506557815807
1760682116.2641423,-25.41829305415438,-0.4011880045035892,0.8479403428648162,0.07541276615326026,3.640573436131135,-22.053644634507755,-44.25150872098575
1760682116.273524,-25.847100764227843,-0.3982144105465272,0.8638954105149446,0.06851376622653174,4.2741697804336845,-22.21903384535023,-44.688942864703336
1760682116.28382,-26.26709695758234,-0.3934387682944718,0.8776475150140288,0.059909147928253505,4.813380742482413,-21.88320306967882,-44.87685988426329
1760682116.2935894,-26.67635231803538,-0.38892252692255935,0.8870334095504085,0.05121631798167692,5.313128885011182,-20.81111587410046,-44.591957754885584
1760682116.3036923,-27.072916557591846,-0.3863990586237856,0.8904529916295142,0.04395989597635151,5.826114896154885,-18.898178456065025,-43.681998025646095
1760682116.3138275,-27.455153647723225,-0.3870236710360867,0.8869836992918738,0.03934496295544195,6.394742432588445,-16.180647454267973,-42.0803063932691
1760682116.323609,-27.821968036016212,-0.3912154191526425,0.8763952849446411,0.03809625746568174,7.046231967767832,-12.823766151548206,-39.80923270162173
1760682116.333705,-28.17288436877612,-0.3986159105572031,0.8590868645785572,0.04038930706376351,7.791428149934798,-9.090596480106164,-36.972068711845026
1760682116.3437858,-28.507967214676217,-0.40817828889334745,0.8359766878286325,0.045881029650475254,8.627022753860677,-5.29761914350342,-33.73432636224646
1760682116.353849,-28.82759644244134,-0.41837966844478014,0.8083735746057311,0.053826707120776446,9.540205562565662,-1.7651270789418005,-30.296808343674172
1760682116.3638415,-29.132140446091594,-0.42752334871334413,0.7778513663632588,0.06325245396989054,10.514268603446647,1.2291838111997733,-26.864281983293328
1760682116.3738563,-29.421586132833447,-0.43407430892600507,0.7461410643029194,0.07314350824954567,11.533544862012786,3.486310623945483,-23.61442947696156
1760682116.3838987,-29.695190091881376,-0.436965905234806,0.7150534323792155,0.08261140102740885,12.586304904418986,4.9071786151838035,-20.671827573284812
1760682116.393726,-29.95121274915741,-0.43582776248372884,0.6864416972975715,0.09101400268681116,13.66483712461131,5.497574524279607,-18.090956755718057
1760682116.403819,-30.186788259713932,-0.4311024646977251,0.6622006345984948,0.09801556063796177,14.762776805702504,5.358194512877073,-15.85079757468044
1760682116.4138772,-30.397965812574178,-0.42403221598662644,0.6442770682553248,0.10358460974441135,15.870573986212403,4.66325640982897,-13.861711714634737
1760682116.4238722,-30.579932451879944,-0.41650779477184835,0.6346507014697196,0.10793490083747541,16.97052085737071,3.632119342867003,-11.983356868308716
1760682116.4338493,-30.727397175177654,-0.4107873026014201,0.6352441510593206,0.11141999975889443,18.032860118212195,2.4984645929763083,-10.050665329235969
1760682116.443602,-30.835087060192,-0.4091137586153946,0.6477387731608509,0.11439836622884904,19.014215638652797,1.4811576114184863,-7.903674217098926
1760682116.4537594,-30.898284973182058,-0.41328501122995426,0.6733026347522792,0.11709271204204831,19.85907228204898,0.7601982169317978,-5.416382564349244
1760682116.4636865,-30.913330327776865,-0.4242489449972892,0.7122694835201754,0.11947222238068843,20.50444227832573,0.46027728971552967,-2.5198990903401834
1760682116.4736166,-30.87801040039697,-0.4418029728476009,0.763833647365097,0.12118497608512686,20.88731868593376,0.6434023331622787,0.7840551274652311
1760682116.4837844,-30.791786862093357,-0.464466840321725,0.8258394372402451,0.1215594256306433,20.954085395968736,1.3108389587185265,4.421771646505328
1760682116.4935923,-30.65582782050617,-0.4895762572651114,0.8947421530019096,0.11968006391207606,20.67069365677894,2.413309286659696,8.258828892449484
1760682116.5035975,-30.472847397848778,-0.5136141045089749,0.9657998511504866,0.11452668706544243,20.032079211010192,3.867144224645034,12.122312665756684
1760682116.513838,-30.246786705982775,-0.5327529316637026,1.033519174533797,0.10515233135407397,19.06903501390011,5.573138682649307,15.830157883230525
1760682116.5236664,-29.982393635249405,-0.5435283971701096,1.0923249750063726,0.09086521937259955,17.850751385845523,7.434486785020021,19.222248147532053
1760682116.533596,-29.684768488880856,-0.543512664448341,1.137359100035278,0.07137796528631578,16.481665974833362,9.370570603838031,22.187414933374086
1760682116.5437193,-29.358937941955162,-0.5318347333510313,1.165255229305625,0.04689558784891065,15.092131907859036,11.324451460031407,24.681234101396047
1760682116.5536332,-29.00950586914872,-0.5094203942281705,1.1747062323090056,0.018131190522796537,13.823522373992747,13.263295194459769,26.731356136994552
