timestamp,angle,linear_acceleration_x,linear_acceleration_y,linear_acceleration_z,angular_velocity_x,angular_velocity_y,angular_velocity_z
1761286305.7964964,-7.1394548703580725,-0.12033852380628464,0.9721573549557119,-0.07106390060927757,-2.057997343982814,-0.3627455165983939,0.3930782391199183
1761286305.8064988,-7.133607604227425,-0.12087035937998937,0.9716134481180018,-0.07111025578931417,-2.116920004687159,-0.1632492129457361,0.3693735412664761
1761286305.8164968,-7.130707263502526,-0.12160872913688402,0.9711116148228641,-0.07147628931623767,-2.1852072115516443,0.08559246438908982,0.3177389761352114
1761286305.8264859,-7.131223554671458,-0.12250166187429469,0.9706815001839796,-0.07212275773083902,-2.2627451581182956,0.3702755300188949,0.2435947884565321
1761286305.8364801,-7.135377640416545,-0.1234942955022141,0.9703556368950258,-0.07298883162345537,-2.348879380641065,0.6739558523030872,0.1536261291397456
1761286305.846476,-7.1431541032634875,-0.12453343036824435,0.9701610020596537,-0.07399471625834801,-2.4425556574706615,0.9774161462030868,0.055268573874659575
1761286305.8564875,-7.1543296990718614,-0.12557088436454264,0.9701118687450536,-0.07504753216676177,-2.542465377265564,1.2603040860689165,-0.043870797518527474
1761286305.8665214,-7.168512216439417,-0.12656517562864641,0.9702066967548302,-0.07605032816935298,-2.647174401070698,1.5025654547719207,-0.13661066461834417
1761286305.8765256,-7.185182063137485,-0.12748147999192097,0.9704300251640493,-0.07691279530754697,-2.7552176529173407,1.6859574770075034,-0.21675739736568161
1761286305.8865085,-7.203730861505683,-0.12829040986740545,0.970758228823762,-0.07756127290298635,-2.8651457002343874,1.7955008590710273,-0.2795753968916559
1761286305.8964972,-7.223495018999954,-0.1289667572230274,0.9711667031584764,-0.07794561007082278,-2.9755193183663713,1.820721134697762,-0.32211299250389863
1761286305.9065044,-7.243786282314093,-0.1294894693323485,0.9716358630283622,-0.07804134426837427,-3.0848640693249645,1.7565454084745293,-0.34334215320649447
1761286305.9165077,-7.263923231868118,-0.1298434191419368,0.972153970241134,-0.07784696095889786,-3.1916133533985254,1.6037586847050918,-0.3440899810735561
1761286305.9264967,-7.28326638177566,-0.13002240407202478,0.9727159619924177,-0.07737725206606842,-3.2940762619508637,1.3689771258666228,-0.32676712110930334
1761286305.9364917,-7.30125657609034,-0.13003223309323364,0.9733189454762545,-0.07665474638785205,-3.390459908863452,1.0641492134847808,-0.29492892163778783
1761286305.9464908,-7.317454356779847,-0.1298931343210988,0.9739563536695265,-0.07570158311564568,-3.4789560886589133,0.705632400813372,-0.25273264463912803
1761286305.9565036,-7.33157772011528,-0.1296413301559455,0.9746132127443349,-0.07453384050605276,-3.5578770160406363,0.312904016181239,-0.20437119521233932
1761286305.9664905,-7.343535675277396,-0.12932961988291597,0.9752642556896106,-0.07315932450175927,-3.6258045711036853,-0.09303849720645176,-0.15356685010403698
1761286305.9765065,-7.3534538074723095,-0.12902622711879333,0.9758751860834488,-0.07157859247316682,-3.681709731953531,-0.491527327218979,-0.10319750624114585
1761286305.9865046,-7.361685957319927,-0.1288107555027479,0.9764061083243416,-0.06978809389263496,-3.7250060425332867,-0.8642302324925494,-0.05510557833332547
1761286305.9965026,-7.368804705528792,-0.12876638206201496,0.976815663508876,-0.06778416126061464,-3.7555191531808214,-1.1971609094064053,-0.010109047745862883
1761286306.006505,-7.375564000210814,-0.12896837538406955,0.9770648568723761,-0.06556710888432579,-3.7733776595109783,-1.4824794489401691,0.031800963629639835
1761286306.0164852,-7.382830449595877,-0.12947024701654367,0.9771204485220466,-0.0631453411381127,-3.778854231028432,-1.7198256705237243,0.07112609759651342
1761286306.0264895,-7.391484812621839,-0.13028978289837417,0.976958412068418,-0.06053956195866717,-3.77220581850575,-1.916925677730158,0.10846697843650437
1761286306.0364835,-7.40230062270597,-0.13139751194881757,0.9765680515612439,-0.05778677296557179,-3.753571168627715,-2.0892638202549305,0.1441593680219207
1761286306.0464919,-7.4158114802811514,-0.1327099122115141,0.9759570540181081,-0.054943116472489346,-3.722977855682349,-2.258718283190884,0.1780243320052585
1761286306.056491,-7.432181817445924,-0.13408905894777778,0.9751571160479978,-0.05208430796936146,-3.6804884566427867,-2.4512008970146053,0.20929179708220494
1761286306.0665092,-7.451097739245804,-0.13534962448358312,0.9742287620646009,-0.04930264857624249,-3.6264789362434704,-2.6934911166452937,0.23671711826804293
1761286306.076478,-7.471694940070559,-0.13627329627330723,0.9732629442152227,-0.04670021757249435,-3.5619989866735415,-3.0095816999648197,0.2588649392879332
1761286306.0865016,-7.492539729187841,-0.1366299432045212,0.9723768745275635,-0.044378524743637814,-3.489126136465422,-3.416942465789215,0.2744959302821621
1761286306.0965147,-7.511676268065349,-0.13620409657284507,0.9717028646144382,-0.042425550055691146,-3.411205315806916,-3.9231549648837523,0.2829695847700778
1761286306.1064913,-7.526746909993198,-0.13482420732055997,0.9713712567934752,-0.040901806617645975,-3.3328713621659363,-4.523373285309648,0.2845733906526852
1761286306.1165128,-7.535182566895724,-0.1323908532962411,0.9714906438459616,-0.03982787639622564,-3.259787687805353,-5.1990157441371885,0.28070294068625484
1761286306.1265144,-7.534448159072185,-0.12889936497127588,0.9721295761864469,-0.03917644000622702,-3.1980984275153994,-5.91798039616443,0.2738446015386038
1761286306.1365173,-7.5223178611816195,-0.12445282267289032,0.9733035798244312,-0.03887150977981276,-3.153670603642536,-6.636509465692221,0.267348375624356
1761286306.146711,-7.497148758838542,-0.11926286499311216,0.974969762176158,-0.03879609583756116,-3.131271551118173,-7.30262412376532,0.26501952277480445
1761286306.1565983,-7.4581201503226175,-0.11363748614379353,0.9770292406781039,-0.03880733233382287,-3.133857093641479,-7.860838293867111,0.2705965719483572
1761286306.1665068,-7.405407981446711,-0.10795647560387202,0.9793361280995625,-0.03875602883238824,-3.162121053890565,-8.257667967899716,0.28720912817487737
1761286306.1765013,-7.340269223173922,-0.10263654908713828,0.9817114166259427,-0.03850650449194237,-3.2143817041069083,-8.447310413830548,0.31690917869385615
1761286306.1865087,-7.265019968587628,-0.09808983585333919,0.9839602945149019,-0.037952815725941426,-3.286785772223562,-8.396801392028214,0.3603422663698557
1761286306.1964934,-7.182903713699106,-0.09468089886885092,0.9858913092426868,-0.03702887591751868,-3.3737375331338555,-8.089991779736545,0.4165841793771648
1761286306.2064886,-7.097861245213035,-0.09268829513232396,0.9873352396741757,-0.03571178086201407,-3.4684365890017026,-7.529834420029619,0.48313645910102365
1761286306.2164886,-7.014228529483464,-0.09227664213143494,0.9881612393602264,-0.03401917280191447,-3.5634294025892244,-6.7387245033046375,0.5560633246630559
1761286306.2265306,-6.936401283002853,-0.09348415355464954,0.9882883522921966,-0.032002341202375294,-3.651121518719601,-5.756936404326218,0.6302610359366704
1761286306.2365744,-6.868511192965825,-0.09622834897599614,0.9876917053912007,-0.02973702854360025,-3.7242361595768814,-4.639468774904311,0.69986380885567
1761286306.2464974,-6.814156135388274,-0.10032913100383935,0.9864037508129847,-0.027313853821206865,-3.77623062822325,-3.4517856630830956,0.7587904256908253
1761286306.256599,-6.776214707852398,-0.10554448636757086,0.9845112166672227,-0.024830029577713825,-3.8016943201145184,-2.2650011657933065,0.8014117801549374
1761286306.2665465,-6.756757034574165,-0.11161114222869105,0.9821480271384433,-0.02238343513873831,-3.796750934756256,-1.1510124533897865,0.8232758056308637
1761286306.2765067,-6.757044786622208,-0.11828178671872841,0.97948403945174,-0.020068923435332106,-3.759469765711151,-0.1779743172343152,0.8217806680614003
1761286306.2865226,-6.777599062776751,-0.12535203773742837,0.9767096353570551,-0.017975376820665336,-3.690256307844553,0.5936339685632744,0.7966608794326772
1761286306.2965188,-6.818307717833513,-0.13267323640335624,0.9740171384096599,-0.016181329462130335,-3.5921495476743432,1.114232547818359,0.750156281661227
1761286306.3065064,-6.878543474537655,-0.1401501964251729,0.9715812829452315,-0.014747447882451557,-3.4709197928478988,1.3476315782082557,0.6867708748848946
1761286306.316551,-6.95726893530632,-0.1477256283388124,0.9695418312341872,-0.013705628217324566,-3.334855451626064,1.272802235815785,0.6125896108589689
1761286306.326516,-7.053112549744176,-0.15535491890942443,0.9679914227169466,-0.013046285876582901,-3.1941610922276986,0.8849304498371342,0.5341942560584414
1761286306.3365126,-7.1644091015515015,-0.16297628783541163,0.9669708048184033,-0.012706810780557866,-3.059962792224941,0.19571646644721272,0.4572885844102724
1761286306.3465617,-7.289208039231523,-0.17048208018793076,0.9664720021379131,-0.012564655926332827,-2.943019716398323,-0.7671504119748404,0.385193747463009
1761286306.3565764,-7.4252618235567756,-0.17769704319881896,0.9664481163619244,-0.012438210289048925,-2.852350244030206,-1.9614078869186913,0.31739795613166444
1761286306.3665447,-7.570013274690014,-0.18436880176292192,0.9668268689820387,-0.012097841469091257,-2.7940614307465625,-3.3325356549146186,0.24833796343438627
1761286306.3765693,-7.720604676503786,-0.1901743676722006,0.9675243411391384,-0.011288296365899973,-2.770684439736873,-4.816874228428871,0.1665550985638461
1761286306.3865895,-7.873931500586763,-0.1947445041823826,0.9684559448282007,-0.00976164238643591,-2.7812444857160767,-6.345324713043427,0.05431380061555239
1761286306.39651,-8.026759801212624,-0.19770530224858357,0.9695431941075808,-0.007317036604971179,-2.82213840950888,-7.84728248099719,-0.11228913883142573
1761286306.4065025,-8.175918418879407,-0.19873353384630466,0.9707166347783012,-0.003840633794925948,-2.8886900285929964,-9.254375352541555,-0.3627434250717969
1761286306.4165003,-8.318564989769012,-0.19761941452033516,0.9719166281765804,0.0006626599171532585,-2.9770565680698255,-10.503581603716276,-0.7311120195697959
1761286306.4269385,-8.452509330500883,-0.19432791778975453,0.9730941358174107,0.006052946472376276,-3.086027648553716,-11.539422003758181,-1.2546175737136034
1761286306.4365566,-8.576562031134616,-0.18904866965753553,0.9742131148103942,0.01205856808556878,-3.2182348107888967,-12.315133717069799,-1.9718343069516096
1761286306.4465199,-8.690864112246029,-0.18222521658176846,0.9752547793514782,0.01829843971011798,-3.380386879904584,-12.792982039655728,-2.920470468791533
1761286306.4565537,-8.797147989756544,-0.1745565901239994,0.9762222668832218,0.024319876093213413,-3.582341978122333,-12.944078249894911,-4.134734474634218
1761286306.4666834,-8.898880759559036,-0.16696667063673046,0.9771429655402611,0.029647179211219038,-3.8350692925937775,-12.748186709875652,-5.642325189831552
1761286306.4767454,-9.001247295433329,-0.1605397689585431,0.9780657193034077,0.03383652307183804,-4.147784047274926,-12.19398120089405,-7.4611709567963675
1761286306.4867606,-9.110943912522684,-0.15642493042534433,0.9790514277673327,0.03653282200886215,-4.524719440918302,-11.280047415329022,-9.596147657098621
1761286306.496597,-9.235775668571748,-0.1557172501938708,0.980157416143088,0.037523454334928666,-4.962119031117767,-10.01666272526677,-12.036107840699282
1761286306.506546,-9.38408179962941,-0.15933093827109654,0.9814174660856149,0.03678225222267473,-5.446084749259379,-8.428073815492313,-14.75162824256418
1761286306.5165482,-9.564048950029697,-0.16788346150687472,0.982820310396874,0.03449589468027359,-5.9518700777651,-6.554710137983092,-17.69391688516144
1761286306.5266051,-9.783000432268166,-0.18161030998081146,0.9842900125719422,0.031064662791962284,-6.44502254809334,-4.454607755123181,-20.79528792133334
1761286306.5367625,-10.046760917612678,-0.2003249650259462,0.9856721523869595,0.02707143073460643,-6.8844397848247265,-2.2033591812367637,-23.971476059948824
1761286306.5465982,-10.359183979055947,-0.22342989408596076,0.9867298399797992,0.02321735498093939,-7.226961523268486,0.10783269138171615,-27.125815575003696
1761286306.556526,-10.721897414523308,-0.24997484692582533,0.9871529996572139,0.020229383268534486,-7.432700692416211,2.376023914468931,-30.155003036362338
1761286306.566596,-11.134278288749659,-0.2787514476001286,0.9865830334925861,0.018751761214916587,-7.470069061369054,4.491966768046929,-32.95587898862231
1761286306.5765393,-11.593628686181638,-0.3084094740797177,0.9846527143527838,0.019239255112259507,-7.319483535453949,6.346492100418124,-35.432464911837506
1761286306.5867174,-12.095493925270096,-0.3375795280852794,0.9810379242403022,0.021872274871811915,-6.975068322432567,7.837095287267239,-37.50242180985571
1761286306.5965476,-12.634052000728104,-0.3649876271901109,0.9755143087888922,0.026512385530935496,-6.4442128870642055,8.874017365036096,-39.10218708049158
1761286306.606521,-13.202506708554715,-0.3895494241641393,0.9680091403498152,0.03271025289227377,-5.745417803346304,9.385283164368667,-40.19028382956327
1761286306.616647,-13.793434824929385,-0.41043594562122915,0.9586375203280808,0.03976752329869269,-4.905225413687158,9.320421164120669,-40.74861330783318
1761286306.6266124,-14.399064440024684,-0.42710837109214816,0.947713129430299,0.04684228329801559,-3.955045672366896,8.652869733938225,-40.78185177232733
1761286306.636525,-15.011488725192827,-0.43932422607862,0.9357276116374803,0.05307842246303273,-2.928401815061835,7.381281603988541,-40.3153057694351
1761286306.6465247,-15.622838242692044,-0.44711970921500654,0.9232991196815704,0.05773485285971487,-1.8587369924447583,5.529996828794818,-39.39168749809614
1761286306.65657,-16.225440322106348,-0.4507730083235238,0.9110975654231825,0.06029155837434662,-0.7776466409956324,3.1488394768355583,-38.06725048370297
1761286306.6665509,-16.811986758886025,-0.45075288784093914,0.89975892228709,0.06051525550107914,0.28666698927165524,0.31216062565018926,-36.40761845476735
1761286306.6765544,-17.375716083474423,-0.44765673936712774,0.889802278558043,0.05847643952677833,1.310806498283334,-2.8831729329216786,-34.48351272700829
1761286306.6865137,-17.910600141457564,-0.44214291987698906,0.881561947273722,0.054519182309095054,2.277359062771108,-6.3212277309640985,-32.36648790546242
1761286306.6966698,-18.411512275312408,-0.4348631036642804,0.8751438720430263,0.049192908420233175,3.1756190935573723,-9.872165484211445,-30.124740004275637
1761286306.706534,-18.874349700627658,-0.4264009352412207,0.870411559561572,0.04316032029461715,4.001635402485615,-13.399139474863572,-27.819048978265684
1761286306.7165356,-19.296086569074905,-0.4172230200727604,0.8670025155456118,0.037097442502454434,4.757489047496856,-16.766638712852586,-25.498951111890435
1761286306.72656,-19.674744290484185,-0.4076467725382611,0.8643722462315584,0.031601008665115025,5.449881172189127,-19.849709067312013,-23.199295114113703
1761286306.7365627,-20.009277414512475,-0.3978266642547513,0.8618597481652097,0.02711633500818979,6.0882719985379525,-22.543256114333722,-20.937402263237026
1761286306.746536,-20.29938308343117,-0.3877569518203119,0.8587665647392563,0.023896108157508717,6.68293414676498,-24.770456879566087,-18.711113987131814
1761286306.7565458,-20.54524928835711,-0.37728697351332835,0.8544412594584393,0.02199659344960815,7.24335014797756,-26.48917453260181,-16.49806101544933
1761286306.7665372,-20.747263542023873,-0.3661457300432589,0.8483623164327121,0.021311817060395567,7.777375286329195,-27.695239006163547,-14.25651023216821
1761286306.776568,-20.905710297313497,-0.35397514887458503,0.8402144996668836,0.021638568383744738,8.29147709112047,-28.42160492270025,-11.92811970086661
1761286306.7873247,-21.02049246961929,-0.3403749411043443,0.8299557315945642,0.02275719555412447,8.792132221768242,-28.732769181051534,-9.442837207395963
1761286306.7984765,-21.090918887186024,-0.32496470366526664,0.8178721137085466,0.024507622455777905,9.288117730524712,-28.71442692242146,-6.7259916981418915
1761286306.8069592,-21.115602890575502,-0.3074681692523671,0.8046166034973928,0.02683963415051562,9.793044659428134,-28.459116036202612,-3.707354346558148
1761286306.8165963,-21.092513103525686,-0.2878177390053545,0.7912227893148633,0.029822929168047654,10.327195975004361,-28.049419575728326,-0.3316181314835747
1761286306.8265526,-21.01920163058252,-0.2662658250117976,0.7790818490521151,0.0336141156978504,10.917720858314029,-27.540982795804087,3.430600779589119
1761286306.8365831,-20.89320804828374,-0.2434785708387758,0.7698708583188306,0.03838989235965154,11.596573426597754,-26.947995285425684,7.572448525350573
1761286306.8470373,-20.712605328669973,-0.2205829471319701,0.7654250531729259,0.04426357303766549,12.396161116543661,-26.23380197197315,12.042617251289162
1761286306.8565748,-20.476624454859163,-0.199142182399827,0.7675544362107438,0.051204790201350096,13.343275961447368,-25.308930214689617,16.74066731555097
1761286306.8665295,-20.18627455124622,-0.18104544703301867,0.7778145315154312,0.05898079299922936,14.4523390745428,-24.038089697983356,21.517168859598574
1761286306.8765435,-19.844867532120343,-0.16831235717627638,0.7972510789491737,0.0671330426982445,15.719212368525856,-22.25667267477156,26.179607687699477
1761286306.8865614,-19.45835984289937,-0.16282806073441197,0.826148634487198,0.07499535409392032,17.116821420493956,-19.796004685125663,30.50448312563939
1761286306.8965342,-19.03543695079826,-0.16603856939748077,0.8638225304917588,0.08175111916185003,18.59363124918619,-16.515107707387497,34.255320689462685
1761286306.9065428,-18.587287480607845,-0.17864773613673746,0.9085003806158025,0.08651918008883012,20.07568488624769,-12.335143169945773,37.20546386050891
1761286306.9165447,-18.12704290100615,-0.20036581701359193,0.9573400718902254,0.08845251675858382,21.472502630179626,-7.271289804747521,39.16358180220448
1761286306.9267664,-17.668895734759605,-0.22976295937564292,1.0066216676016142,0.08683247215770262,22.68664370413028,-1.4560219215738002,39.99897800148403
1761286306.9366136,-17.2269535884779,-0.26427606989182834,1.0521271949431457,0.0811437079416014,23.6261189511215,4.852012923853661,39.66320093167952
1761286306.9466262,-16.813933147728193,-0.30040036939709175,1.08968502870246,0.07111982454146162,24.218144626577224,11.277850309276227,38.20431552389809
1761286306.9565382,-16.439838396138757,-0.33406465733511753,1.115809133738779,0.056755856418296,24.42208703782122,17.360426479088893,35.77061338201411
1761286306.9665267,-16.110790015806636,-0.3611435356056288,1.1283168708444538,0.03829287228874788,24.23908141599176,22.60108066478552,32.60161953436917
1761286306.9765332,-15.828170155174314,-0.3780113232212875,1.1267791356328014,0.01619069705489654,23.71593937060046,26.524189166532228,29.006056546191534
1761286306.9866066,-15.58821615227679,-0.38201393910324394,1.1126667168818913,-0.008890031424825008,22.941728498183526,28.74041505599511,25.32882113007574
1761286306.9965289,-15.382144416582475,-0.3717532013201852,1.0891212575437037,-0.036085225950022656,22.036741623401003,29.00173038221014,21.911487899827677
1761286307.0065806,-15.196824633339677,-0.3471474269723248,1.0603832732482932,-0.06431779727328828,21.13515058519466,27.238917046590167,19.052534613007996
1761286307.0165305,-15.01596532957804,-0.30931593258051254,1.031010807794863,-0.09231816865612853,20.36405498998971,23.57618135342589,16.97372074569823
1761286307.0266066,-14.82171385325497,-0.26037779457030513,1.0050772997738997,-0.11871258304306993,19.822584052897955,18.322054858323806,15.797821521783538
1761286307.036528,-14.596512739838158,-0.20323629719968042,0.9855289811317999,-0.14219026610586535,19.564994642477846,11.939195559817938,15.540709730654712
1761286307.0465193,-14.325000852800237,-0.1413712948246584,0.9738233512728646,-0.1617221908696466,19.591187443404063,4.997645085409934,16.118158904324336
1761286307.056527,-13.99572758167359,-0.07862678531320452,0.9698887494622618,-0.17677479534347548,19.84671355548949,-1.8828199168998336,17.36521709166553
1761286307.0665379,-13.602477966634234,-0.018975859200890708,0.9723681044286444,-0.18745302773727138,20.23240471123453,-8.094848915332854,19.064070986582937
1761286307.0765412,-13.145071817251013,0.033743049066444375,0.9790563479614239,-0.19452078262634134,20.6217201836169,-13.103453066637982,20.975388996490203
1761286307.086562,-12.629568615210394,0.07611114727745179,0.9874179453378141,-0.19927946110766961,20.882309635348324,-16.49731222410328,22.868296605195802
1761286307.0967884,-12.067861548047926,0.10541662757007694,0.9950755420582468,-0.2033266672829863,20.89754805628429,-18.02609631043923,24.545156727610927
1761286307.1065319,-11.476681561053255,0.11991529749501678,1.0001852462872203,-0.2082514148164338,20.58406367675865,-17.620054839895857,25.858792443807797
1761286307.1165404,-10.876072297417537,0.11902835709353679,1.0016506590428602,-0.2153367508020825,19.902434352192945,-15.390162096496457,26.721305613283267
1761286307.126546,-10.28745213593725,0.1034409412318513,0.999168114070963,-0.22533240393038198,18.859907725949544,-11.609402488568191,27.104925360172427
1761286307.1365263,-9.731447465357821,0.07507414732206077,0.9931303886302969,-0.23833614452779342,17.505706215395513,-6.678049879646344,27.036211549831634
1761286307.146515,-9.225741413045988,0.03692126229112906,0.9844377450014108,-0.2537945900432539,15.920763897748426,-1.077632444978641,26.585416282096052
1761286307.1567242,-8.783207826225825,-0.007238516464633929,0.9742709200467093,-0.2706109892587764,14.204383860004425,4.680644938375897,25.85294682911711
1761286307.1665654,-8.410575691455946,-0.053215019830888555,0.9638730759240804,-0.2873318949869805,12.460328330272871,10.107019660374526,24.95479260858229
1761286307.1765404,-8.1077982370335,-0.096823893247042,0.9543720132020669,-0.3023759288174858,10.784432913263322,14.778363863622966,24.008570811985887
1761286307.1865458,-7.868202219197263,-0.13429524480227265,0.9466562898560495,-0.3142656370633546,9.2551723450354,18.373113929915625,23.12155486027419
1761286307.196591,-7.679387765709604,-0.16262898945522744,0.9413049161187884,-0.3218278413330853,7.927879016945509,20.693108644336544,22.38168503454679
1761286307.2065263,-7.524753138278396,-0.17986025527977917,0.9385630714807857,-0.32433762985439435,6.832663765776405,21.671147070174232,21.85212122228641
1761286307.2165437,-7.385441388895097,-0.18520776403333997,0.938355062805602,-0.32159327282961564,5.975583968001602,21.36466273687444,21.569405366895598
1761286307.2265627,-7.2424558236621515,-0.17908984501230144,0.9403271203793031,-0.3139207806566811,5.34226766408422,19.93733408426544,21.54481813882374
1761286307.2365763,-7.078677467017828,-0.16300858252250233,0.9439134396061701,-0.3021156588065562,4.903033380639266,17.63162875493268,21.768128355987013
1761286307.2465687,-6.880544717041148,-0.13932100749414986,0.9484181612232717,-0.28733534969495284,4.618535451391581,14.736113367062995,22.21271915225476
1761286307.2565606,-6.639218672884322,-0.11093268061783437,0.953104528135697,-0.27095951431659027,4.445098299189872,11.55172550359239,22.841063800728207
1761286307.2665353,-6.351144180524747,-0.08095881560773421,0.9572812718078698,-0.2544369688658065,4.339149916746026,8.360994419814062,23.609697167874376
1761286307.2765641,-6.018008079187874,-0.052398590934605395,0.960376180231093,-0.2391375059211201,4.260469788118976,5.4034180774332805,24.4731242790986
1761286307.2865381,-5.646174744487789,-0.027860362804479715,0.9619885110004656,-0.2262242254756412,4.174253804579414,2.8590091769075214,25.386446309909257
1761286307.296536,-5.245733726537681,-0.009362930743800154,0.9619154510005126,-0.21655807884353678,4.052198892188286,0.8406568957375236,26.306794454392616
1761286307.306539,-4.829320444251316,0.0017759569590245932,0.9601521618829645,-0.21064133865482298,3.872892601891063,-0.6053213906792083,27.193891300226785
1761286307.316569,-4.410867359712167,0.00496675557432651,0.9568688740587153,-0.20860093155423612,3.6217720831321483,-1.4920294954706468,28.010182630603143
1761286307.326553,-4.004413916223797,0.0003058559182479595,0.95237128519135,-0.2102074588637544,3.290831458663845,-1.8803785299600884,28.720999247954357
1761286307.3365526,-3.623061090768695,-0.011515070610050757,0.9470516541194778,-0.21492312340955508,2.8781521392214335,-1.8652531269634705,29.29512534413327
1761286307.346559,-3.2781166592134174,-0.029328490107233002,0.9413370575870024,-0.22197198711494537,2.3872522073517994,-1.56143704423161,29.705976091934726
1761286307.3565514,-2.9784502341516963,-0.051625247407434696,0.9356388891104465,-0.2304273811753103,1.8262319184823481,-1.0907792973322954,29.933348674774777
1761286307.3667467,-2.7300621163976633,-0.0766941714287367,0.9303057411186662,-0.2393117169523856,1.2067361645178347,-0.5715245810171702,29.965463277891
1761286307.3766186,-2.535859487038308,-0.10275782014973386,0.9255820908165213,-0.24770232011134258,0.542829925551723,-0.11025423569577704,29.800828639254117
1761286307.3865418,-2.3956214033532777,-0.12809279880534785,0.9215773984989198,-0.25483394050988545,-0.15006049378319222,0.20346739740270095,29.449414002583087
1761286307.3965867,-2.3061214579611864,-0.15112277719547584,0.9182520323331526,-0.26018616656359805,-0.8559895813621691,0.2999123000052728,28.932700406698007
1761286307.4065695,-2.2613705107852184,-0.17047728842421758,0.9154259176046924,-0.2635436980941766,-1.559033537307704,0.12988426005745993,28.282374623670773
1761286307.4165757,-2.2529476830780664,-0.1850186430180005,0.9128131585429753,-0.26501966587416814,-2.2435413119904744,-0.33607887928029473,27.53764680184638
1761286307.4265685,-2.2704054592601857,-0.19384849518904876,0.9100824197941589,-0.26503625707365636,-2.8941850936587916,-1.109219214402076,26.741365358220193
1761286307.4365532,-2.301756058825224,-0.19630993380908016,0.9069391324715038,-0.2642618384567564,-3.49593863522116,-2.184010274728693,25.93525839252921
1761286307.4469128,-2.3340599920481875,-0.19199851884218827,0.9032214444877119,-0.2635090170760953,-4.034125878201497,-3.5389497681626976,25.154763597294245
1761286307.4567747,-2.3541373233522718,-0.18078882387672954,0.8989975275321237,-0.2636036943080486,-4.494696012941857,-5.136451438696909,24.424023922513648
1761286307.4665415,-2.349407225407692,-0.16287524231081452,0.8946480471638293,-0.26524087386537043,-4.864897421191626,-6.922054287682274,23.751706654120383
1761286307.4766834,-2.308832436999237,-0.13881778336777828,0.8909149244146923,-0.2688473640086437,-5.134509771011571,-8.823632917684314,23.128320807317316
1761286307.4865878,-2.2239027513470466,-0.10957511476622371,0.8888971062474998,-0.2744728956967543,-5.297707502321286,-10.75165028473896,22.525634704789848
1761286307.4965534,-2.0895435250263414,-0.07650158119662753,0.8899780811195659,-0.2817289924105154,-5.355456585588353,-12.601622585664748,21.89860835984366
1761286307.506604,-1.904800809273656,-0.04128831265162778,0.8956802560887471,-0.2897895560407664,-5.318123385098762,-14.259741597955333,21.189941453434727
1761286307.5165684,-1.6731559181210496,-0.005842791479936833,0.9074571413043723,-0.29745909882926314,-5.2077608695968705,-15.611963230940335,20.336913776738193
1761286307.5265715,-1.4023680194891663,0.027879250301915705,0.9264506486926747,-0.30330473774970657,-5.059402579252792,-16.555930125081158,19.27972469214126
1761286307.53658,-1.1038233165932692,0.05806008584035005,0.9532513608134394,-0.30583793093785566,-4.920707939357472,-17.014139548986307,17.970137556509293
1761286307.5465336,-0.791460696827009,0.08318925514223603,0.9877013295659524,-0.30372266481010113,-4.8495135911284715,-16.946130841215563,16.379040757332607
1761286307.5565507,-0.480422032253978,0.1021859687848572,1.0287740691616278,-0.2959792635242912,-4.909245735638973,-16.35736213372452,14.501640975897654
1761286307.5665767,-0.18562168108143642,0.11445825068338132,1.0745586878824076,-0.28214910172299523,-5.162645679989662,-15.302905799456859,12.359401480595391
1761286307.5765417,0.07956614640636535,0.11989940375219281,1.1223647249645536,-0.26238826288888967,-5.664703197244246,-13.884996603706837,9.998426718099898
1761286307.5866723,0.304339890566647,0.1188367534843237,1.1689484756633197,-0.23746923009936452,-6.455932481549085,-12.244573102513662,7.484617321476911
1761286307.5965393,0.4811233598570681,0.11195381544424053,1.2108400534600616,-0.20868713232695638,-7.557084350360426,-10.547949366384215,4.896418765631578
1761286307.6065392,0.605808190349321,0.10020401966754805,1.2447276374848675,-0.17768626264476803,-8.96609301351394,-8.970393854557273,2.316263051196929
1761286307.6165462,0.6776161458648524,0.08472636982040548,1.2678386121521392,-0.14623852975763377,-10.657629160847142,-7.6786192862504254,-0.17814513606039412
1761286307.6265538,0.6986560002869203,0.06676670900756926,1.2782537077855047,-0.1160142297537456,-12.585221838188744,-6.814122043925369,-2.5216531217345928
1761286307.6365478,0.6732760422309478,0.047605266522666286,1.275103275985301,-0.08838484967320152,-14.685601223713817,-6.479114825427025,-4.667750762465971
1761286307.6466293,0.6073209340650841,0.028490966756692413,1.2586214965038012,-0.06428839709520302,-16.884685738276957,-6.726553830973568,-6.592330851299697
1761286307.656536,0.5073924958762152,0.010583299374264698,1.2300655189174121,-0.04417378215789236,-19.104437842247535,-7.555436767778925,-8.294798257373964
1761286307.6665366,0.3801920111451117,-0.005098211286024249,1.1915314743439578,-0.028025881770275984,-21.26964904200923,-8.912043111501788,-9.796508324019147
1761286307.676548,0.2319925910133035,-0.017718386196746323,1.145711025181323,-0.015458839223388188,-23.31367100793139,-10.697050480162213,-11.136853941827473
1761286307.6865418,0.06826021130596262,-0.02666662081992493,1.0956302759267043,-0.005853457443309501,-25.18227440964939,-12.777566689094638,-12.367667790505099
1761286307.6965516,-0.10658327700021561,-0.03159363168088039,1.0444019553458652,0.0014915340173370154,-26.835188157382238,-15.002282358891733,-13.54686752722746
1761286307.7065492,-0.2892785656817749,-0.03244259996484551,0.9950080455040594,0.007222695601922544,-28.24534974270831,-17.21745576513744,-14.732334596463513
1761286307.7165422,-0.47775830892527815,-0.029469438768107863,0.9501190499772172,0.011829924831764429,-29.39635278484844,-19.28148247804036,-15.97683448157612
1761286307.726546,-0.671114043001026,-0.023244952647554395,0.9119506852988991,0.01558991633672592,-30.278906006685727,-21.076346710479065,-17.32441834198183
1761286307.7365417,-0.8695193033371527,-0.014632444109798831,0.8821580141261675,0.01855717820236926,-30.88725764631366,-22.515076587638774,-18.808332008809337
1761286307.7465427,-1.0741200864892382,-0.004737848788093227,0.8617678747114689,0.020598200568770327,-31.216476346679215,-23.5451681087352,-20.450138242360666
1761286307.7565985,-1.2868986319504934,0.005166223811461931,0.8511505155601362,0.021459341581176853,-31.261234617137333,-24.148598866843972,-22.259607642903774
1761286307.7666285,-1.510512957606579,0.013738083010151784,0.8500301276342106,0.020855495569013408,-31.01635667086714,-24.339402335188353,-24.23495794601062
1761286307.7765617,-1.7481117024607096,0.01968002385473652,0.8575324966551618,0.018564962083947808,-30.478935019427613,-24.159791626984013,-26.363181759431953
1761286307.7865565,-2.0031219627643386,0.021859428189090542,0.8722674625068718,0.014516005655342688,-29.651386148384002,-23.675576884362933,-28.62042804597284
1761286307.7965438,-2.2790080258743233,0.019429071099099884,0.8924438918856971,0.00885159016630537,-28.544520317849475,-22.971244121700018,-30.972604467220776
1761286307.8065517,-2.5790021775360064,0.011936302760492744,0.9160134319152553,0.0019603807576376838,-27.17963651472722,-22.144703502211062,-33.37647776158897
1761286307.8165545,-2.905815814482272,-0.0005912073030246259,0.9408351598495398,-0.005534611681161162,-25.588845611335998,-21.301481139713236,-35.78154509843882
1761286307.826576,-3.261349998791975,-0.017598311056868342,0.9648476458832282,-0.012832356635885344,-23.81322871384223,-20.54805597209678,-38.13284051517948
1761286307.8365452,-3.646437434077465,-0.0380112024175814,0.9862305635519847,-0.019049565686031503,-21.89897043352396,-19.98412543587841,-40.37464758690386
1761286307.8465836,-4.060657892413504,-0.06031742710368688,1.0035368891526184,-0.023341785983452486,-19.892157801396582,-19.693827012400124,-42.45485198259638
1761286307.8566282,-4.502270162475689,-0.08272207732944328,1.0157799254275528,-0.0250287223051076,-17.833367895169577,-19.73635392821994,-44.32945126495929
1761286307.8665593,-4.968291279815107,-0.10336745520842731,1.0224668171046831,-0.023699684298475594,-15.753345241709324,-20.136924886155906,-45.96660873965175
1761286307.8769765,-5.4547287847377826,-0.1205840120501771,1.0235801257890214,-0.01927805321099361,-13.67090606658737,-20.879548163257237,-47.34963058858807
1761286307.8865702,-5.956940383038206,-0.13312718709086588,1.0195179437104573,-0.012032367679573741,-11.593708566885708,-21.90325568225128,-48.47836392824277
1761286307.8965764,-6.470067470709766,-0.14035386218559867,1.0110076746858168,-0.0025332835478263146,-9.521823100440841,-23.10330894548012,-49.368724346486644
1761286307.9065728,-6.9894734705684645,-0.14230427592751435,0.999008084305821,0.00843324289536656,-7.453326647585714,-24.33826221590847,-50.05031419481647
1761286307.9165921,-7.511118757034657,-0.139675803235058,0.9846105220145033,0.01997841829602236,-5.3906278673360095,-25.442826183366297,-50.56234920390711
1761286307.9265852,-8.03181914873988,-0.1336971694916596,0.968946491251174,0.031227617420437975,-3.3460322165529206,-26.24541448826824,-50.948343689366915
1761286307.936566,-8.549359310355646,-0.1259300409306023,0.953106572471325,0.04142271313211069,-1.3452217825352952,-26.58829038949191,-51.2501845440717
1761286307.9465616,-9.062460265152906,-0.11803661839713532,0.938074383623077,0.04999591147225839,0.572205626059716,-26.34754763428464,-51.5023290836592
1761286307.9565578,-9.570626271966345,-0.1115553426909139,0.9246775323469156,0.056608124060979106,2.3553587298016914,-25.449918286007573,-51.72688527544433
1761286307.9665675,-10.073915790536244,-0.10772152913472871,0.9135550035278994,0.06115153536562318,3.9474228359231,-23.883707747083104,-51.93027242584556
1761286307.976593,-10.57269077504334,-0.10735715053931251,0.9051375210355718,0.06372161342162874,5.29286097147822,-21.701998890923893,-52.10200449592966
1761286307.986574,-11.067396953226169,-0.11083791423889718,0.8996348942607075,0.06456800998638097,6.345232585335584,-19.01748268494736,-52.215878007234735
1761286307.99656,-11.558416026881936,-0.11813040899335861,0.897023447342014,0.06403597803829744,7.074352229268605,-15.989616648951365,-52.233503435438855
1761286308.0067952,-12.046011214979819,-0.1288799099549218,0.8970286147278843,0.06250936137723431,7.471661116208106,-12.806019687228215,-52.10975202523085
1761286308.016583,-12.530363695523306,-0.14252188576874722,0.8991027578573686,0.06036313767683286,7.5530101962254985,-9.660823950305819,-51.79936942200132
1761286308.0265753,-13.011674035766786,-0.15838932715694626,0.902404548956421,0.057929501824475385,7.358512020464052,-6.7329418366521665,-51.26378825276857
1761286308.036581,-13.490285108522357,-0.17579507270167913,0.905791641537366,0.055478002343105536,6.949637664000659,-4.166878103131241,-50.47708972604973
1761286308.0465674,-13.966775582970707,-0.19408147603134762,0.9078415212914259,0.053207452411694695,6.404195760393237,-2.0580184695873105,-49.430136992729416
1761286308.0566072,-14.44197752167944,-0.21264415098311165,0.9069160097060579,0.05124511000043761,5.8101190748103315,-0.44351355571388634,-48.132120149485246
1761286308.0665605,-14.916887186780025,-0.23094723364439304,0.9012821444068805,0.049647579900329586,5.259049764834107,0.7008301890184457,-46.60907844692838
1761286308.0765877,-15.392462299271486,-0.24855132447796244,0.8892949852873878,0.0483984620991685,4.840580744889188,1.4576992079806794,-44.89935965828496
1761286308.0866039,-15.86932694397978,-0.26517005667760807,0.8696364389068266,0.04739943486302108,4.637746700598939,1.959687404258641,-43.04640849943898
1761286308.0965743,-16.347430062386124,-0.2807569636745289,0.8415905555250193,0.04645381293365305,4.724035367177761,2.375205470287995,-41.08971421055406
1761286308.1065764,-16.82571768119755,-0.295604333063649,0.8053226474769777,0.04524513768198407,5.161846415637296,2.8891356394864536,-39.05515455176936
1761286308.1165946,-17.3018781989146,-0.31041707485013803,0.7621191558556751,0.043318447535008554,6.001986689997779,3.6787452030280203,-36.946303150721114
1761286308.1265864,-17.77220464974603,-0.32631536338461503,0.7145392714318096,0.04007760878016676,7.283511114374975,4.886048019121762,-34.73844630675859
1761286308.1382287,-18.231592857121257,-0.34472500981526666,0.6664295669021644,0.034815577072023866,9.033079214325467,6.588916781734686,-32.37698131970367
1761286308.1465669,-18.67366728046995,-0.36713415727990645,0.6227605874514209,0.026791714704647578,11.263067207874094,8.774592219420217,-29.78144392752599
1761286308.1565747,-19.09100507130384,-0.39472487681288776,0.5892606085241755,0.015359375608428746,13.967984976402317,11.320389951512908,-26.855590399819533
1761286308.1665819,-19.475419572586652,-0.4279228329285925,0.5718475745593576,0.00013073527845253123,17.11925951640725,13.98687745753969,-23.502794528746474
1761286308.1765494,-19.81826918206517,-0.46594117076701325,0.575894948818463,-0.018850011358140756,20.659056249084255,16.428169391285703,-19.644714134148366
1761286308.186596,-20.11077242981493,-0.5064191740975097,0.6054070086319018,-0.04096512905800889,24.4944011134156,18.222065152696366,-15.24006120845468
1761286308.1965857,-20.344327266301274,-0.5452647291697472,0.6622167325515076,-0.0649579452102539,28.493344644617366,18.919645267830564,-10.299719497121902
1761286308.206754,-20.510843551873077,-0.5767964454736761,0.7453455690512819,-0.08898354012337141,32.485139965937435,18.110128858268798,-4.894654965873105
1761286308.216675,-20.60309806451663,-0.5942440757517641,0.8506703080782609,-0.1107994145680369,36.266204007657194,15.492988069846358,0.8458469867490526
1761286308.2265859,-20.615111874172648,-0.5906064647748663,0.9710214449371645,-0.12809180617139512,39.61288472703266,10.946283356781908,6.746262739410613
1761286308.2366292,-20.54253462667567,-0.5597903584844068,1.0967860031021028,-0.13889773592875648,42.300842907168175,4.5786736459860125,12.605733088145929
1761286308.2465801,-20.38300315869775,-0.49787016079810487,1.2170052478172015,-0.1420500648470966,44.129381170050095,-3.2467318896835917,18.22434128220052
1761286308.2565818,-20.136427418474355,-0.40423229497684987,1.3208473906230718,-0.1375534694482496,44.94753507349651,-11.925163919843373,23.429980074740907
1761286308.2665987,-19.805151603384946,-0.28232184126872756,1.3992100599364472,-0.12679670930721074,44.67745273894579,-20.662357895629416,28.100563798685723
1761286308.2767327,-19.393949144615256,-0.13972916430088422,1.4461061223076273,-0.11251788316322983,43.3299822768474,-28.56163606751358,32.17695938133707
1761286308.286609,-18.90983704989319,0.012524896584124898,1.4594796965941577,-0.0984707762002692,41.00802462321438,-34.734221645111774,35.66379324842776
1761286308.2965853,-18.361730249246254,0.16142991450447902,1.4412398186593118,-0.08880954121560433,37.89539008337277,-38.41545833563448,38.6180874588815
1761286308.3066213,-17.759986918471764,0.2938454675495755,1.3965473407434024,-0.08731026720322402,34.232224191467836,-39.06725408420841,41.12887865074166
1761286308.3166566,-17.115908876934192,0.3983482482275629,1.3326164544372996,-0.09662934375836801,30.281464245647953,-36.44923004224903,43.29345004217811
1761286308.3265789,-16.44125235888874,0.46668352972925214,1.257383017224529,-0.11780156458554937,26.29307644012972,-30.647542596956296,45.19639662105959
1761286308.3366017,-15.74778145881828,0.494604295702317,1.1783400780597948,-0.15009855476133221,22.473343296108293,-22.059151520190113,46.89608279924362
1761286308.34659,-15.046875025478734,0.4820587380111587,1.1017177400398304,-0.19124655389713155,18.96516352240483,-11.337528210517405,48.419946277630544
1761286308.35658,-14.349189061310662,0.4328101447095864,1.0320597772881195,-0.23789918651533293,15.84252083360535,0.6887419353382382,49.7670310261273
1761286308.3665802,-13.664380008261576,0.3536394038858333,0.972156008924312,-0.2862110136492488,13.118652652057834,13.110884845688082,50.91436238476065
1761286308.3765903,-13.00090084893449,0.2533065969164266,0.9232356000780585,-0.3323681251196768,10.764053833991504,25.035388960072,51.823778478785904
1761286308.3866076,-12.365883861676501,0.14144311679325594,0.8853109881319207,-0.3729872026309561,8.728385267817155,35.669209844078935,52.44723052288467
1761286308.39661,-11.765118041644671,0.027514993442035236,0.8575747409597274,-0.405364222025309,6.960228879126297,44.386855803434315,52.730456373001864
1761286308.4065793,-11.203115393546447,-0.08004486736976449,0.83877583307234,-0.427604840534708,5.420286153286861,50.774385310812775,52.61635807291691
1761286308.4165783,-10.683240237910205,-0.17447734356836925,0.8275263105997235,-0.43868164649043967,4.086307237014052,54.64800383545319,52.0498142805282
1761286308.4265776,-10.207854658948406,-0.25108247015697027,0.8225125470528499,-0.43844564331575625,2.950753255974349,56.047387995231354,50.98505509840863
1761286308.436573,-9.778419445533174,-0.3073448074114196,0.8226077310438583,-0.4275938360891976,2.014020355273835,55.20619915068966,49.3955517562551
1761286308.446601,-9.395490884282239,-0.3428153926103442,0.826900766681436,-0.4075813910083434,1.2765297955666766,52.504531498350794,47.285141878401916
1761286308.4568553,-9.058574051329314,-0.35878868046808027,0.8346675943950078,-0.380470794663325,0.732299842671372,48.41010500853015,44.698207532352534
1761286308.4666364,-8.765832702254414,-0.3578347072564242,0.8453130962257986,-0.34872495502271583,0.36538955435019227,43.41640612970147,41.72636143485856
1761286308.4766538,-8.513707121254527,-0.34326348868001577,0.8583070807580039,-0.31496584912775677,0.14946299243370545,37.986189616787364,38.50935460068537
1761286308.4866168,-8.296539440298874,-0.31860405955082927,0.8731295501466726,-0.2817280494975057,0.04997771206038607,32.50756824324874,35.22876357499585
1761286308.4966106,-8.106334083324652,-0.287171966443684,0.8892319509671515,-0.2512360698167874,0.028156662387196472,27.267536439415913,32.09430135444768
1761286308.5066164,-7.932778342466699,-0.25177813423331874,0.9060152865132366,-0.22522905902128876,0.045813922449623457,22.444687043089377,29.32405729172878
1761286308.5166364,-7.763614489690624,-0.2146032709350736,0.9228240651172531,-0.20484971024189952,0.07013708715969795,18.119674082922806,27.121251791942196
1761286308.5266593,-7.585399323427518,-0.1772315070828864,0.9389555616506585,-0.1906077706223914,0.0776273626435853,14.29921200672061,25.650857774302146
1761286308.5366046,-7.384621652277063,-0.14081021924645842,0.9536836955211859,-0.18242060484469416,0.05656886209320468,10.94753389664749,25.019525047940046
1761286308.5465908,-7.149081426425724,-0.10628209591205048,0.9662945000885503,-0.17972179693152646,0.007647825321685949,8.018511783527964,25.26168988697223
1761286308.5565796,-6.869370923976133,-0.07462130041360408,0.9761270887300011,-0.1816154261877801,-0.05736282341581847,5.482106541687112,26.333751010256773
1761286308.5666068,-6.540245905676524,-0.047001705707100716,0.9826128524323839,-0.18704420917170347,-0.11865873539943271,3.3403423206380274,28.11699905301203
1761286308.5771005,-6.16164676349637,-0.02483723642366675,0.9853080594798402,-0.19493931850814789,-0.15278673869233844,1.630355597661924,30.428835005892253
1761286308.5866053,-5.739143156669128,-0.009664546578846286,0.9839203319607187,-0.20432876977926237,-0.13779241700470019,0.4148697206651227,33.04084634875539
1761286308.5966082,-5.283641075998424,-0.002881274005167979,0.9783341568739587,-0.21439587300421037,-0.05846249144605642,-0.2368574508148762,35.70157984538851
1761286308.6066012,-4.810303999324723,-0.005396479686600047,0.9686407681231941,-0.22449376410284141,0.08909849765759596,-0.2726052143788001,38.16139406922703
1761286308.6166103,-4.336777127779316,-0.017278986987932437,0.9551727445337277,-0.23413156124435477,0.2943800108001135,0.32045693458125407,40.19664254037884
1761286308.6266046,-3.8809330167747427,-0.03749493411627601,0.9385367430885518,-0.24295008244255709,0.5316589752186354,1.4997643093167055,41.63063804522925
1761286308.6365924,-3.458449690297204,-0.06380854913614836,0.919633105873144,-0.2507018297876315,0.7620452392421776,3.1611963438591983,42.349311269360605
1761286308.6465957,-3.0805735001878394,-0.09288792803555805,0.899650776819133,-0.2572444667583244,0.9384635215672579,5.144136523520122,42.31009489072882
1761286308.6566002,-2.752406583518369,-0.12061941811194621,0.8800293543400758,-0.2625512158675913,1.0129637968303526,7.247031922940776,41.54325247925759
1761286308.6672335,-2.4719979569444788,-0.1425964522176846,0.8623847796321544,-0.26673511759684454,0.9450635307913299,9.250984850496756,40.14559459149718
1761286308.676589,-2.2304157842445647,-0.1547160061254852,0.8483992477514037,-0.27007688139361175,0.7094022554910132,10.947670188538627,38.26727419489605
1761286308.6866748,-2.01284515119625,-0.1537924881052062,0.8396795684050067,-0.2730402486712248,0.30098674987073304,12.16724829162874,36.09309836602709
1761286308.6966383,-1.8006027146023158,-0.13808830903450703,0.8375925098205443,-0.2762569158446977,-0.2632880223170552,12.802025085934234,33.820452152410645
1761286308.7066212,-1.5738054202069967,-0.10766513486629573,0.8430912612897753,-0.28046584422155635,-0.9474509788267295,12.82235212245085,31.636385151296704
1761286308.7171896,-1.3143014561544146,-0.0644808280504942,0.8565542085356376,-0.286398483097345,-1.703326888424332,12.28243099433795,29.69653677960358
1761286308.7266126,-1.0083974497694395,-0.012192917326762549,0.8776649659509412,-0.29461172996703033,-2.4802662154355817,11.315027822548634,28.108300901281282
1761286308.7368798,-0.6489238005982372,0.04432213179815015,0.9053674402316704,-0.305285078763806,-3.2357412714974427,10.115498070155166,26.919997724391514
1761286308.747409,-0.23628723386413564,0.09966657070724351,0.9379249137901012,-0.3180171524276628,-3.9444360588931215,8.917000354148286,26.116974128940385
1761286308.756824,0.22164226552067426,0.14871215571276628,0.9730931076882586,-0.3316749359137549,-4.603727533832142,7.960304518394845,25.624661861598604
1761286308.7667582,0.7107227349542787,0.18732819816106994,1.0083888026853247,-0.3443562762297587,-5.234372363673713,7.462817387273495,25.31783360976301
1761286308.7766287,1.2125147944588441,0.21290359309450707,1.0414114223572213,-0.3535125071343961,-5.876427037441739,7.5917473035158505,25.034721078262795
1761286308.7866142,1.706628210180393,0.22457410473576847,1.070165388347642,-0.35624278960358136,-6.581457588180053,8.445340963393283,24.594345851920814
1761286308.7984536,2.1730184338158223,0.22313894714882165,1.0933333051783807,-0.34972670565710856,-7.402647240580846,10.044170984539816,23.81532114394849
1761286308.8081203,2.5938874005686627,0.21071721420406017,1.1104531456622204,-0.3317227625919922,-8.384508632231901,12.332345753448408,22.534399400298632
1761286308.8178644,2.954975238426543,0.1902407169251561,1.1219535996909589,-0.30103805186707927,-9.553752116613119,15.186974136733406,20.623075303781505
1761286308.8270648,3.246179660801358,0.16489793458071056,1.129013658213583,-0.25787145496000274,-10.912637428779574,18.43350899942861,18.000619948011586
1761286308.8370614,3.4615681719192,0.1376333590609333,1.1332500243261918,-0.20394945294997197,-12.435917292510629,21.864578931418443,14.642133367530228
1761286308.8471358,3.5989303631314074,0.11077687602634514,1.1362929650056628,-0.14240854744949505,-14.072232441376217,25.260269466856403,10.580665164893803
1761286308.8574114,3.659051307498475,0.08584316602754188,1.1393587766654227,-0.07742704477803121,-15.750413550005813,28.40818933039765,5.903160131375408
1761286308.8686225,3.6448824973854896,0.06350945606464589,1.1429361703411047,-0.013661843155081893,-17.39041648381888,31.121834661852173,0.7408262559959843
1761286308.8770878,3.5607557088932236,0.0437513269288253,1.1466681037083815,0.04440865052600125,-18.917495018874074,33.25573147627329,-4.744654043744741
1761286308.8866098,3.411739139866288,0.026089948948241442,1.1494476885607698,0.09310579054575269,-20.276938822683828,34.71576260245034,-10.377027245917898
1761286308.896635,3.2031850316669823,0.009883908854011934,1.1496852326362728,0.130006414380525,-21.44582359012654,35.463218290082594,-15.981222048879507
1761286308.906661,2.9404720852476696,-0.00540680877157986,1.1456659401184106,0.1541442355078569,-22.43831172328424,35.51166640770287,-21.396943109673614
1761286308.9165838,2.628910239115207,-0.020041902082240128,1.1359106826856762,0.16594246787641312,-23.30236290515826,34.91680005735713,-26.488713295154252
1761286308.926627,2.2737535764604813,-0.03393384206889942,1.1194680776726598,0.1669345696716428,-24.107981181643428,33.760816645684294,-31.15175141394329
1761286308.9367461,1.8802598745742445,-0.04668878964572069,1.0960939109546701,0.15936517439561745,-24.92954696923461,32.134171811733644,-35.313849716159694
1761286308.9466705,1.45374067946541,-0.05772832830977308,1.0663044956800678,0.14576180990961818,-25.826440791503455,30.118240235020107,-38.93406380596955
1761286308.9566405,0.9995609526910476,-0.06645181343287648,1.0313161066355137,0.1285486903949433,-26.82651543989041,27.772252652989224,-41.99941662679719
1761286308.9666286,0.5230685220447462,-0.07239531203208655,0.9928984119388585,0.10975020778784493,-27.91603819369097,25.126947961465817,-44.5208677450002
1761286308.976708,0.0294557443650568,-0.07534847132140082,0.9531762552623212,0.09080905813843743,-29.037942105604685,22.185982844517603,-46.5295432095691
1761286308.9866135,-0.476426272593046,-0.07540375966752082,0.9144146452290252,0.0725257384584305,-30.098199951510733,18.934645629573428,-48.07377142860522
1761286308.9966578,-0.9902704991745716,-0.07293066713773,0.8788179891547998,0.05511387442326114,-30.978433335756968,15.354132003621238,-49.2169510936505
1761286309.0066457,-1.5085019268585065,-0.0684868316583828,0.8483652947867096,0.03835606546811747,-31.55186617770174,11.438725295223318,-50.035802978166544
1761286309.016624,-2.028423359142932,-0.06269444828634088,0.8246886850139827,0.02183240523467976,-31.699548941546638,7.212717084401936,-50.61822406523278
1761286309.0266528,-2.548299757433652,-0.056120469652718975,0.8089883379713387,0.005178328044906087,-31.32433659792177,2.743783050857504,-51.05985166741879
1761286309.0368803,-3.067371283648993,-0.04920015425729251,0.8019697124582368,-0.011683189540436408,-30.361161344581593,-1.8501853386454954,-51.45863321891977
1761286309.0466142,-3.58579471742832,-0.04223217785982829,0.8037916908037391,-0.028389039928043706,-28.78330731720949,-6.403004520199982,-51.90721165066912
1761286309.0566347,-4.104520890439581,-0.03544937805299292,0.8140251943277828,-0.04409973089500623,-26.605204690172386,-10.71172219989554,-52.483694904539114
1761286309.066625,-4.625120818982974,-0.029139063835634065,0.8316361331156087,-0.057587710854008455,-23.88242368513119,-14.55674531499086,-53.24217967137329
1761286309.0766346,-5.149575139323759,-0.023763423337869353,0.8550173044723521,-0.06742950013917358,-20.709170134615196,-17.72764735835426,-54.20495748387889
1761286309.0868833,-5.680041323787298,-0.020025540746593004,0.8820931034979735,-0.07225984673979423,-17.2131040944899,-20.05028355306335,-55.358367860638815
1761286309.0966349,-6.218612816549501,-0.0188433388266674,0.9105047637851319,-0.07103539413546194,-13.547164978191114,-21.410390594345678,-56.65366967451047
1761286309.106624,-6.767085249923679,-0.02122568516665525,0.9378573473757259,-0.06325468221048648,-9.878435372148552,-21.769570405645467,-58.013242263057066
1761286309.1166177,-7.326747300725646,-0.028078999375392166,0.9619850801139856,-0.049091415662727726,-6.374725248456865,-21.17121162677657,-59.34125542398441
1761286309.1266792,-7.898215677555678,-0.03999627058017608,0.9811812757143388,-0.029417641982929656,-3.1901724670304943,-19.73593614860946,-60.5370172761883
1761286309.136619,-8.481333032342967,-0.05708632844783333,0.9943487725278566,-0.00571720637332105,-0.45146134112003833,-17.647967151345153,-61.508748813461196
1761286309.1466448,-9.0751434970128,-0.07888978750564363,1.0010520841448267,0.020089318782666128,1.7538003704743257,-15.135015230569888,-62.1856009401864
1761286309.1569362,-9.67795327387163,-0.10440464018310029,1.001480636872017,0.04587363658131027,3.3852793596674773,-12.44479891974853,-62.52621475332593
1761286309.166751,-10.287473292064009,-0.13221607111361733,0.9963504018144699,0.06954391221138588,4.453726266130937,-9.821280666773761,-62.52282464275948
1761286309.1769512,-10.901028055923186,-0.16069916490520522,0.9867734640582756,0.0892698626174948,5.019736612583787,-7.483283839005053,-62.20063038694857
1761286309.1866488,-11.51580219116566,-0.18824682799227968,0.9741156616485246,0.10366419424235353,5.187201908425836,-5.607521996927921,-61.61280903656571
1761286309.1966252,-12.129087744971903,-0.21347283441010162,0.9598505016953384,0.11190610251729072,5.091762981799379,-4.317337895347111,-60.83204644287994
1761286309.2066066,-12.738493708007272,-0.23535108538264757,0.9454109862596176,0.11380014867070948,4.885299752655043,-3.6776774537551904,-59.93981430198837
1761286309.2165933,-13.3420848533615,-0.25327205208631737,0.9320420095348435,0.10976864030835122,4.718224928528341,-3.6960480033737024,-59.01479481574999
1761286309.226643,-13.938428442988089,-0.26701891581788584,0.9206613317770449,0.10078002419220687,4.721891401431065,-4.328488434030467,-58.12187544662227
1761286309.2366393,-14.526542530130756,-0.27668319833833693,0.9117421184890329,0.08822209328066341,4.993599774363342,-5.489008754250767,-57.303022892540255
1761286309.2466211,-15.105756161502345,-0.28254996212985656,0.9052323431198848,0.0737361314621478,5.586434362477403,-7.060653100564972,-56.57110678399342
1761286309.2566373,-15.675507066754411,-0.2849856187136504,0.9005256728543727,0.05903243325918379,6.505510270235804,-8.90638643963461,-55.90736952649388
1761286309.2666214,-16.235113152923407,-0.2843570752412843,0.8964945796834832,0.04570638091266874,7.711300957956412,-10.8784084436435,-55.26273452438575
1761286309.2766175,-16.783557297102313,-0.28100046659987044,0.8915899472019412,0.03506949181149674,9.129674115495545,-12.825185174729265,-54.56257526518037
1761286309.2866213,-17.319319611386906,-0.27524471094817043,0.8840049454971809,0.028005660130302232,10.667220835254764,-14.596315779660763,-53.71405690000895
1761286309.2966182,-17.840279439299838,-0.2674835279620932,0.8718964812620127,0.02486168525505387,12.229551461830061,-16.046112879291027,-52.614843446404684
1761286309.306617,-18.343694409472715,-0.25828023266496564,0.8536534833985214,0.025383385768485693,13.739618797495455,-17.03726311341789,-51.16191901862121
1761286309.3166559,-18.8262496658934,-0.24848159678295526,0.8281941317220431,0.028712048462083244,15.15298753167718,-17.44601928911489,-49.25950324675621
1761286309.3266017,-19.284160031556855,-0.23931087097252263,0.7952633165364594,0.0334557674985909,16.467397372006133,-17.170040700368194,-46.82547567308672
1761286309.336624,-19.71330312610019,-0.2324075172028123,0.7556907169527616,0.03784191252075757,17.724940230473088,-16.139311594659404,-43.79622391586658
1761286309.346626,-20.10936227126854,-0.22978349399975062,0.7115630610453378,0.03994146083182841,19.006503784110805,-14.329647753649605,-40.13023648174646
1761286309.3567047,-20.46796296179216,-0.23367381660989078,0.6662633676341516,0.03793949091881786,20.419489460605707,-11.777287969495793,-35.81095926766751
1761286309.366664,-20.784793937866425,-0.24627348932048615,0.6243363852807577,0.030414864739957224,22.080840429706267,-8.592110572795535,-30.849386857706566
1761286309.3766398,-21.055711271877843,-0.26937323129676977,0.59115523178208,0.01658775365649704,24.097926467730744,-4.966298163592005,-25.286576100388885
1761286309.3866296,-21.276828531577674,-0.30392962873150586,0.572390999989347,-0.003505118593984121,26.549836919986788,-1.1750379074042503,-19.195786867260853
1761286309.396627,-21.44459575666977,-0.34962763198124114,0.5733222445687937,-0.02894088153953666,29.471244167839604,2.433660000874326,-12.683381041936183
1761286309.406642,-21.555865016006234,-0.40451133147196067,0.5980580063325734,-0.057965845736671184,32.840407836290765,5.4616079697913404,-5.887172735657881
1761286309.4166129,-21.60793387468446,-0.4647687769919665,0.648779023054186,-0.0881748541133636,36.57236993908174,7.495141484709116,1.0291059730903889
1761286309.4266224,-21.598554878892305,-0.5247539683369883,0.7251207664676613,-0.1167943684797089,40.51815525434291,8.149276676214608,7.88601315564438
1761286309.4366484,-21.525903704944184,-0.5773110476025898,0.823822744899382,-0.14103713558086645,44.470769305595624,7.116852851856347,14.502991762121445
1761286309.4466364,-21.388512870823984,-0.6144303548372029,0.9387462562246619,-0.15849124907893133,48.17864932481001,4.216942120141543,20.715732981333474
1761286309.4566174,-21.185198565649227,-0.6282123854448166,1.0613175454114379,-0.16750162224007734,51.36665968568579,-0.563767939968791,26.393534528397467
1761286309.4666224,-20.91502650501113,-0.6120462488238261,1.1813907012287412,-0.1674940016332812,53.763669164578864,-7.042929216803212,31.45331530651856
1761286309.476631,-20.577368229158264,-0.5618339460489536,1.2884515942057746,-0.15918572833678207,55.13438113656209,-14.833638835091007,35.86723210308251
1761286309.4868376,-20.172085377366404,-0.47703030989215245,1.373005944635741,-0.14463040367579874,55.31165933197459,-23.359344473397815,39.661965749684335
1761286309.4969716,-19.699848352041986,-0.361248325872394,1.4279206549670704,-0.12705590753696128,54.22434664520606,-31.89505470190971,42.909363750633396
1761286309.5066953,-19.162557642143707,-0.2222281823839977,1.4494451578712737,-0.11047574100350685,51.91490899322611,-39.63393809830053,45.70976032698593
1761286309.5166411,-18.56380270638428,-0.07109458820046366,1.4376720695574725,-0.09909070364151434,48.54178408121678,-45.77374439551506,48.1706609159167
1761286309.5273283,-17.909271687490747,0.0790005103100425,1.3963251506305028,-0.09656058336590463,44.36358039543239,-49.61246082147139,50.38454755259859
1761286309.5366664,-17.207016798758662,0.21460041972791838,1.3319461298142103,-0.10529728938003985,39.70606007523479,-50.63891754701942,52.410218092287415
1761286309.5466228,-16.467485102797372,0.32370983536868053,1.2527051774648907,-0.1259658742342108,34.91713438588609,-48.603354243473994,54.261895204298455
1761286309.5566244,-15.703245104612284,0.39730270770209025,1.1671208026463384,-0.15734022273434908,30.318498870808412,-43.55585548582334,55.90890296022426
1761286309.567191,-14.928379872547225,0.43035025944265687,1.0829424042879152,-0.19655378484072053,26.163819698729277,-35.846260533283285,57.286098060328335
1761286309.5769243,-14.157575786045763,0.42225150500333364,1.006360393027694,-0.23966361011075768,22.611975167597464,-26.085953901454417,58.31225865374976
1761286309.5870862,-13.405000132036195,0.37665499600385616,0.9416057130113171,-0.28236448560594546,19.720068362983376,-15.078042289901086,58.91144446160544
1761286309.5969262,-12.683110960143186,0.30075719333665246,0.890912305058577,-0.3206746585695821,17.455897680446782,-3.726606462224994,59.03183237705434
1761286309.606646,-12.00156336170231,0.2042340712909239,0.8547591268900685,-0.3514543804316541,15.724871201396967,7.062372341823188,58.6578102761405
1761286309.6167152,-11.366364608439222,0.09799252657356029,0.8322850601163637,-0.3726870079901398,14.40338086064874,16.475933276096868,57.813519742394774
1761286309.626695,-10.779393745511014,-0.007083227157244227,0.8217706549851613,-0.3835259230880923,13.370125865547893,23.87412302408624,56.55857121007467
1761286309.636682,-10.238349704522921,-0.10124964396834614,0.8210934411704794,-0.3841685598001968,12.528659919984445,28.84699138637074,54.97845433200593
1761286309.6466799,-9.737134828454053,-0.17678446869802372,0.8280847098482437,-0.3756439152213665,11.817758594786126,31.243715037404662,53.17283440207226
1761286309.6566408,-9.266625365669398,-0.22856539919342445,0.8407476460359479,-0.359587328386264,11.209943216978216,31.172197002147904,51.244561136570574
1761286309.6670644,-8.815733571701049,-0.2543185197892053,0.8573368452821839,-0.33804003126221377,10.701495191912917,28.970612081640375,49.29121616144004
1761286309.676631,-8.372633105501693,-0.25454343615276337,0.8763356154149292,-0.31327490719376927,10.298741083436443,25.155332888075186,47.39983722132805
1761286309.6867137,-7.9260041003633335,-0.23215440098006396,0.896386934268462,-0.2876320282741898,10.005161163611506,20.352309110597428,45.64443178613204
1761286309.696687,-7.466157292397656,-0.19190387501601652,0.916231758001979,-0.2633510128630756,9.812478758244842,15.220914426874574,44.085246589931835
1761286309.70671,-6.985915987644153,-0.13967369911885874,0.9346895971524684,-0.24240275921948154,9.697064981438912,10.380093326099415,42.76857914905195
1761286309.7168474,-6.481168163887159,-0.08172737535396299,0.9506908531522085,-0.22633778438542762,9.621366623343604,6.346067336692076,41.72617029992777
1761286309.7266603,-5.951046559162895,-0.02401482834391796,0.9633477388085963,-0.21617380196416974,9.539001668256434,3.4888726617023225,40.97376551843883
1761286309.73675,-5.397748048842205,0.028391386305133954,0.9720369771961732,-0.21234045932129317,9.401758715673454,2.011835721906545,40.50907369895162
1761286309.74665,-4.826056871526763,0.0716717686289866,0.9764655018440097,-0.21468881687703675,9.166842400018616,1.9543026846139597,40.30987934941468
1761286309.7566583,-4.242678331279012,0.10342101136274842,0.9766983643780592,-0.22256214793684653,8.803078706233046,3.2143102486055333,40.333318808717884
1761286309.7666633,-3.6555099803857267,0.12260221362748369,0.9731405774640901,-0.23491538149705418,8.29523041469226,5.585147840883332,40.517236910587584
1761286309.7766695,-3.0729698705605735,0.12933413758541082,0.9664759034768733,-0.2504637437112643,7.645989509728207,8.798342165483344,40.78413567276644
1761286309.7866457,-2.503467113664468,0.12457609030126517,0.9575727435312263,-0.26783781279413127,6.875597332577087,12.565581396394515,41.04765070600636
1761286309.7966807,-1.9550473004547626,0.10978675831456762,0.9473705465442036,-0.2857232325625725,6.01937249243693,16.613336005947293,41.220918905820184
1761286309.8066945,-1.4351892979640577,0.0866288340376688,0.9367613029955789,-0.30296835109479664,5.123649766840132,20.70613007634941,41.22577574857925
1761286309.8166473,-0.9506876859798724,0.05677046250680085,0.9264813259903434,-0.31865033367051976,4.2407186699264985,24.657144586877827,41.00151718971659
1761286309.8266697,-0.5075392781381904,0.021802344385960872,0.9170290403643864,-0.3320981103084811,3.4233280254773097,28.32751922638487,40.5119814046236
1761286309.8368456,-0.11076575711783139,-0.016744438987869797,0.9086237155792158,-0.34287771953982576,2.719258170045928,31.617743329540676,39.74990832151949
1761286309.8467867,0.235860165305829,-0.05731924210405348,0.901216088369801,-0.35075123489535653,2.1663981548113074,34.45545464325896,38.73788054844513
1761286309.8567278,0.5301740699408508,-0.09825969123133592,0.8945537302552723,-0.355623977027189,1.7887057491052045,36.78372535431855,37.52561029277057
1761286309.8671386,0.7720145600078059,-0.13773010655464454,0.8882930495675201,-0.35749640765685564,1.5933648837361993,38.55279547065666,36.18387014043804
1761286309.8766716,0.9635766826113605,-0.17372123501244016,0.882138896765477,-0.3564369830785607,1.569388749513947,39.71668204968782,34.79589378299864
1761286309.8868368,1.109636914658414,-0.20412600290007998,0.8759850536235828,-0.3525889787543782,1.6878531295933166,40.23458653908492,33.4474932486771
1761286309.896641,1.2175698561335364,-0.2268891131681992,0.8700266454272895,-0.34621622706163646,1.903878330632859,40.075854982476315,32.21734356468903
1761286309.9066887,1.2971011156083057,-0.24021167114464603,0.8648194799400231,-0.33777990081898696,2.160387088301556,39.226600657564084,31.168796150134543
1761286309.9167142,1.3597786761746553,-0.2427776425850438,0.8612707131853184,-0.3280236285518135,2.3935306595810366,37.69601203492496,30.34419875921445
1761286309.9267118,1.4181891624896663,-0.233960528577883,0.860557914955445,-0.31803229423237356,2.5394915602510193,35.52073420843474,29.762114211250847
1761286309.9366963,1.4849867084071906,-0.2139694509688408,0.8639868418728053,-0.30922670051528117,2.542134620497056,32.76634805053655,29.417197803085358
1761286309.9466655,1.571832394907369,-0.18390396376671395,0.8728096567628866,-0.30326582197099433,2.360685699480361,29.525685439374598,29.281992316652925
1761286309.9568126,1.6883571105011776,-0.14570295901551772,0.8880328764367158,-0.30184952737697396,1.9763135332401691,25.91433637347203,29.309673926535982
1761286309.9666564,1.8412602982018447,-0.1019902494398038,0.9102462557537244,-0.30644083099801345,1.3963038723269015,22.06409587986511,29.43688136591951
1761286309.976638,2.033643667121367,-0.05583448570307692,0.9394999438981765,-0.3179498570929291,0.654629022561098,18.115205731105412,29.58612428713521
1761286309.9866297,2.264653656075887,-0.010453393459845837,0.9752487948182189,-0.33643693827764476,-0.19175577964122154,14.208113985583218,29.667762670629354
1761286309.996793,2.5294695669709606,0.031098038089805095,1.016370158613214,-0.3608982653866448,-1.0707089488225028,10.475282768522941,29.5820189254355
1761286310.0066688,2.819629797858029,0.06621096251441601,1.061245319414535,-0.3891927154276526,-1.9057400772274995,7.033526347310166,29.221774244569207
1761286310.0166326,3.123646525114662,0.09293750161814938,1.1078799696241015,-0.4181501795004084,-2.628243426572359,3.9774884040383416,28.476896812901938
1761286310.02665,3.4278313796066753,0.11011250746993327,1.1540350368392398,-0.44386980959994543,-3.1892811421373475,1.374987723291262,27.240524933626737
1761286310.0367157,3.717246943180334,0.11738113397026735,1.197350705649148,-0.4621766573813247,-3.569200375641357,-0.7351377338951122,25.417163513181812
1761286310.0466425,3.976707366558114,0.11515318109758893,1.2354668142141443,-0.46916765343618994,-3.7837373875012132,-2.342429117914026,22.93180254638009
1761286310.0566514,4.191765982854184,0.10451632587901688,1.266157324103217,-0.46175591634484353,-3.8858038382791245,-3.461671804768409,19.738716785714008
1761286310.0668097,4.34963829245423,0.08713497308054895,1.2874941136237608,-0.4381253555396485,-3.962790813413694,-4.1278034084688136,15.828340604966057
1761286310.076653,4.44000982432809,0.06514300390885368,1.298037048152156,-0.398030975905397,-4.1298417086796535,-4.389548090699008,11.230756907740407
1761286310.0866377,4.455672234879412,0.04101934255841258,1.2970249234671403,-0.34290826421290826,-4.5199926711834575,-4.302432010934263,6.014892933942127
1761286310.0966392,4.392925685712776,0.01742686689375069,1.2845273022488972,-0.2757777596482577,-5.272282784460393,-3.9218454138624574,0.28334835080053244
1761286310.1066513,4.2516906559600685,-0.0029980612200806687,1.2615151706640433,-0.2009523970519785,-6.51894477470192,-3.2969221130521245,-5.836316468174342
1761286310.1166754,4.035294493959719,-0.017899171188849615,1.2298186524471113,-0.12358121759585881,-8.372725596945209,-2.466116724357535,-12.202280745070528
1761286310.1268451,3.749937619658869,-0.02546752450875235,1.1919611843223792,-0.0490903285866784,-10.915344471721502,-1.455313873054814,-18.66928424730185
1761286310.1366568,3.4038945516095382,-0.02467658232793196,1.15088733450895,0.01739917795261221,-14.18806885400736,-0.2789642176978918,-25.097890500352104
1761286310.146699,3.0065534882710514,-0.015436882156574674,1.1096276378644645,0.07159484618343849,-18.185311038571367,1.0559028232130527,-31.361141722314766
1761286310.1566308,2.567430104512422,0.0013662462543012704,1.0709588621438897,0.1104334747262265,-22.85195460999094,2.5437176678979254,-37.348416745708995
1761286310.1666539,2.095293502121536,0.02396636501552604,1.0371167984131944,0.13232298619649444,-28.084782011542817,4.173997673192293,-42.96709759907562
1761286310.1766818,1.5975111180189776,0.04992799015435445,1.0096036743190269,0.13721832924520055,-33.73792835876871,5.926258386427795,-48.143088184845865
1761286310.1867225,1.0796657746803502,0.07644006643132822,0.9891105830764256,0.12654268159670828,-39.631829244450266,7.767498513796843,-52.821183093393515
1761286310.1966493,0.5454427696412182,0.10064274062335084,0.9755525368849791,0.10297278976612428,-45.564749618317386,9.652699004351158,-56.96583093521726
1761286310.2066836,-0.003254391198140362,0.11994235852418769,0.9681941524144602,0.07011131403717517,-51.325703323791494,11.52780125967743,-60.56218589690869
1761286310.216674,-0.5660190723883192,0.13227925655611852,0.9658319011196458,0.03207724018991947,-56.70740805141226,13.33392506353781,-63.616774426678354
1761286310.226649,-1.1435492538520486,0.13632182705028836,0.9669964137836351,-0.006941488379107695,-61.517922724491974,15.011474066311632,-66.15689122314636
1761286310.2366986,-1.73720503822816,0.13156854308337365,0.9701437385311278,-0.0431173290219709,-65.58984081366586,16.503314003040085,-68.22810110833875
1761286310.2466996,-2.3485667316928875,0.11835054265025997,0.9738140628631642,-0.07333676862796346,-68.78633694796434,17.757084749501562,-69.88982376035158
1761286310.2566323,-2.9790381832918187,0.09774045307515308,0.976746791269742,-0.09543269503687868,-71.00389122380874,18.727381173887892,-71.2095981102908
1761286310.2667367,-3.6295330644104378,0.07138453850343629,0.9779497475873742,-0.10827393761454457,-72.17205611280649,19.378586537677144,-72.25698496568114
1761286310.2767823,-4.300271537233421,0.041283218365866986,0.976727280414859,-0.11171851796708575,-72.25110173950112,19.688538174990573,-73.09807438682377
1761286310.2867062,-4.9906995967501455,0.009550039739629626,0.9726778919241565,-0.10646086082645899,-71.22868423220741,19.652323935809267,-73.79128010886537
1761286310.296665,-5.699524493646729,-0.021819460345253443,0.9656759899664952,-0.09381613328367865,-69.11675632337175,19.28488116102833,-74.38466632367727
1761286310.3067107,-6.424841292868147,-0.0511411454493607,0.9558518659177575,-0.07548467886798502,-65.94974658846941,18.621050439606634,-74.91462561040171
1761286310.3166718,-7.1643124677174574,-0.0771776515797705,0.943577696168303,-0.053329441927203625,-61.784580061413685,17.712307261783508,-75.40545329268393
1761286310.3266425,-7.9153573864362725,-0.09920549767987151,0.9294580224866904,-0.0291863172738972,-56.70246546925869,16.62024770040391,-75.86930767307965
1761286310.3366873,-8.675312353158464,-0.11701536400169284,0.9143155982752459,-0.00471699735909522,-50.811686875642444,15.407684055805403,-76.30616696689299
1761286310.3466413,-9.441532928752359,-0.13085763221405414,0.8991604964839041,0.018692678637391366,-44.25011986497402,14.128710393777459,-76.70359821518484
1761286310.3566482,-10.21142488712089,-0.14135024451796444,0.8851318302696217,0.03999004078338751,-37.18600871537316,12.819309104898228,-77.03637109847605
1761286310.3666534,-10.98240426346915,-0.14936309822609897,0.8734057797526157,0.05847291395151208,-29.815723940293584,11.490061941067264,-77.26615425383065
1761286310.3766577,-11.751798011634282,-0.1558857690016554,0.8650693347482811,0.07377394176236927,-22.35769178574658,10.122368183377583,-77.34170665291292
1761286310.3866377,-12.516704459177449,-0.16187975740084004,0.8609658195669214,0.08582079271736384,-15.042332696411282,8.669284015038032,-77.20008360614509
1761286310.3966506,-13.273838127777356,-0.1681182015785024,0.8615262124934917,0.09478158633503027,-8.09852706571741,7.0616822153412775,-76.76936198070972
1761286310.4066586,-14.019387880350019,-0.17502630752032675,0.866609138496725,0.10100293357859182,-1.737709757109394,5.2198890438456225,-75.9732158991257
1761286310.4166567,-14.748921096909712,-0.18255045854205804,0.8753803951793945,0.10494373169898778,3.862880457837196,3.0702786684634047,-74.73734981259769
1761286310.4267423,-15.457368345286786,-0.1900952510031617,0.88626694913231,0.10710380058782831,8.576000156014922,0.5654684068482028,-72.99736877892853
1761286310.4366586,-16.139119863176557,-0.19656707513357816,0.8970164371663985,0.10794647898848518,12.33734186563743,-2.294232539018722,-70.70720895257512
1761286310.4466555,-16.78825358400727,-0.2005451357009399,0.9048780893467805,0.10782021879256992,15.153782402452393,-5.441458904394755,-67.84685107406422
1761286310.4566565,-17.39889256483159,-0.20056875562228646,0.90689664159475,0.1068929317593258,17.105404443107325,-8.728514222742046,-64.42779166145385
1761286310.4666502,-17.965659758319863,-0.1954951130439282,0.9002857346119462,0.10511742330440371,18.340336550835953,-11.924174250042174,-60.494751537883104
1761286310.4766822,-18.48416699952561,-0.18485835036746054,0.8828308293315205,0.1022412216711659,19.06231231760923,-14.723659531108616,-56.122453260081585
1761286310.4866502,-18.951452129487404,-0.16915677551273842,0.8532674031798093,0.09786080895383792,19.511849968013184,-16.77312765573579,-51.407049900219256
1761286310.4966884,-19.366271413236888,-0.15000769197159075,0.8115857504176179,0.09150640975825797,19.9428985145957,-17.707704039836734,-46.45287918359194
1761286310.506676,-19.72916783564229,-0.13013226971228334,0.75922474614892,0.08273643994734775,20.59751243260843,-17.199509831971838,-41.35642693008184
1761286310.516894,-20.042268551625586,-0.11315938611165803,0.6991298292786635,0.07122146066929731,21.68149922057682,-15.009783249378676,-36.190380624107995
1761286310.5276,-20.308811696018296,-0.10326371501124061,0.635662671771224,0.05680255879658754,23.343968514044427,-11.037520577103413,-30.991133049159465
1761286310.5366786,-20.532455959745523,-0.10467699563895543,0.5743601363502084,0.03951668006184604,25.6632307905155,-5.356606442250732,-25.752865134152437
1761286310.5466821,-20.716475692459284,-0.12112907321882187,0.5215482447994828,0.01959174888723019,28.64052233195176,1.7654911006300253,-20.43035642645921
1761286310.5566888,-20.862978520796325,-0.15528316505910736,0.48382410986689656,-0.0025760356291353666,32.20172409862038,9.871814060111312,-14.95109301601115
1761286310.566708,-20.97229133980763,-0.20822656846643048,0.4674270708394183,-0.026448541593357647,36.205973768158,18.343717759536478,-9.235374916497003
1761286310.576681,-21.042638499397878,-0.27906715176354524,0.47753261116088264,-0.05136897475629725,40.459244401910816,26.449849389263147,-3.2213353083506098
1761286310.58669,-21.07018582626782,-0.3646744897714222,0.5175211679440918,-0.0765841577304166,44.73073327185357,33.411028503215825,3.1095631521484353
1761286310.5966465,-21.049457337055287,-0.4595996285181293,0.588296938225293,-0.10127036832569188,48.77015247892855,38.47421685707722,9.711597802144311
1761286310.6066725,-20.974064319822816,-0.5562125131149173,0.6877548414167085,-0.12456581449433819,52.32455695985315,40.98850489593039,16.46318183022487
1761286310.6166751,-20.837633499665067,-0.6451064051322105,0.8105128606007359,-0.14561465218558678,55.1540618183701,40.47659061803427,23.168165988177705
1761286310.6266744,-20.63479113312799,-0.7158202001097401,0.9480350493146106,-0.16363327476607242,57.0465477390057,36.69579735617976,29.571626894039163
1761286310.6366513,-20.36205604245308,-0.7579042120697597,1.089251806422655,-0.17801239421150586,57.83197302698163,29.68278287568577,35.38909940687923
1761286310.646674,-20.01851549206792,-0.7622903129467253,1.2217189717641965,-0.1884617295446445,57.39690194360015,19.775932513929042,40.34534586097959
1761286310.6566784,-19.606198636685086,-0.7228261735334711,1.3332385341888184,-0.1951866157239622,55.69917690785458,7.609700356734995,44.21622703812581
1761286310.6667168,-19.13011444491354,-0.6377171905864825,1.4137088803546844,-0.19905858280560035,52.78141101258734,-5.923426415075264,46.865722669734545
1761286310.6766818,-18.597972603540548,-0.510526886496631,1.4568260966544149,-0.2017080836492927,48.78043775015009,-19.74469945941069,48.27026238479214
1761286310.6866648,-18.0196449711846,-0.35037228937471054,1.4611904600041488,-0.20544251425080343,43.92852651912248,-32.691318690521,48.52461078419909
1761286310.696673,-17.406445421383847,-0.17107518639629493,1.4304616625150888,-0.21291107915193014,38.541915193382245,-43.63964771904922,47.82739321802736
1761286310.7066822,-16.77031058288897,0.010694965311465101,1.3724697245789426,-0.22652784167316617,32.99391538467802,-51.63353507103298,46.44906995964647
1761286310.7168581,-16.12296223761448,0.17792232178139128,1.297522381867883,-0.24779798101479775,27.673608423300323,-55.997426494727385,44.68937713583368
1761286310.7266774,-15.475130491791333,0.31581205391002015,1.216386665684019,-0.27678420989603125,22.93588182094779,-56.41424101290927,42.833543182504414
1761286310.736727,-14.835914227244423,0.41384909811856097,1.1384641966076718,-0.31192679102953313,19.05245140520307,-52.95398866907827,41.11618786114732
1761286310.7466693,-14.212345992381588,0.46695886605321596,1.070547464275323,-0.3502964292933903,16.174852771082648,-46.049185371478806,39.69898737492053
1761286310.7566953,-13.60920748607761,0.47564119366161134,1.0163233532546332,-0.3881903527065917,14.318296862038022,-36.42380287369181,38.66408016372721
1761286310.7667484,-13.029108924012109,0.4451937759541181,0.9765699424568592,-0.4218659280300588,13.370240687163902,-24.990486320400205,38.02122108291726
1761286310.776663,-12.472806659736213,0.3843132662910298,0.9498391020617813,-0.4481897805767991,13.121178568362717,-12.734444635028709,37.724028069454604
1761286310.7866514,-11.939697694503167,0.3034313479764233,0.9333580751360357,-0.4650514396467821,13.30963279565693,-0.6018823574033949,37.68985802503367
1761286310.7966585,-11.42840508984668,0.21311452139120518,0.9239077170034721,-0.471498014012869,13.670383674340618,10.59275415729004,37.818735602964566
1761286310.8066611,-10.937359047106609,0.12276552818867605,0.918511747507818,-0.46763813881906985,13.975391771206613,20.231588139379337,38.00862621315996
1761286310.8166604,-10.46528532161592,0.039754221946989986,0.9148637261162036,-0.454411466255805,14.060162921995415,27.926409186108064,38.16630412988923
1761286310.8266518,-10.011533523966012,-0.030992997000537394,0.9114966484448386,-0.4333223759801063,13.83310404821843,33.52099635393755,38.21443774592482
1761286310.8366523,-9.576208520077225,-0.08699128552390734,0.907749064696477,-0.40620719807501127,13.27001251145521,37.06726710197495,38.09604078499754
1761286310.8466613,-9.160103434429296,-0.12788016046010287,0.9036014118304005,-0.37506263013015745,12.398833043098888,38.78229504352081,37.7772765249311
1761286310.8566952,-8.764466631668718,-0.15491454452512493,0.8994546677622915,-0.34192766363936655,11.280604912738154,38.99443211614444,37.24911888992522
1761286310.866668,-8.390660893695584,-0.1703880672399769,0.895909125855989,-0.30879383895787715,9.9914624140471,38.08674398010543,36.52790740722629
1761286310.8767192,-8.039785698524845,-0.1770906464077645,0.8935806798681621,-0.2775199201567387,8.608593321242465,36.44485647192387,35.654556945994116
1761286310.8866725,-7.712331075330877,-0.17786638765014176,0.8929707534381338,-0.24973951036618827,7.201134963840103,34.41443385731539,34.69211473684351
1761286310.8966582,-7.407915372626009,-0.17529824105024946,0.8943887873416104,-0.22676430946086026,5.825622023761427,32.27132471166316,33.721442750222494
1761286310.9066677,-7.125134334451219,-0.1715130971106004,0.8979164587680346,-0.20949548285479594,4.524902683810741,30.205354423339138,32.834995863523105
1761286310.9166718,-6.861522993640219,-0.16808260745293901,0.9034008536929179,-0.1983591257475337,3.329267824211165,28.31709354309485,32.128931811497544
1761286310.926735,-6.613613349359981,-0.16599212730064838,0.9104670984099092,-0.19328013859985854,2.2586625515511445,26.625781300740815,31.694075839720643
1761286310.936656,-6.377064947094528,-0.16565804196238987,0.9185459539852964,-0.19370386503120965,1.325085330115578,25.085890390676237,31.606502002330707
1761286310.9466736,-6.146852390662258,-0.16698512731314535,0.9269155927922147,-0.19866807412286783,0.5345510018265496,23.609469421006164,31.918635086391582
1761286310.9566674,-5.91750787593899,-0.16946367442159765,0.9347574802240567,-0.20692027341477587,-0.11170613711167944,22.091258377755466,32.65181111318368
1761286310.9666991,-5.6834290931287565,-0.17230675553723362,0.9412240471677066,-0.2170676016278483,-0.6167992143426981,20.433539999108465,33.79116914620486
1761286310.9766808,-5.439264776743841,-0.17462098420684793,0.9455125429480266,-0.22773952839460793,-0.9882602713206304,18.567764410158542,35.28359232502904
1761286310.9866936,-5.180376234795958,-0.17559187994281947,0.9469376043504653,-0.23773909672612134,-1.2381848660136743,16.470265419275197,37.03917840234562
1761286310.9966733,-4.903342939130422,-0.17465182719340488,0.9449960122881564,-0.24615904890779314,-1.3830145927432764,14.169998271761413,38.936407211968366
1761286311.0066726,-4.6064413357724785,-0.17159127391380413,0.9394201956584359,-0.2524460937355592,-1.4426758356657463,11.74722166568145,40.8308043141047
1761286311.0166676,-4.289993793940871,-0.16657881514262976,0.9302203416503136,-0.25640793480824386,-1.43903307760286,9.323340501520397,42.5665217506817
1761286311.0266726,-3.956476185323958,-0.16007517043459762,0.9177166662692648,-0.25816982870927657,-1.3938506518312976,7.043517416330047,43.98992269212521
1761286311.0367007,-3.6102992375422716,-0.15265560095542752,0.9025625863394282,-0.25809748393872795,-1.3266231023887634,5.054899533559568,44.963990306126085
1761286311.0466676,-3.257240200909319,-0.14478572972700865,0.8857560971845465,-0.2567092951265755,-1.2527026070129332,3.484156434698619,45.38217563249479
1761286311.0566974,-2.903583444165602,-0.13661540171457398,0.8686316289168552,-0.2546015790642334,-1.1821188313417925,2.41827712710606,45.18016996764927
1761286311.0667064,-2.5551078460934553,-0.12785555323430103,0.8528209029686675,-0.252404337519682,-1.119361385498613,1.8920639671393344,44.344099495427336
1761286311.0766745,-2.2161117273022435,-0.11778306031574061,0.8401719975746529,-0.2507726331611661,-1.064197935511401,1.8844656031823663,42.91386792068018
1761286311.0866761,-1.888676704406471,-0.10538419651126546,0.8326213810440448,-0.2504033004067894,-1.013375386794187,2.324035417173992,40.980840220232885
1761286311.0967495,-1.5723347654102788,-0.08960821468060046,0.8320217790225889,-0.2520540316291866,-0.9628630427050517,3.1018520651373045,38.67972340084849
1761286311.1066747,-1.2642235838158704,-0.06966961721728794,0.8399373745907852,-0.25653699254481205,-0.9101996981133866,4.088732614001583,36.175267228435054
1761286311.1166892,-0.959710636644325,-0.0453212104271089,0.8574264828530924,-0.26466380394039385,-0.8565109541076815,5.1529198169748245,33.64515139177312
1761286311.1266792,-0.6533633220362542,-0.017025869200478227,0.8848398722527357,-0.2771314082515366,-0.807839125132579,6.174796532613215,31.260988166579274
1761286311.1366816,-0.3400687081308112,0.014018646297461001,0.9216684568231602,-0.29435610656358135,-0.7755399258519456,7.056429422722565,29.16962134081441
1761286311.1466618,-0.01608572234395695,0.046008192704632224,0.9664746855997236,-0.31628248079966903,-0.7756295612287903,7.725441428932327,27.47681290608242
1761286311.1567373,0.3201471796105906,0.07677917302777874,1.0169351989546702,-0.34221034544147166,-0.8271201358699527,8.134287944881287,26.2350459440199
1761286311.166737,0.6675402106883281,0.10410917817843074,1.0700065263174572,-0.37069041224131594,-0.9495815080303087,8.256988494116037,25.436644036806864
1761286311.176692,1.0222146261537859,0.12599966979621693,1.122202163036607,-0.39953303620029723,-1.160409981000687,8.085530553794099,25.012828939048546
1761286311.1868494,1.3776358931138553,0.14088609715685704,1.1699449218746432,-0.4259534579400525,-1.4725039061415681,7.627577738212006,24.838794177289113
1761286311.1966922,1.7249398365896214,0.1477523788395224,1.209942215990621,-0.4468464114008484,-1.8931320328112173,6.9060465411725875,24.744377484197184
1761286311.2068853,2.053396079689121,0.14615956146670617,1.2395290788093725,-0.45915208733684726,-2.424632015947999,5.95996436059738,24.529427609960994
1761286311.21667,2.350987205523063,0.13622024937916735,1.2569323450954528,-0.46025387008692026,-3.0671678367518,4.845224244002716,23.982453224308866
1761286311.2267654,2.605103987416206,0.11855284207008494,1.2614242262224105,-0.44834194444608616,-3.8231910073592035,3.6337035231595864,22.900663344623936
1761286311.2367816,2.8033530591670686,0.09423490375327827,1.253350711113576,-0.42268538256717963,-4.702662407812488,2.409708166598613,21.10919266104657
1761286311.2467902,2.934444178616214,0.06475533027143099,1.2340381436407633,-0.3837728244070126,-5.727676574550278,1.26356556275601,18.477301353927363
1761286311.2567394,2.989081808483898,0.03195213811776545,1.2055985073009594,-0.33330236893668175,-6.9350139079381,0.28306158167243445,14.929722592766794
1761286311.266894,2.960747525792801,-0.0020798506289076567,1.1706678584457682,-0.27402292333899975,-8.375398435854377,-0.4559623452040659,10.45205719494354
1761286311.2766807,2.8462438566800023,-0.03512133728192813,1.1321196162648377,-0.20945154853129125,-10.108851195785888,-0.8983009060991912,5.090044920735208
1761286311.28675,2.6458901872631975,-0.06499902840276178,1.092792853982359,-0.1435103311136674,-12.196365815004489,-1.0159679542512547,-1.0565246082864794
1761286311.2966902,2.3633188481482446,-0.08977851358195274,1.0552665138212503,-0.08013621082275858,-14.688958796702408,-0.8117112556416006,-7.84380328465366
1761286311.3066964,2.0048987861164247,-0.10795375111507512,1.0216972502154449,-0.022915726614540992,-17.615755238643406,-0.31905206369056643,-15.096059307078352
1761286311.3166988,1.5788893572560971,-0.11860515359822943,0.9937249336373628,0.025213927319810314,-20.97306814094667,0.4010467452359014,-22.6185030671312
1761286311.326749,1.0944744458140445,-0.12150307001459452,0.9724384991639887,0.06217177831320459,-24.716405117113236,1.2663935284276233,-30.20968083048119
1761286311.3366752,0.5608357998829134,-0.11714239544025669,0.9583882598261294,0.08683902706510387,-28.756995183104138,2.181899096838885,-37.67282493635165
1761286311.3468087,-0.01360414656881098,-0.10670454875674414,0.9516300871039317,0.09907015368698315,-32.96378988742374,3.049050687404982,-44.82588617453408
1761286311.356705,-0.6216928347281979,-0.09195240301223032,0.951790115720086,0.09962523926588698,-37.171036410634045,3.775369186272506,-51.51011483035464
1761286311.366884,-1.2577930568067048,-0.0750694606344636,0.9581420117166929,0.09004262868163646,-41.19060759868249,4.28257523764238,-57.59701001209611
1761286311.3766823,-1.9177919625141495,-0.05845684517830389,0.969689829538954,0.07246825411888003,-44.82751973426629,4.512246153579205,-62.993317712565435
1761286311.3867128,-2.598929418656547,-0.04450336345575335,0.985248673676554,0.04945343062364471,-47.89664540034478,4.428071001656141,-67.64368246976561
1761286311.3967106,-3.299509910124659,-0.03534674190988252,1.0035151703225857,0.02373109195523685,-50.23857378084172,4.014413581997228,-71.53064584462014
1761286311.406766,-4.018557426131103,-0.03264673447087293,1.023122343605931,-0.0020170891453109596,-51.73280602741401,3.271667603045742,-74.67193287616247
1761286311.4166903,-4.755461109668391,-0.03739116438506891,1.042679403930966,-0.02538507499451852,-52.30689547767476,2.2096727155418696,-77.11531172046608
1761286311.4267018,-5.509645959134492,-0.049754679399172816,1.060803844330081,-0.044436494592990865,-51.94067166557995,0.8410781375174904,-78.93164990767411
1761286311.4368963,-6.280291144630634,-0.06902909929390656,1.0761569660900006,-0.05784662555798918,-50.66527473589884,-0.8231927145703095,-80.20700947878639
1761286311.4467041,-7.066110392321195,-0.09364379828352182,1.087492395585389,-0.06497591611981318,-48.55734621505676,-2.7744780837579066,-81.03466436066613
1761286311.4568913,-7.86520449884495,-0.12129110088801628,1.093722057139377,-0.06586750882649292,-45.72933044786819,-5.00188461924499,-81.50779868850772
1761286311.4666934,-8.67499364571652,-0.1491602303268168,1.0939982013996612,-0.0611716747945632,-42.31735619772341,-7.483154521484883,-81.71339684330536
1761286311.4767072,-9.492233835459885,-0.17426293375138566,1.0878040522146648,-0.05201017884962996,-38.46848381022338,-10.172954546497055,-81.72751728876499
1761286311.4867039,-10.313115076837223,-0.19381073204137406,1.0750386699933983,-0.03980070731563213,-34.32911999029329,-12.992051903460649,-81.61181590669752
1761286311.496698,-11.133428664522132,-0.20558729651077606,1.0560746550948783,-0.026063441890408313,-30.03607628646256,-15.821422565336128,-81.41092059700108
1761286311.5066848,-11.948779029962948,-0.20825605866923508,1.0317642635805158,-0.01222985452211084,-25.711136707457793,-18.504777713120983,-81.1501317759248
1761286311.5166926,-12.754805577437265,-0.2015536347328969,1.0033753924428812,0.000528120115514148,-21.459236005541417,-20.86135276664523,-80.83300448297759
1761286311.5267215,-13.54737523955263,-0.1863403180633642,0.9724551684922049,0.011429898702212563,-17.369586329228632,-22.708456763921724,-80.4386892022085
1761286311.5366902,-14.322709644375431,-0.16450363997276513,0.940639821343164,0.020159649906568714,-13.518493628396342,-23.8907818073714,-79.91940766133642
1761286311.5466812,-15.07742215705802,-0.13873368667243927,0.9094450090726023,0.026864962903808663,-9.972327261428068,-24.31143196196913,-79.19895359828257
1761286311.5567014,-15.808457579770865,-0.11220495078122926,0.8800741929736078,0.03207387326280294,-6.789207551548873,-23.958565919849047,-78.17344703231092
1761286311.5667021,-16.512947003127866,-0.08820705841338072,0.8532753252615459,0.03653844558134242,-4.0184044697136265,-22.921717268083793,-76.71560042001451
1761286311.5767047,-17.188007796039734,-0.06976703506988918,0.8292641245686685,0.04103044718164652,-1.6970700432486856,-21.393211924582953,-74.68342148039497
1761286311.5867114,-17.830530682477,-0.05930243102788004,0.8077212145321426,0.04612881724488795,0.1553904759908475,-19.652372542307873,-71.93359842236069
1761286311.5967097,-18.437000789993235,-0.058341016373792715,0.7878629651249228,0.05204442422133307,1.5443892837405673,-18.03297749250496,-68.33889153029669
1761286311.6067288,-19.00339744000309,-0.06733946446766328,0.7685812993741599,0.058522971186459605,2.5072794799845153,-16.87726534999387,-63.80787096602843
1761286311.6167233,-19.525208721638254,-0.08562791098647522,0.7486433552720987,0.06485368502296049,3.11886607287848,-16.482235904510357,-58.30448853499289
1761286311.626695,-19.997582064449023,-0.11149703691544312,0.7269355089465469,0.06999223523740733,3.493591929395593,-17.045797839000873,-51.864401009652354
1761286311.6368248,-20.41561232880886,-0.14242966967830425,0.7027278091308123,0.07278269010694578,3.782897518155497,-18.621236956329682,-44.60479610764555
1761286311.6469114,-20.774746626009772,-0.17546103532519775,0.675926341026041,0.07223827845581045,4.16675452251468,-21.08834963831926,-36.72483640167942
1761286311.6569688,-21.071262934946102,-0.2076308003994042,0.6472753689460841,0.06782099872035012,4.839174286645541,-24.1482354990941,-28.494833621144824
1761286311.6667063,-21.3027607216615,-0.23646714211948966,0.618470922775232,0.059652883647924065,5.988526987110862,-27.34605038434169,-20.23391355490491
1761286311.6767488,-21.46858936754142,-0.2604227368717526,0.5921539739906486,0.048599808305916384,7.774607386415349,-30.122063245377433,-12.278088422899824
1761286311.6867661,-21.57013592511826,-0.2791702699091727,0.5717638469205195,0.03619057504085988,10.3053169082554,-31.88656444589332,-4.9429191159269505
1761286311.6967418,-21.61089824304313,-0.29366669350119917,0.5612489956586536,0.02436704259516403,13.616378701747536,-32.109317171701825,1.5133056819259794
1761286311.706712,-21.596287081532413,-0.30592030898359307,0.5646495033633039,0.015101151351347363,17.657508356957734,-30.410328985297145,6.919349372061027
1761286311.716751,-21.533138807643276,-0.31845157901204985,0.5855798644927106,0.009952905872395279,22.287867756109005,-26.636765431524832,11.208164028486015
1761286311.7267287,-21.428978252761592,-0.3335213175068818,0.6266512691349099,0.009668285684059209,27.282461773786295,-20.911554338989138,14.418165528410713
1761286311.7372596,-21.29113373095711,-0.35228221817675587,0.6888856876913673,0.013919681557042053,32.34951957500633,-13.64276029494847,16.678724033133264
1761286311.7467277,-21.125850215466496,-0.37406015133404336,0.7711966121745248,0.021269562719650702,37.15710502285575,-5.48861765593575,18.183287430335568
1761286311.7567046,-20.93755659125258,-0.39597268904201377,0.8700406076346046,0.029387356696964257,41.365685379803,2.7197928416931805,19.156098538926766
1761286311.766746,-20.728416852211772,-0.4130438013331509,0.9793649124227346,0.03547419716764438,44.662681604214676,10.089065388754436,19.81959005823167
1761286311.776711,-20.498241961479224,-0.418883894250921,1.0909706554166283,0.03677604582113801,46.795344763243165,15.791910439256908,20.368921685437698
1761286311.7867446,-20.24477189691921,-0.40688244829083964,1.1953626818312793,0.03103532863372424,47.599201685913094,19.19401564230139,20.957850016876606
1761286311.7967513,-19.96426956601868,-0.37171981742097004,1.283051551485236,0.016769646542749938,47.019865668496955,19.958175906621552,21.696751630235507
1761286311.8067558,-19.652313810398343,-0.31087284670197946,1.3461115571363176,-0.006646759269468052,45.12560284974129,18.106155521784686,22.660066388547243
1761286311.8167129,-19.30465058078847,-0.22571150139702043,1.3796281431746666,-0.039038704529186466,42.10710122142128,14.02421506384862,23.897762869535217
