timestamp,angle,linear_acceleration_x,linear_acceleration_y,linear_acceleration_z,angular_velocity_x,angular_velocity_y,angular_velocity_z
1761285399.6615899,-4.216615497751217,-0.04532235727652887,0.9719203133138936,-0.12465920207484615,6.471744794456485,-1.6660918650463328,5.079544739052159
1761285399.671549,-4.0932069360858625,-0.041328634880518064,0.9741605405654559,-0.13740811036058317,6.313372999397265,-1.9673302286449297,5.03592761717893
1761285399.6815119,-3.968426834099416,-0.038760885319046166,0.9765742746743781,-0.15235592119598726,6.118215661393703,-2.2651105527077915,5.012189985982832
1761285399.6915345,-3.845760994507008,-0.037711119370270094,0.9789001270240314,-0.16923818329722,5.876626340005569,-2.5819723038022846,5.022254247018423
1761285399.7015285,-3.7283161328794185,-0.038109325646197255,0.9809064229011086,-0.18764628016400292,5.579415534050014,-2.9335907008340265,5.0767142333072215
1761285399.7116816,-3.6185385832388812,-0.03975239678393746,0.9824268076781403,-0.2070310637590806,5.220012929141752,-3.3246194668712805,5.1818305833531
1761285399.7215428,-3.518076715596487,-0.042356846763911965,0.9833784335425808,-0.22672097766899618,4.79637340990385,-3.745951878922239,5.339039347470754
1761285399.7316132,-3.427800678475181,-0.045620448003115245,0.9837612132773245,-0.24595489956559496,4.312188182179896,-4.174187919534845,5.545025631924004
1761285399.7415104,-3.347955313941121,-0.049277912231792155,0.9836412009443869,-0.26392859098492816,3.777080884640599,-4.5737622512976,5.792348877269929
1761285399.7515447,-3.278396425730269,-0.05313989951819934,0.9831238031230559,-0.27985267775513945,3.205685386128997,-4.90167867249719,6.070533851131765
1761285399.7616823,-3.218849876964178,-0.057110079636338615,0.9823236896802262,-0.29301831815004464,2.615771208682429,-5.114253788989039,6.367479079992923
1761285399.7718983,-3.1691346531959677,-0.06117961399117678,0.9813383601939094,-0.3028640568079256,2.0258191961620664,-5.1748417530325055,6.670999614225506
1761285399.7817614,-3.129300167116967,-0.0654013471368431,0.9802311449934756,-0.3090346783920901,1.452570057630404,-5.061285325054874,6.970319827426669
1761285399.7916026,-3.09964225449171,-0.06984806388142344,0.9790266134192979,-0.31142171406197194,0.9090347103692874,-4.771832471712864,7.25735542304336
1761285399.8016183,-3.0805835580549643,-0.07456208688250161,0.9777172435283481,-0.310177296398968,0.4032895743795931,-4.328434918933021,7.52765270580424
1761285399.8115416,-3.0724334633038737,-0.07950695107870119,0.9762763702128222,-0.30569841065406905,-0.06185297226378885,-3.7766645230996727,7.780872444751608
1761285399.8225818,-3.0750751671795657,-0.08453351877341012,0.9746711218911581,-0.2985850058487858,-0.4884227211445122,-3.1819259154485904,8.020718692057956
1761285399.8315175,-3.087653587146568,-0.0893712641756975,0.972871299861363,-0.28958007922273354,-0.8823651190496073,-2.622190836146043,8.254240343982158
1761285399.8415136,-3.1083494655402824,-0.09365086554940102,0.9708542391993914,-0.2795014488110515,-1.252368961956092,-2.17807507124784,8.4904944422589
1761285399.851526,-3.134316660526873,-0.09695730065222435,0.968608309007659,-0.2691739026906671,-1.6086438712946716,-1.9216156383581804,8.738656675721897
1761285399.8615158,-3.1618302725878946,-0.09890466187011829,0.9661371979893071,-0.25936784694904136,-1.9617632012625281,-1.9054503013356265,9.005781113544629
1761285399.8715253,-3.1866493554343434,-0.09921768945627464,0.963464827268768,-0.2507476368202714,-2.3216347377350997,-2.154152297547333,9.29452406418605
1761285399.8815312,-3.2045510149703,-0.09780283649462779,0.9606389367152428,-0.2438305327417983,-2.6966420618999063,-2.6592110706057714,9.601224663072328
1761285399.891517,-3.2119530533470773,-0.09479338524488619,0.9577312278457449,-0.2389562782285081,-3.0929927334405125,-3.378631776360042,9.914744262204284
1761285399.9015505,-3.206516765942433,-0.09055749379507616,0.9548331671512247,-0.23626760674315633,-3.5142949514112773,-4.241441199836135,10.216390692612443
1761285399.911534,-3.187615061232394,-0.08566442363144744,0.9520481495230716,-0.23570305725005913,-3.961362022433117,-5.156632154872117,10.48110125595092
1761285399.9215472,-3.15656677472669,-0.08081194502449034,0.9494817485997515,-0.23700453884739575,-4.43222665261842,-6.025363293258257,10.679859025489256
1761285399.93152,-3.1165743603870046,-0.07672553185618836,0.9472320922241023,-0.2397422457339268,-4.922341701160253,-6.754682563483284,10.783108508569654
1761285399.9415116,-3.0723522930945975,-0.0740456289353799,0.9453823778524773,-0.24335816256333215,-5.424946107051829,-7.270776118720274,10.764758435141944
1761285399.9515188,-3.029487460226681,-0.07322170886080685,0.943997241681459,-0.24722647336987802,-5.93157552254775,-7.5298199003055615,10.606244391755583
1761285399.9620461,-2.993619903246861,-0.07443052904677495,0.9431237815777176,-0.2507252051158999,-6.432691138601556,-7.524898986809525,10.300089367125215
1761285399.9715497,-2.9695636643255954,-0.07753137956370816,0.9427965650063929,-0.2533093002550895,-6.918387744109408,-7.288060327430701,9.852446225543927
1761285399.9815772,-2.960498096980741,-0.08206448817060881,0.9430447228976622,-0.25457231355372034,-7.379126869465167,-6.887258334437468,9.284222120919127
1761285399.9915447,-2.967349210500347,-0.08729178464381333,0.9438990785914146,-0.25428363400425563,-7.806425722107933,-6.418629550047389,8.630551678205995
1761285400.0015857,-2.9884518100630175,-0.0922732805399426,0.9453983699385734,-0.25239159756288915,-8.19342257122873,-5.995096772012688,7.938574693350746
1761285400.0115316,-3.019542217532209,-0.09596811993086773,0.9475954952246795,-0.2489896701503294,-8.535243934803143,-5.732691429549879,7.263654928062818
1761285400.021526,-3.054084586998241,-0.0973469751569434,0.9505661978676708,-0.2442511429157321,-8.829126064422836,-5.736182114319435,6.664330861318213
1761285400.0315368,-3.0838868427370087,-0.09550156631960754,0.9544221356858164,-0.23834501938331434,-9.074293040930867,-6.085627270045966,6.196413588250661
1761285400.041531,-3.0999207057741156,-0.08973775160627978,0.9593272911166134,-0.2313502011768343,-9.271659565281842,-6.82534640928931,5.906744426971941
1761285400.0515404,-3.093232321703745,-0.07964204665335356,0.9655125513241056,-0.22318657167404776,-9.42349571877211,-7.956517184681107,5.8271939293587875
1761285400.061603,-3.0558256525408805,-0.06511859008904192,0.9732797632175808,-0.21358102330731837,-9.533246623984878,-9.434145218912878,5.969515676641261
1761285400.071536,-2.9814247723720664,-0.04640266245521947,0.9829845846285792,-0.2020835370365962,-9.605719670893686,-11.1685726259754,6.321653907405267
1761285400.0815284,-2.8660654956590306,-0.02406294643261529,0.9949886839381661,-0.18814103012216055,-9.647805352517215,-13.031146939533638,6.846045568723531
1761285400.0915415,-2.708511734107702,0.0009969675705022126,1.009578301602937,-0.1712240148147412,-9.669758116088776,-14.863357003633968,7.480358164256416
1761285400.1014946,-2.510516982828052,0.0275373981061997,1.0268568210729239,-0.1509860813910313,-9.686834724912696,-16.48872700312141,8.140949481543817
1761285400.111541,-2.2769474531166085,0.05399482193428618,1.0466297042898733,-0.12742384801266224,-9.720818184036139,-17.726915882162025,8.729092466494068
1761285400.1215248,-2.0157586105823113,0.07852982427804753,1.0683074931024195,-0.10099927946175194,-9.800728464950394,-18.40955703737242,9.139665420612669
1761285400.1315281,-1.737789840735913,0.09913203441633657,1.0908549148561182,-0.0726893284584076,-9.961932504371013,-18.397196131228498,9.27160275590631
1761285400.1417587,-1.456330290113619,0.11379150809059829,1.1128101719464856,-0.04394022746691798,-10.242999812857267,-17.596198904696735,9.039017941217335
1761285400.1515408,-1.1864216934293415,0.12072687587833433,1.1323874829769562,-0.016523215675321414,-10.680053651146022,-15.97384220430344,8.381637299342135
1761285400.161596,-0.9438999582554607,0.11863990282405773,1.1476590636628297,0.007690250846934908,-11.299021229268517,-13.569239855285671,7.273086950656644
1761285400.1715274,-0.7442270471813968,0.10695042187924303,1.1567936814133972,0.026998115242235658,-12.106976255641309,-10.497594122596308,5.725696891193103
1761285400.1816552,-0.6012158164632954,0.08596025403050528,1.1583134656229719,0.04013505941820741,-13.084469782385376,-6.945729663217387,3.7908414149691816
1761285400.1915255,-0.5257919675900622,0.05690225803962728,1.1513244309183859,0.04648657653396951,-14.181057433379138,-3.1580291141835617,1.5543980940719317
1761285400.2017527,-0.5249594610360262,0.021850635707195223,1.135680806078832,0.046205643071121016,-15.315906855140094,0.5863902810583674,-0.8723915707939541
1761285400.2115202,-0.601128870968654,-0.01650256034725984,1.1120555782678667,0.04020770607374299,-16.38441091257047,4.002531163159032,-3.365645576825017
1761285400.2215307,-0.7519266072028132,-0.05516976335027473,1.0819053777952725,0.030047095265933785,-17.270430845553893,6.830206289372037,-5.803516304184881
1761285400.2316084,-0.9705319746200441,-0.09123285178271923,1.0473341394403175,0.017701461058900095,-17.862534497330195,8.861838255912103,-8.080819715558027
1761285400.2417803,-1.2465052452813403,-0.12218886559738534,1.0108745967872348,0.005303074192303886,-18.071649297600093,9.963183627010995,-10.12158474588466
1761285400.2515635,-1.5669938282752012,-0.14622441179660164,0.9752173059268905,-0.005141883047236085,-17.847066586721404,10.084156797448792,-11.887772262311303
1761285400.2617943,-1.9181512830116343,-0.16238577745901508,0.9429225562849,-0.012007770411596386,-17.18781359028904,9.258704422953858,-13.38296236482705
1761285400.2715957,-2.286582847135836,-0.17063263725624175,0.9161517479739698,-0.014244907584571162,-16.147079514857243,7.594485433051961,-14.650537017971011
1761285400.2815692,-2.6606408429089434,-0.17178090057945306,0.8964520332487715,-0.011491380451293042,-14.828532046438793,5.254617138062113,-15.766681603243503
1761285400.291603,-3.031427585951568,-0.1673529122104243,0.8846207831089767,-0.004088014755711002,-13.374756929748228,2.4347261961469946,-16.8292783391893
1761285400.301574,-3.393413183238649,-0.15936109338462565,0.8806648096038041,0.0070029035400415275,-11.94941920027106,-0.6610925233509992,-17.94434904211442
1761285400.312499,-3.7446316626765186,-0.15005497867613676,0.8838549868062909,0.020360107001628804,-10.715829728285842,-3.8420210378766106,-19.21201413699614
1761285400.3220806,-4.0864730128565405,-0.1416618830333794,0.8928628084389704,0.034319367620987876,-9.815215443562128,-6.947283441642008,-20.713905125514323
1761285400.3315785,-4.423133794120953,-0.1361481976916021,0.9059544223660434,0.04720780458378364,-9.348018845412845,-9.856325139670757,-22.50361328164443
1761285400.341524,-4.760819951631067,-0.13502243134785283,0.9212118988658068,0.05756112810921544,-9.360982858727919,-12.492065323286146,-24.601166881037543
1761285400.3515384,-5.106810856147903,-0.13919470029169154,0.9367515290824399,0.06429577107454773,-9.841749798169408,-14.818050957962393,-26.991840668461116
1761285400.3615189,-5.468495426412547,-0.1489022870344011,0.95091396045182,0.06681929258134525,-10.721460654203728,-16.831128009834913,-29.62896701484079
1761285400.3715289,-5.852482736290803,-0.16370695798366636,0.9624086855910349,0.06507352429909138,-11.884613697527039,-18.55152274323384,-32.43995291438956
1761285400.3815117,-6.263873194514751,-0.18256516857076863,0.9704026977103619,0.05951286755570226,-13.184395701003902,-20.012087114525194,-35.334446304595446
1761285400.3916228,-6.705753524131468,-0.20396575081278584,0.9745486829599429,0.05102507175707566,-14.460975167282685,-21.24814034733176,-38.213513010653756
1761285400.4015288,-7.178950582981687,-0.22612131052949996,0.9749539070443966,0.04080570746025037,-15.559974383891863,-22.289028834586997,-40.97873775333436
1761285400.4115236,-7.682047303034959,-0.2471903525375087,0.9720988513952007,0.030201999754769594,-16.348577701684867,-23.152258397196444,-43.54030841016662
1761285400.421615,-8.211631516500725,-0.2654989392356447,0.9667225622060555,0.020546283876116952,-16.727422832936565,-23.84073170162168,-45.823358814060846
1761285400.431561,-8.762720006787697,-0.2797271819133924,0.9596953639171858,0.01300179670947932,-16.637364335901832,-24.343175466970557,-47.772124500729795
1761285400.441574,-9.329282097901288,-0.2890313284789031,0.9518973611522382,0.008441719912188514,-16.061122409209137,-24.63730143540413,-49.35178181650047
1761285400.4515276,-9.90478421287738,-0.2930870318600801,0.9441150014443963,0.007376019102635295,-15.020502579936176,-24.69474182820522,-50.548135541805316
1761285400.461628,-10.482688892424775,-0.2920579972491541,0.9369616292682981,0.00993082649296839,-13.570205310398347,-24.486503250711664,-51.3655373670008
1761285400.4715688,-11.056863538485953,-0.2865091224059322,0.9308245533813893,0.015874259800775607,-11.789311881243867,-23.987726616505658,-51.8235297871921
1761285400.481574,-11.621878678788953,-0.27729060327079424,0.925840966766422,0.024674437293767188,-9.771489810787,-23.18094336886442,-51.95271730249475
1761285400.4915333,-12.173197182088721,-0.2654196200602549,0.92190534491332,0.03557334685679151,-7.614932673738291,-22.057647077495165,-51.79029129632828
1761285400.5015385,-12.707270596690456,-0.25198047155278486,0.9187086549289039,0.04766416308809134,-5.413045113018708,-20.618620848517445,-51.375520117753055
1761285400.5121222,-13.221564139502014,-0.23805376484924526,0.9158043394415792,0.05996622471968761,-3.246811010209871,-18.873855796764268,-50.74541724909887
1761285400.521537,-13.714528104729597,-0.22467348357485495,0.9126900445411904,0.07149708215962393,-1.1795473720912892,-16.842953028605354,-49.930760505509305
1761285400.5315356,-14.185524337189596,-0.2128015377170569,0.9088908538678732,0.0813425584217447,0.7456595886522626,-14.556634130367987,-48.95266192264331
1761285400.5415764,-14.634707122769578,-0.20330537750793093,0.9040310570234494,0.0887242177830544,2.5060249368725307,-12.059494813835919,-47.81995710805218
1761285400.551602,-15.062852093348516,-0.19692558929467435,0.8978861337534492,0.0930612968965177,4.09724318998099,-9.413567451720308,-46.52775261432004
1761285400.5615573,-15.471126090519393,-0.19422588851464676,0.8904121216487746,0.09402283802371761,5.5305798372595305,-6.701744757927268,-45.05749108631718
1761285400.5715437,-15.860796252452518,-0.1955262125198762,0.8817535810636608,0.09156561702592252,6.82963477558775,-4.0297496358527685,-43.378825142849635
1761285400.5815442,-16.232888580715034,-0.2008290811041336,0.8722326837841823,0.08595355340069044,8.027290870306146,-1.525181124879358,-41.453421879571
1761285400.5915427,-16.587824200403446,-0.20975775930019358,0.8623205670501748,0.07775393849991909,9.163018753546567,0.6677067037453852,-39.24057702709946
1761285400.601548,-16.925082253108183,-0.2215295521665778,0.8525897376962406,0.06780534351448206,10.280379242596622,2.398364993898616,-36.70424416830058
1761285400.6115427,-17.24295604099026,-0.23498658854578766,0.8436455968002746,0.05715281504630997,11.424345839470705,3.5254880362859597,-33.82081945842162
1761285400.6215541,-17.538475683811768,-0.24869777641928786,0.8360378785510234,0.04694964167369465,12.638033089157073,3.9366296548979847,-30.586801860142405
1761285400.631553,-17.807558277345006,-0.2611292783358144,0.8301591464153703,0.03833202909774826,13.958589928350689,3.5695322338130135,-27.0253082349278
1761285400.6415393,-18.04541225925776,-0.27086147087477,0.826146080165348,0.03228113400495733,15.412376468624227,2.431726011561994,-23.190387673083663
1761285400.6515582,-18.247171837759463,-0.2768156159871838,0.8238070126451874,0.029492205454035234,17.010004788543437,0.6144572404746134,-19.16817187547277
1761285400.6616333,-18.40868299537581,-0.27844907113294776,0.8226018013880285,0.03027088982008676,18.742241990060325,-1.7026464521435338,-15.074145742472554
1761285400.6715455,-18.527320272148962,-0.27588437671641186,0.821694586803906,0.03447269920183148,20.577963618400254,-4.258566798839408,-11.046230194625139
1761285400.681543,-18.60269492669764,-0.26995106587410367,0.8200868812002619,0.04149512274589726,22.465165847869113,-6.73016700570086,-7.2338962814969205
1761285400.6915362,-18.637124063204052,-0.2621338651536262,0.8168217002466593,0.05032487544485138,24.33548904242659,-8.76246969110867,-3.784106187665657
1761285400.7015655,-18.635763027090583,-0.25443276032014506,0.8112333975865524,0.05963690709098897,26.11193827374252,-10.007046808957162,-0.8254167090773772
1761285400.7115352,-18.60635041056571,-0.24914730357709466,0.8032052027701719,0.0679371917146968,27.718758633163443,-10.164511216577193,1.5480062202230873
1761285400.7215378,-18.558565121684182,-0.24859995447049105,0.7933882207599897,0.07373603847121331,29.0919090595057,-9.026440768495306,3.290474750514885
1761285400.7315385,-18.50304120246157,-0.2548150187165005,0.7833314272499415,0.0757305504943575,30.18831812395029,-6.511700226917904,4.414920462531182
1761285400.7415965,-18.45012951877356,-0.26917694755673616,0.7754729228450136,0.07296692679273259,30.992120790640598,-2.692028581003273,4.997193703463455
1761285400.7515528,-18.408539449749068,-0.2921060288851902,0.7729535348541244,0.06495450414840785,31.516444882169043,2.1978670297785037,5.173075250708917
1761285400.7615483,-18.384033624344383,-0.32280368662349357,0.7792396583712496,0.051717638152982824,31.800062836434197,7.769364001442551,5.127365724549535
1761285400.771588,-18.378369319255114,-0.3591227877356012,0.7975809301826831,0.03379002911502099,31.899223212999697,13.509813007485647,5.0755475135344685
1761285400.7818093,-18.388664198601223,-0.39760516632042203,0.8303715393849755,0.012167091938225773,31.87600708953095,18.832208863033713,5.239813692999225
1761285400.7915452,-18.40730613942736,-0.43370368727063524,0.8785210233874938,-0.011769522863497504,31.78536998022556,23.140391819337072,5.822508066675321
1761285400.8015695,-18.422439801199832,-0.4621799539620879,0.9409614410522847,-0.036353604454743886,31.663429289027246,25.90246021170045,6.98093641777034
1761285400.8115785,-18.418970874814022,-0.4776484670188145,1.0144169702617214,-0.059775642619749506,31.51947424430496,26.722858094177955,8.807760072146136
1761285400.8215466,-18.379956110507944,-0.4752237507609753,1.093536417184784,-0.08028035548835012,31.33364094443438,25.402823762587396,11.3204966515774
1761285400.8315463,-18.288207329157537,-0.45121385920021856,1.1714351806104768,-0.09641985746058715,31.06123046704466,21.979755877900264,14.462012242930756
1761285400.8415606,-18.127932139615783,-0.4037856031396011,1.240609003664873,-0.10733017189285134,30.643292534793247,16.738384632585404,18.11164909572551
1761285400.8515525,-17.886253636359335,-0.3335016328668591,1.2940778795813075,-0.11296811972107323,30.021544408650893,10.190057858958047,22.104404349297262
1761285400.8615744,-17.554482365945876,-0.2436070782475293,1.3265260729680517,-0.1142302046693519,29.154344752002366,3.020627741476318,26.253971073448177
1761285400.8715456,-17.129045692207114,-0.13994794142685404,1.3351689420506225,-0.11288666257783386,28.02978005540087,-3.9879274530499265,30.37490545071946
1761285400.881575,-16.612007957088487,-0.030458600726913882,1.3201321406531203,-0.11130861237454132,26.672280959343954,-10.052323713916019,34.2998665707702
1761285400.891567,-16.01114131986972,0.07574082831220291,1.2842641450762406,-0.11203376589089453,25.140587219117847,-14.485602280560432,37.88962553523717
1761285400.9017208,-15.33953777904224,0.16948431916465181,1.2324647888337783,-0.11727703819862037,23.51704663743858,-16.782360242263323,41.03580184120474
1761285400.9115984,-14.614793150521235,0.24271633733421963,1.17073504314443,-0.12851570988638383,21.89065987381806,-16.678053827513406,43.658242381575384
1761285400.9217381,-13.857842051112492,0.2894503275212847,1.1051958526220227,-0.14625225903665567,20.338251474976616,-14.173711679541391,45.69992203223068
1761285400.9315474,-13.091566104327189,0.3063833935833851,1.041284148393247,-0.16999458084007793,18.90889112289419,-9.524134120725025,47.12201903274372
1761285400.9415584,-12.33931664967028,0.29311558168189356,0.9832420752079616,-0.19842315231237653,17.61580494870013,-3.194316168751827,47.90076189637886
1761285400.951588,-11.62347840744471,0.2520050133541945,0.9339151770894963,-0.22966797236451914,16.437765602945735,4.206355938207175,48.02641685700783
1761285400.961563,-10.964162062028386,0.18773997402200684,0.8948027644906611,-0.26160920994110104,15.329132366984176,12.000510428566415,47.50395885013222
1761285400.9716482,-10.378074981141484,0.10672367922677854,0.866271931585192,-0.2921384726280609,14.235292428479957,19.518625069993924,46.35472919558646
1761285400.9815767,-9.877597929064452,0.016358793894422883,0.8478479355459888,-0.3193537463139573,13.109002404125006,26.165207700677023,44.61851429734521
1761285400.9915507,-9.470092441328113,-0.07569599493676486,0.838512187300215,-0.3416910691562495,11.92335645406584,31.469037343726665,42.35563768835613
1761285401.001555,-9.157468203649586,-0.16223348577382113,0.8369621066772465,-0.35800936416920554,10.678553189430431,35.114061681901134,39.648654119156525
1761285401.011559,-8.936042459509576,-0.23710702972849604,0.8418081780113977,-0.36764252921125107,9.401630848173475,36.950193440958,36.60310768540745
1761285401.0218835,-8.79671937952908,-0.2956827535815318,0.8517008557904012,-0.37042342482782536,8.140176529227515,36.98555662033308,33.34671086938041
1761285401.0315733,-8.725504851679334,-0.3350933491753535,0.8653929897031221,-0.366676791176961,6.952222103053924,35.36365955627574,30.026324307702566
1761285401.0415852,-8.704350936163411,-0.35428119425898236,0.8817519709471817,-0.35717654801927856,5.894974759747384,32.33039689214689,26.80229621509142
1761285401.05156,-8.712296122122726,-0.3538514810657619,0.8997404060166947,-0.343066623190809,5.014807958502384,28.196499201182647,23.840043727686503
1761285401.0615454,-8.726838085984246,-0.33578311417627926,0.9183854315656101,-0.3257507262724831,4.3402842862328015,23.300879912371123,21.299192307511408
1761285401.0715759,-8.725451667668436,-0.3030604623796176,0.9367547404640402,-0.3067627271653747,3.879111633190571,17.979285654667986,19.321072170783406
1761285401.081554,-8.687148605064262,-0.25928920625659524,0.9539520540682271,-0.28763318809322663,3.6190322899171967,12.540994520163807,18.015822699154352
1761285401.0921648,-8.59396477528067,-0.20834517469438202,0.9691372010303257,-0.26976753905394685,3.531881340897601,7.254426671160347,17.45068551683419
1761285401.1015646,-8.432254989043923,-0.15408315080942445,0.9815679346306473,-0.25434753536057814,3.579559610549204,2.340836233150888,17.641179360777357
1761285401.1115549,-8.193679822109306,-0.10011257282076791,0.990654109655633,-0.24226195509998547,3.720505523706396,-2.025933340036828,18.546683621035776
1761285401.121578,-7.875788506982044,-0.04963419653845154,0.9960114028158464,-0.23406744172807872,3.9153979758910804,-5.7161556150286374,20.07150979125531
1761285401.1315646,-7.482136227901949,-0.005326159189059009,0.9975017437555909,-0.22997739478769078,4.131198470379274,-8.639774986692677,22.071857974701288
1761285401.1415572,-7.021917912829862,0.030732715905166016,0.9952502592309008,-0.22987566942224621,4.34313085287204,-10.74258652733518,24.368231057797164
1761285401.1515698,-6.509146049494991,0.0571123674329501,0.9896330385754877,-0.23335145116382588,4.534679409780704,-12.003968034537797,26.762047826710308
1761285401.1615934,-5.961440467236034,0.07306009522562147,0.9812358941612812,-0.23975128583803065,4.696060985508755,-12.436206553644348,29.05451596273225
1761285401.1715932,-5.398530156449642,0.07851027914862657,0.9707904484765872,-0.24824394643428602,4.821836195571774,-12.084734318657583,31.065442457040525
1761285401.1815605,-4.840589710215403,0.07407320891713987,0.9590985554183349,-0.25789368230049614,4.908360543549106,-11.028153073404377,32.64966007772587
1761285401.191571,-4.306544632867489,0.06099899162037119,0.9469577761816534,-0.26773703664728815,4.951671693187513,-9.376827483598344,33.70912417787249
1761285401.2015681,-3.812481431942687,0.041111778657425,0.9350990751580908,-0.2768579290052581,4.946215977977671,-7.269022881097918,34.19939153370871
1761285401.2115672,-3.3702942654991688,0.01670817870012263,0.9241439269431901,-0.28445614924315576,4.884584271497702,-4.863965192147373,34.130001487486105
1761285401.2215667,-2.9866929817389387,-0.009587568722274668,0.9145829354373229,-0.2899063745685198,4.7581979861394235,-2.3317419294602275,33.55909586502398
1761285401.2315478,-2.6626843381770984,-0.035016349347968476,0.9067731517630568,-0.29280691346034565,4.55870199731265,0.15941162478096638,32.58330673449003
1761285401.2416468,-2.3936107086983416,-0.05692016251254421,0.9009478727912935,-0.2930174198521475,4.279712177068006,2.4572596528108455,31.32443005378782
1761285401.2515655,-2.1697823207881215,-0.07300276612592552,0.897231751983809,-0.29068241122906113,3.9185337951034622,4.4394312122927735,29.914663477224924
1761285401.2615955,-1.977671280106349,-0.0815833725187497,0.8956552830346785,-0.28623452559339685,3.4774983083372244,6.025011560012064,28.48221348857546
1761285401.2717273,-1.8015577652763464,-0.08180443173162627,0.8961648689586654,-0.2803705325807536,2.9646493679940815,7.18197156960297,27.138875657764114
1761285401.2816036,-1.62544543149327,-0.07375540009344922,0.8986267173317537,-0.27399548250467665,2.3936395056875255,7.929040064044456,25.97079876538336
1761285401.291551,-1.4350102537662983,-0.05848391076831361,0.902824503729889,-0.26813577417769624,1.7828590850798047,8.331394316322447,25.033130535095033
1761285401.301553,-1.2193280928475074,-0.03788250162558054,0.9084524894427113,-0.26382850150331844,1.1539694921156878,8.490445860313782,24.34869521477345
1761285401.3115668,-0.9721477434995831,-0.014459611705234507,0.9151078877770895,-0.2619996632819494,0.5301091815687836,8.528896871461209,23.910354621778467
1761285401.3216085,-0.6925356763166416,0.008976757507398018,0.9222883822974351,-0.26334638799398286,-0.0659400616859332,8.57301038823236,23.68632229928275
1761285401.3315513,-0.38480568176811375,0.029679802377448373,0.9294016182069593,-0.2682385970946301,-0.6133933707195824,8.734557981420881,23.62746860191449
1761285401.341558,-0.05774656513346624,0.045319153039989325,0.9357920811587316,-0.2766541799937048,-1.0947778898090432,9.095082870108902,23.675565717887192
1761285401.3516386,0.27674010103215463,0.054280845409772994,0.9407871430307865,-0.2881592221700219,-1.4969049925698485,9.694887109278984,23.771442043451465
1761285401.361595,0.6053931080569778,0.05586793512196767,0.9437596185405055,-0.3019414625145246,-1.811563752318983,10.528524804206187,23.86210714876287
1761285401.3715923,0.9154711981416417,0.05036818996394836,0.9442005323174137,-0.3169005237198077,-2.0360010164533575,11.547620956511567,23.90604787562698
1761285401.3815706,1.1964659019230615,0.03897348699071235,0.9417934961184344,-0.3317909107338101,-2.173154099848533,12.670622043989413,23.87608672196037
1761285401.3916414,1.4413810608630757,0.02356384014567295,0.9364811264150178,-0.3454020027180206,-2.23145819201203,13.797753046710184,23.759477816272714
1761285401.401549,1.6474019261152484,0.006401544644654311,0.9285150283550276,-0.3567453157513138,-2.223988106381281,14.828285111787437,23.55534267001664
1761285401.411569,1.8159090949554697,-0.01019697311782924,0.918484244433864,-0.36520983869479073,-2.1668142576254548,15.676633368483902,23.270083745407472
1761285401.421889,1.9519247493104495,-0.0241449632733319,0.9073199893870507,-0.3706489639849243,-2.076732635797841,16.284143226456703,22.911890126059284
1761285401.4315536,2.0631662208573296,-0.03378285763414556,0.8962734798852543,-0.37337928642080126,-1.968821248993291,16.62464737029056,22.485644468905594
1761285401.4416375,2.158901656225318,-0.037984062577241365,0.8868594438524041,-0.3740946829947613,-1.854406268511252,16.703536597984225,21.989332029161815
1761285401.451683,2.248765615997091,-0.03619296353010214,0.8807556212137847,-0.3737170546604523,-1.739906913008413,16.551583486217563,21.41250954825268
1761285401.4616902,2.3416371074327333,-0.028426165551547294,0.8796529309687605,-0.3732124239196877,-1.6267421008385463,16.21564473941619,20.736742011568772
1761285401.4715707,2.4446456922316147,-0.015254175029331322,0.8850622189378806,-0.3734008187669158,-1.5121919193571915,15.748521489916444,19.937416825143917
1761285401.481583,2.562362792947315,0.00223822752418104,0.8980977138130959,-0.3747855037742139,-1.3909308550296078,15.199835300713465,18.98614833252715
1761285401.4916193,2.696239391150914,0.02252397078061408,0.919269179573941,-0.3774235687158586,-1.2568858929349698,14.609074915678436,17.85308462404312
1761285401.5016131,2.844347027370038,0.04374554456518359,0.948319601007181,-0.3808559652956735,-1.105067312978157,14.001271525624412,16.508708305476137
1761285401.511661,3.0014561291303363,0.06386360092306279,0.9841406956994095,-0.38411089062514303,-0.9330578022611432,13.385266462328776,14.92504223614441
1761285401.5215704,3.159446537928904,0.08082844615513947,1.0247865769488083,-0.3857887287544961,-0.7419553256960509,12.754318640098816,13.076432200130018
1761285401.5316117,3.307999445953749,0.09275425496401918,1.0675924493970892,-0.384227549810511,-0.5367624304470228,12.088796106136211,10.940237249407554
1761285401.5418017,3.435480394497793,0.0980761180330857,1.1093950552072902,-0.3777348219381834,-0.3264546821515142,11.36073375460089,8.49777347186194
1761285401.55158,3.5299012237179666,0.09567659246796388,1.146842797462113,-0.3648550005796202,-0.1241485709137932,10.539940704026009,5.7356827109133075
1761285401.5616224,3.5798508440312573,0.08497765550762798,1.1767696427728689,-0.3446275295164621,0.05216754085389139,9.601063072246543,2.6475838904134075
1761285401.5715861,3.575306567772362,0.06600023145550848,1.1965869686693185,-0.3167818660762315,0.17802038482195484,8.530676792156582,-0.7644062407708541
1761285401.5817077,3.50826788881232,0.039393541499229405,1.2046310290303048,-0.2818230109266414,0.2199585706430825,7.333280560792923,-4.4887621553916945
1761285401.5915594,3.3731819995804693,0.006432532311682818,1.2004024591728848,-0.2409852600782537,0.1326233713972632,6.035088767064843,-8.504603797199852
1761285401.6015608,3.1671504587560277,-0.031022348764110412,1.1846506535437928,-0.1960664611166074,-0.14370599175616602,4.684801861739738,-12.782881402941452
1761285401.61165,2.8899199940886073,-0.07061116318328914,1.1592834239672094,-0.1491866953930477,-0.6838396820863002,3.3510016706328822,-17.288665789131937
1761285401.6216805,2.543670550089875,-0.10961442768973628,1.1271138654293553,-0.10253218644757588,-1.5753953872882371,2.1163765391559313,-21.984316855314674
1761285401.6315846,2.1326244199464814,-0.1451502235398792,1.0914868115542662,-0.058141608186350675,-2.9126633326693327,1.0695184802265667,-26.833084663838964
1761285401.6415553,1.6625134879755208,-0.17442106314831826,1.0558516677720937,-0.01776967572564997,-4.786668141278036,0.29547792067053297,-31.802490703867495
1761285401.6516168,1.139954326526249,-0.19499075973540175,1.0233599980674357,0.017168328168297196,-7.2725894479473085,-0.13346963859917774,-36.86669633773038
1761285401.6615622,0.5717892896977415,-0.20506160844848267,0.9965569156121965,0.04559389803659039,-10.4166382117525,-0.16541010538703646,-42.00708204283772
1761285401.6716566,-0.03554392473367978,-0.20371567272415395,0.9772032557149665,0.0667395786612551,-14.224871318844379,0.22634261910921655,-47.210528329458015
1761285401.6815932,-0.6765506000075693,-0.19108249930210255,0.9662246875414383,0.08013244499204586,-18.656117274806725,1.0415681682071196,-52.4654237788661
1761285401.6916304,-1.3470672597094848,-0.16840151575862258,0.9637563090291561,0.0856059458919718,-23.620333139526537,2.2544779871186456,-57.756109200792174
1761285401.7015755,-2.0444584789040987,-0.13795925595863795,0.9692460985272153,0.08334127271832155,-28.982636281066583,3.817423644841979,-63.05705156492984
1761285401.7116203,-2.7676060742731585,-0.10289684954409509,0.9815894408217053,0.07392096772322142,-34.572252232010726,5.666130385029042,-68.32825757667375
1761285401.7215707,-3.5167024845584653,-0.06690277649112815,0.9992772608523757,0.058363770862719926,-40.19489079615001,7.725668265870585,-73.51316963075476
1761285401.7315867,-4.292886738857774,-0.033828744677448966,1.0205462609160247,0.03810826739817967,-45.64670940863269,9.916533464208412,-78.53965940372954
1761285401.741599,-5.097783174950006,-0.007284551401517055,1.0435222599034095,0.014927856102323918,-50.72804418533669,12.16032169667608,-83.32400026629682
1761285401.751582,-5.933014929930981,0.009728037571695419,1.066349096005427,-0.009216327171803745,-55.25539070784634,14.384509416041672,-87.77707675173583
1761285401.7615886,-6.799761946660037,0.015092799117471016,1.087296549757283,-0.032358822357386914,-59.07060014115389,16.525878711623488,-91.81169788079744
1761285401.7715905,-7.698417305184168,0.007736921274918305,1.1048415225921144,-0.05271771991784533,-62.04686658185423,18.532151978904153,-95.34975294387444
1761285401.781619,-8.628370926972824,-0.01234056284421958,1.117719155746034,-0.0688588532607639,-64.09172327875176,20.36143267104014,-98.3280420046943
1761285401.7915945,-9.587922095395937,-0.04415702884680282,1.1249461135513465,-0.07981543698743471,-65.14776757076818,21.979146776243574,-100.70187410037458
1761285401.801665,-10.574297309609253,-0.0859179152353846,1.125824792601894,-0.08515030608262554,-65.19206154606762,23.352482458613135,-102.44592481935588
1761285401.811625,-11.583732694660391,-0.1352276257768492,1.119940109768231,-0.08495660496773284,-64.23509195762236,24.442873901377435,-103.55232145277694
1761285401.8216147,-12.611574000975441,-0.1892993162902298,1.107157104895522,-0.07980133745156688,-62.31988489665708,25.19772121776484,-104.02636136685744
1761285401.8316233,-13.652352911447204,-0.24513886652271755,1.0876201888121804,-0.07062278449059027,-59.52144061153726,25.543036342268067,-103.88057458085572
1761285401.841596,-14.69981388407288,-0.2996983421056767,1.06174841791415,-0.05859630160318586,-55.946163540216126,25.37886751887177,-103.12800406146653
1761285401.8517168,-15.746886905557837,-0.3500104121166664,1.0302187079730631,-0.04498412562872385,-51.730513236568605,24.579123030535637,-101.77564000646167
1761285401.8615878,-16.785622979414843,-0.3933212418915725,0.9939304771014724,-0.03098536368214407,-47.037818207906426,22.996835031459206,-99.8189504168199
1761285401.8720503,-17.80712568984128,-0.427233666470944,0.9539497558916633,-0.017602956498410552,-42.05218751471176,20.475088519301618,-97.2384091496744
1761285401.88167,-18.80152005660373,-0.4498588325842572,0.9114370592540337,-0.0055437284395222445,-36.96877641898683,16.862959453216295,-93.99881553647005
1761285401.8921187,-19.75799854104386,-0.4599608322465034,0.8675695795028809,0.00483572281029592,-31.980274633283557,12.035068046412315,-90.05201097533988
1761285401.9019117,-20.66497684081999,-0.45707325938047083,0.8234719407664293,0.013530479549309225,-27.260260633844315,5.912907130232078,-85.34332792019792
1761285401.9117422,-21.510384001194932,-0.44157112002937177,0.7801679717898793,0.02083712630097911,-22.94485986728886,-1.5140482858914088,-79.82175683273715
1761285401.9219208,-22.28210405773613,-0.41468950757927864,0.7385583258923615,0.027261905366092534,-19.114865141936576,-10.169441816176889,-73.45337019722514
1761285401.9316132,-22.968576138438127,-0.3784843806089994,0.6994191252533717,0.033404935758124005,-15.781015602831392,-19.875363314402676,-66.2369640842549
1761285401.9418848,-23.55954127660553,-0.3357306418005964,0.6634102088496456,0.03984123636727766,-12.875313530463506,-30.344066296989215,-58.22017017032543
1761285401.951721,-24.04689545334212,-0.2897534949205129,0.6310803716719666,0.047016318368653644,-10.25095377567991,-41.17840734389142,-49.5135664337964
1761285401.9616003,-24.425573064448496,-0.2441932927319297,0.6028604525449588,0.05516873421699792,-7.69264269664738,-51.88327155862576,-40.299774387052125
1761285401.97161,-24.69434997627203,-0.20271076659507994,0.5790412950330647,0.0642880526449951,-4.937850625995419,-61.88963562702693,-30.834407547275813
1761285401.9816124,-24.856429773653332,-0.16864820212037196,0.5597411453581483,0.07411270318949756,-1.7079299130588008,-70.59154041145996,-21.436269143479368
1761285401.9916172,-24.91967142746363,-0.14467466208883634,0.544876120237909,0.08416435795699276,2.253863797749876,-77.39415081480153,-12.465546996407094
1761285402.0015833,-24.89634077237766,-0.13246013977944443,0.5341577289795336,0.0938057354296493,7.142328333489076,-81.76871657764207,-4.290832299219731
1761285402.01161,-24.802324924008097,-0.13243878182004357,0.5271490364596902,0.10230340066165242,13.054580845617025,-83.30828464807007,2.751805234498724
1761285402.0216343,-24.655831701053938,-0.14372510295700083,0.523407810756211,0.10888013945782557,19.9653206954666,-81.77698886530118,8.40227401603136
1761285402.0316532,-24.475690942047073,-0.16423267259300306,0.522723858339841,0.11275019245029615,27.718599478673475,-77.14584458277227,12.515566896649498
1761285402.041585,-24.279462686761725,-0.19101210188632978,0.5254201342106781,0.1131394183113048,36.03894309333112,-69.60916169168716,15.089237161319048
1761285402.0515969,-24.08161849490154,-0.22077840728035736,0.5326455565534775,0.10929887322933847,44.56105133321091,-59.577907281817936,16.272910256467895
1761285402.061587,-23.89207837271477,-0.25054270766703846,0.5465589007126387,0.10052762831889561,52.873476897512674,-47.64951925884412,16.355883231226795
1761285402.0716438,-23.71534485369575,-0.2782096302115146,0.5703002680136113,0.08623241425363859,60.56844803120051,-34.557442697005825,15.73250618690742
1761285402.0815828,-23.55037778514635,-0.30296878214209016,0.607673213476635,0.06606013845518184,67.28814417949116,-21.107247593689856,14.849419716052592
1761285402.0923939,-23.39121521611192,-0.32532215623716215,0.6625130877828944,0.04012181742175409,72.75799008747485,-8.108497808353555,14.142918966556726
1761285402.1018457,-23.228200252966943,-0.34666613170062505,0.7377876955754096,0.009266542292311074,76.8003895277659,3.6884024969588407,13.977511172838797
1761285402.111605,-23.049560056401234,-0.36847634093606874,0.8345553885330796,-0.02471485826107905,79.32761511481006,13.643598584440756,14.597090183332892
1761285402.1217508,-22.843033622520252,-0.3912891283773033,0.9509816232034278,-0.059112438968225024,80.3189666124264,21.26467663036756,16.097771659668027
1761285402.131616,-22.59727439998587,-0.4137873884828616,1.081670847741611,-0.0906467088917126,79.79245842089061,26.230308120592618,18.426924082319186
1761285402.1415803,-22.302852726013025,-0.4323361088407491,1.217581391675881,-0.11611670068472184,77.78299690770172,28.404168112079965,21.40750272233037
1761285402.1516173,-21.952817268572772,-0.4412411913672543,1.3467287370203338,-0.1331847655812439,74.3363731597782,27.84231359953602,24.78177066744665
1761285402.161629,-21.542896749582475,-0.433821265547028,1.4557300122230612,-0.14106560972182292,69.52219768197976,24.794569895882486,28.26487939127056
1761285402.1718047,-21.071494012928977,-0.40412354427421726,1.5320108540142658,-0.1409022864200451,63.46121997437959,19.696950806234767,31.59711579002485
1761285402.1816487,-20.53962817932814,-0.34885193919668794,1.566237668205464,-0.13569164284673316,56.355973080197224,13.14959018269174,34.584167296329824
1761285402.1916008,-19.950924824544632,-0.26890562061125134,1.5543533856950682,-0.12973195972557258,48.5107262949297,5.874644331653057,37.11765766564665
1761285402.2015953,-19.31166274033491,-0.16995486469556847,1.4986033119159068,-0.12768998105339183,40.328619007135956,-1.347973100828336,39.173201072021406
1761285402.2116115,-18.630793364023795,-0.06175891903356741,1.4071973145372076,-0.13351014328071634,32.28034120874445,-7.762583152958063,40.78920792970294
1761285402.2216291,-17.919794237372404,0.043625397115764034,1.2926798809187299,-0.14946973381392908,24.847910312103487,-12.725351393339487,42.034764098550724
1761285402.2317567,-17.19223112194587,0.13419393184849704,1.1694775780732614,-0.17566058406320986,18.45582475123125,-15.780333494413256,42.97718837223479
1761285402.241687,-16.462986673260147,0.20019949649526775,1.0512985907663246,-0.2100418707601276,13.406853507893683,-16.707558239055114,43.65849748127387
1761285402.2517202,-15.74722860333354,0.23565306661773486,0.9490207237615607,-0.24901939972250986,9.838949111788297,-15.53376574581648,44.085770906127
1761285402.2615864,-15.059275876495464,0.2388908017366446,0.8694746619374731,-0.28834566621536384,7.713648723000764,-12.506555480127833,44.23532129995893
1761285402.2717748,-14.411538385436227,0.2122904469334902,0.8152199048596084,-0.3240572489126681,6.8374342799460575,-8.041355352628226,44.06666461729786
1761285402.2819366,-13.813665016577069,0.16140076790467422,0.7851445209110538,-0.35318877589410447,6.909085009776333,-2.654645737591225,43.54056196821527
1761285402.2916474,-13.271977225121331,0.09378123030992128,0.7755701886861905,-0.3741084723610668,7.580426605259573,3.1039542883541342,42.63573067576788
1761285402.301865,-12.789217399117236,0.01779429530657197,0.7815122656080079,-0.38646302461553456,8.516091913267003,8.711810628079938,41.36044497557171
1761285402.3116586,-12.364605542719513,-0.05848446676330089,0.7977991362497111,-0.3908421085835511,9.439939309290452,13.72077067199156,39.7573666905424
1761285402.3216467,-11.994167680348854,-0.1281351872095666,0.8198655015665234,-0.38833398588190593,10.160776216064608,17.79013779840762,37.90190982208676
1761285402.3317008,-11.671273211009934,-0.18597974285971558,0.844165668613095,-0.3801330445570412,10.57639117862359,20.704738622203774,35.89577101770699
1761285402.3416252,-11.387300520473723,-0.22885785747678464,0.8682619399547952,-0.3672980677864313,10.660537716659391,22.378427159381264,33.85772984884802
1761285402.3516545,-11.132347328378279,-0.2556062621030944,0.89069887124024,-0.350682032877542,10.4406561731022,22.84416865319698,31.913552137131425
1761285402.361641,-10.895918366023707,-0.2667978632954552,0.9107756375197658,-0.3309924744823845,9.974126176517757,22.233063670486494,30.186190471301234
1761285402.3716497,-10.667552678093378,-0.26433033591016875,0.9282989586912302,-0.30891231532771973,9.328499365351822,20.745969852798684,28.786891112354777
1761285402.3816094,-10.437381211434065,-0.25096041928569557,0.943363820047476,-0.28521422283747805,8.568070260043575,18.622126562869717,27.80752765254432
1761285402.3916197,-10.196617448407295,-0.2298614572691478,0.9561826031402437,-0.2608248496629278,7.746681825424864,16.10904624783278,27.314462105978542
1761285402.401601,-9.937976709718962,-0.20425091564222364,0.966966831310161,-0.236823027648015,6.905365768901873,13.437066694983375,27.34429091110659
1761285402.4116943,-9.656004719801002,-0.17710710751294534,0.9758559335080352,-0.21437723985253027,6.073088283238212,10.800774818538333,27.90178569089844
1761285402.421615,-9.347288749611899,-0.15097745523659192,0.982881918626124,-0.19463978392991932,5.269064313984564,8.348334479644604,28.960132346849342
1761285402.4316227,-9.010533155667414,-0.12787287469374775,0.9879580337174568,-0.17862054313407866,4.505477934431065,6.178688701745143,30.463284244206406
1761285402.4416475,-8.646501693786906,-0.10923891425287487,0.9908833818526825,-0.16706535969597403,3.789841866881927,4.345663016226209,32.33000037572327
1761285402.4517956,-8.257850001709457,-0.09598927726255567,0.9913612684323737,-0.16036344749181358,3.126595068949556,2.8671883634033657,34.459021018557884
1761285402.461652,-7.848881180339447,-0.08857994694365401,0.9890327924047583,-0.15850357292884726,2.517858311812154,1.7372691211421512,36.73486195366191
1761285402.4716363,-7.425250620763302,-0.08709547833248432,0.9835271846386927,-0.16108881865727256,1.9635217776929883,0.9380688361355498,39.03385586363725
1761285402.4816349,-6.993627793898382,-0.09131788319392004,0.9745279098232553,-0.16740659611219819,1.4609958526022289,0.4496777650582666,41.23026919278116
1761285402.4916637,-6.561302154100887,-0.10075469547112563,0.9618508994984974,-0.17653850037225835,1.0049985339375453,0.2557806716740412,43.20249010380048
1761285402.5016024,-6.135706693533721,-0.1146150339087286,0.9455294812342481,-0.187487382016174,0.5876881834116543,0.34447398978865845,44.83934539372559
1761285402.5116832,-5.723834560266815,-0.13174017727978685,0.9258988179946064,-0.1992983480038487,0.19931285481031194,0.7047193915171774,46.04651373018809
1761285402.5216022,-5.331549952156138,-0.15051848642939689,0.9036699354866062,-0.21115618804450995,-0.17061395246432834,1.3201238643136664,46.752753589956285
1761285402.5316336,-4.962847403861704,-0.16883960676603085,0.8799799561302688,-0.22245198252313858,-0.5317387933458293,2.1625917640629915,46.91531468034319
1761285402.5416453,-4.619182796217645,-0.18415747073666647,0.8564023124047219,-0.2328220030058652,-0.8911078344202894,3.1885714399773626,46.523575516706714
1761285402.551662,-4.2990555196287605,-0.1937170782097316,0.8349003382656993,-0.24216666379427929,-1.2514775913471055,4.33990055592842,45.59982193811248
1761285402.561634,-3.998025370352696,-0.19494655058404659,0.8177122631721343,-0.2506528020848763,-1.6100030138296375,5.54972876244391,44.196315481269394
1761285402.5716686,-3.709276396538595,-0.1859413737749853,0.8071668919892193,-0.25869208456147996,-1.957690396130764,6.752187010899829,42.38842850285274
1761285402.5817132,-3.424706416124705,-0.16591248177030374,0.80544473444342,-0.26688055819986517,-2.2800825342798303,7.893163920267489,40.264478779962346
1761285402.5916975,-3.1363725332668952,-0.13546547256632827,0.8143129433094425,-0.2758870490898889,-2.5596301073240997,8.939308877977307,37.913697006518355
1761285402.6016898,-2.8380160805806844,-0.09662533717175494,0.8348693784417454,-0.28629263363664104,-2.7799729463997926,9.883188923010147,35.41424774623086
1761285402.611661,-2.526363181827483,-0.052595029075032954,0.8673316310317424,-0.298403900259749,-2.9318278220271696,10.74385655824463,32.82326289377623
1761285402.6217148,-2.2019532951378844,-0.0073052602083305915,0.9109039029092615,-0.31207904898168454,-3.019451140514581,11.563309154367998,30.170454018897622
1761285402.6317134,-1.8693598230812842,0.03514607744451079,0.9637494745910019,-0.32660983939634813,-3.0660294906767316,12.40005888181635,27.456172733287413
1761285402.6417701,-1.5367949289871579,0.0710583477373454,1.0230870063447484,-0.34069338716563125,-3.116211457535944,13.321251640074667,24.653959908273873
1761285402.6516562,-1.2152044641962922,0.09760391256000855,1.0854123459400506,-0.35251164248890404,-3.2344906624222993,14.394642087764419,21.716857762585036
1761285402.661708,-0.9170403098217752,0.11314645273241394,1.146825115111541,-0.3599189771493307,-3.499133112789153,15.681413457422611,18.586227538319505
1761285402.6717045,-0.6549346653320977,0.11736320536314095,1.2034178971975815,-0.3607220978225058,-3.992449710956394,17.230402414913282,15.201612038925079
1761285402.6820896,-0.4404882154994825,0.1111687648703336,1.2516730124951028,-0.3530206103347088,-4.7890747205934945,19.073819322652437,11.510289112829385
1761285402.691673,-0.2833289708010169,0.09647476853819854,1.288810370319428,-0.3355587579031187,-5.944313022571778,21.224198714109235,7.475473352814252
1761285402.7022498,-0.19052169339983727,0.07584565284775435,1.313037156169819,-0.3080221814885419,-7.484554189950185,23.672252881109294,3.0825035519339306
1761285402.7116623,-0.1663334534465468,0.05211779781108759,1.323663228396451,-0.27120987788775797,-9.40132725205394,26.38554866664568,-1.6572948479415268
1761285402.7216632,-0.21230587246882202,0.02803871832721078,1.3210663674641638,-0.22703045799453156,-11.649922087908305,29.30826820356096,-6.705111875813441
1761285402.7317104,-0.3275548345911848,0.005963300848127026,1.3065210537078167,-0.17830866631346984,-14.152767727155757,32.36246883253944,-11.995402964065706
1761285402.7416391,-0.5092110284029133,-0.012373306254641291,1.2819366436661115,-0.12842917542953683,-16.807055208940206,35.45111294610749,-17.438727263369973
1761285402.7516472,-0.7529224156819048,-0.025995150885859766,1.2495699531681814,-0.08087864681404934,-19.49549880642837,38.4628185992152,-22.926524462701625
1761285402.7616343,-1.053355360109486,-0.03472893435385702,1.2117719128796665,-0.038768071799399645,-22.09868537540793,41.27801062640269,-28.33766199630542
1761285402.7717488,-1.4046499504368326,-0.03914821778010286,1.1708023127425733,-0.004422341193597699,-24.507229524900144,43.77604962931042,-33.54649426214646
1761285402.781664,-1.80080430669924,-0.040427540504644886,1.1287169918801436,0.020889087420196722,-26.632018226118227,45.84289992604059,-38.4319975439256
1761285402.7916956,-2.235979749342537,-0.04013185339365089,1.0873128612523082,0.037036713220595,-28.411219846429283,47.37878297322094,-42.88727386412986
1761285402.8016503,-2.7047305491142883,-0.03997804964524952,1.048110655191401,0.04492748969907768,-29.813360406425954,48.304988304468395,-46.828405273189716
1761285402.8116796,-3.2021663722985774,-0.041605235667429755,1.012357111112655,0.046249128801317964,-30.83645834073881,48.56876151015894,-50.20142531004101
1761285402.821639,-3.724053060330533,-0.046380022038222085,0.9810325154877351,0.043124238408393384,-31.50377256183205,48.145258496282025,-52.98621537280526
1761285402.8316576,-4.266851894280426,-0.055250520058352216,0.9548555605030081,0.03774410142609611,-31.8570475713066,47.036114729733555,-55.196518763539515
1761285402.8416526,-4.827694240100028,-0.0686546574071616,0.9342837467365238,0.03204332770337333,-31.948244429339013,45.265098923542396,-56.87595064202708
1761285402.8516586,-5.4042908773643585,-0.08648535450091636,0.9195110988519893,0.027458805096506902,-31.830717344854047,42.872221868593016,-58.09067116017082
1761285402.8616672,-5.994783301166469,-0.10811377573000393,0.9104655520969468,0.02479665323879957,-31.55072431291636,39.90814377093701,-58.920017237016935
1761285402.8716874,-6.59755507546963,-0.13246953674002016,0.9068089665490001,0.02421316693276028,-31.140092859041438,36.430553123481694,-59.44667745775327
1761285402.8816319,-7.211031122840097,-0.15817218379679934,0.9079450917476305,0.02530062437591004,-30.610786205724512,32.50341961495143,-59.74791722300353
1761285402.891669,-7.833498149089612,-0.183701372175995,0.9130434532092621,0.02725579915093836,-29.951984824591673,28.198902674173954,-59.88899609158288
1761285402.9016755,-8.462978037896017,-0.20758560265460632,0.9210870738399736,0.029098233539134356,-29.13008651526179,23.600606952250928,-59.919393262664116
1761285402.911668,-9.097177932373103,-0.22858440888014708,0.930947254277804,0.029898529464478966,-28.091755445623367,18.806198431559157,-59.87190920815964
1761285402.921646,-9.733527659422018,-0.24583893957257277,0.9414801896098774,0.02897676848170566,-26.76986199322799,13.927357168758968,-59.764252490257896
1761285402.931686,-10.369299878892884,-0.25897055228752597,0.9516315877761876,0.02603884213217607,-25.09188102933887,9.085643992074015,-59.602404366639
1761285402.94164,-11.001793760449592,-0.2681142838487724,0.9605306606420267,0.021231608423601483,-22.990060619328215,4.403900973609414,-59.38488974199013
1761285402.9517345,-11.628551643259865,-0.27388213794149596,0.9675557855991471,0.015112126467320347,-20.412440787914846,-0.0060039077987698725,-59.10707187260848
1761285402.9619172,-12.247571581431927,-0.2772592363589689,0.9723602223315279,0.008539257693309975,-17.333623182850094,-4.0572173491626184,-58.76472448856293
1761285402.9717352,-12.857477570632398,-0.2794440570943297,0.974855284985618,0.0025077915453097627,-13.764103284294954,-7.7011540861258005,-58.35638344034888
1761285402.9817736,-13.457613916455585,-0.2816522141657924,0.9751572719389663,-0.0020442426147853497,-9.756990013365511,-10.937215419498358,-57.88427273092608
1761285402.9917097,-14.04804038414445,-0.28491025362155453,0.9735107799228713,-0.004417901106114299,-5.411054181702224,-13.816625694703138,-57.35386461005942
1761285403.0021305,-14.629418715702291,-0.289869473133445,0.9702039098746544,-0.00428876778432126,-0.8692811294013625,-16.43891360220321,-56.772321508945026
1761285403.0116909,-15.202795869400745,-0.29666796954548275,0.965490604691851,-0.0017677565919778585,3.687529463132321,-18.940724836899587,-56.146163305832104
1761285403.0216815,-15.769302146133898,-0.3048613298562691,0.9595326633564571,0.002625552923467426,8.052079767058766,-21.477901636330817,-55.47852012436461
1761285403.0316918,-16.32979128197988,-0.31342949602718484,0.9523696260685514,0.008072511943505924,12.006179582255486,-24.202914826194256,-54.766300898844094
1761285403.0421016,-16.884453839595167,-0.3208532904227204,0.943919511083137,0.013626728006775413,15.339386729185309,-27.240584011226755,-53.9975723066807
1761285403.0517223,-17.432436517904623,-0.3252465020751784,0.9340086161804483,0.018411288438682206,17.86888261302335,-30.6653847038885,-53.14943569454604
1761285403.0616903,-17.971502636940443,-0.32453382252437774,0.9224254206227069,0.021796280336736543,19.458483697288962,-34.483445445045476,-52.1867132658833
1761285403.071711,-18.497775817773668,-0.31667538549598045,0.9089911576807582,0.023512711770304277,20.034704055094625,-38.621692177126555,-51.06176387742542
1761285403.0817125,-19.005615893937733,-0.2999397760365203,0.8936362844554042,0.02367635613428424,19.598058715790778,-42.92573040131787,-49.715677784222045
1761285403.0919971,-19.487674274203357,-0.2732104902305699,0.8764693449987995,0.022722365229370847,18.22826203580888,-47.16717199112976,-48.08092412747597
1761285403.103217,-19.93515880905566,-0.2362844212222121,0.8578261523162183,0.021275953401840273,16.08257946324547,-51.060285800396784,-46.08530027668206
1761285403.1131778,-20.338307631835153,-0.19010142132396463,0.838292559549648,0.019996874130441322,13.387241683460827,-54.28703509852486,-43.656861765721935
1761285403.1216521,-20.687036958195247,-0.13684173428546406,0.8186982444176141,0.01943543975057135,10.422409720650782,-56.52868332111277,-40.72947233635845
1761285403.131661,-20.971700782902754,-0.07984532839369303,0.8000786753366709,0.019929957980781374,7.501646806474336,-57.50117028955579,-37.248707041080074
1761285403.1417022,-21.183887593817236,-0.023341720586268815,0.7836011099465139,0.021563242505528515,4.947269417016046,-56.99046437529302,-33.17800239118218
1761285403.1516697,-21.317180125508692,0.027977121475691164,0.7704535366432839,0.02418126138368639,3.0633883591642097,-54.88331102223625,-28.505081143469052
1761285403.161666,-21.367813581230557,0.06946996725702217,0.7617037085167117,0.02746261312361977,2.1088813621401035,-51.18855056185172,-23.248684504819803
1761285403.1721272,-21.33518002883638,0.09705761810796862,0.7581449315826512,0.031016669583241115,2.2728206930520614,-46.0447618816525,-17.46544393859756
1761285403.1816802,-21.2221382828397,0.10765343254113921,0.7601517895713709,0.03448326607105823,3.654869739643063,-39.71151397732429,-11.256317119112946
1761285403.1916835,-21.03509948253016,0.099462297081722,0.7675701959656992,0.03760849359758449,6.25280800143138,-32.54381959840641,-4.771495844694322
1761285403.2016425,-20.783872800428224,0.07213077102890386,0.779662021277616,0.040278932301164756,9.958684367440986,-24.95211927310372,1.787761646246446
1761285403.2116735,-20.481277856913138,0.0267577220345619,0.7951177144456705,0.04250903933104985,14.564249319384832,-17.352814269212693,8.172131108820691
1761285403.2216306,-20.14255800186414,-0.03421215525206018,0.8121447000018887,0.0443904312403062,19.775441917333353,-10.116495470964725,14.093660715944328
1761285403.2316618,-19.78464925724144,-0.10718984789716907,0.8286359959052467,0.046022941604279485,25.234934437500648,-3.5220933473507934,19.24271535059165
1761285403.2416523,-19.4253604474597,-0.18772476582491623,0.8424187461489272,0.04745069387500521,30.55109496692431,2.275105886157741,23.312574252732073
1761285403.251654,-19.082501005372038,-0.2708631551879046,0.851570643292066,0.048619318004349876,35.33120414141068,7.255350867919006,26.030544001623788
1761285403.2616503,-18.77296970162305,-0.35157727047833137,0.8547716116731074,0.04935572088278601,39.21636879202926,11.523025575817266,27.192904631922055
1761285403.2716782,-18.511809349194582,-0.4252492691744779,0.8516337400366779,0.0493591615774979,41.91530286670143,15.272707529599325,26.69943106817947
1761285403.2816875,-18.311248478359268,-0.4881713826831568,0.8429351796217824,0.048192432012560626,43.23391733402741,18.737593441771953,24.581963909848888
1761285403.2916713,-18.17978550660615,-0.5379951780282681,0.8306845008455342,0.045275967463989604,43.097430593230165,22.128736267482065,21.02098264977211
1761285403.3018,-18.12140859646973,-0.5740362530523943,0.8179654709643231,0.03990458800244559,41.56165492759776,25.57569113063295,16.344811446433464
1761285403.3116968,-18.135067286014227,-0.5973297935211987,0.808555417150019,0.03131209902827309,38.81064115456635,29.079499675692954,11.008215314021635
1761285403.321907,-18.214506287267817,-0.610355880108357,0.8063648579636237,0.018796957054604303,35.1392732149669,32.48741134990229,5.550558089823396
1761285403.3318698,-18.348533126064705,-0.6164238563109928,0.8147963876385984,0.0018973245933899768,30.921553671538515,35.49557157887618,0.5377552505553443
1761285403.3421693,-18.52172695740488,-0.6188075924066572,0.8361445039518892,-0.019421210803602675,26.567765751591377,37.68145182036324,-3.5039717960188983
1761285403.3517635,-18.715524165528972,-0.6198172588121199,0.8711417929747471,-0.04461292429215082,22.476006745638944,38.56266185501302,-6.152032536126314
1761285403.361735,-18.90956035393556,-0.6200411474532593,0.9187151459858359,-0.07247554158251637,18.985281664656853,37.674022774697384,-7.138182434235482
1761285403.3717144,-19.083123370352723,-0.6179767855091763,0.9759812462398205,-0.10118100163971094,16.337775271429503,34.65154959822439,-6.377169904220017
1761285403.3816738,-19.21657507866648,-0.6101926113976144,1.0384985368148236,-0.12843925735501494,14.65658190988242,29.310756913046976,-3.9686331336628218
1761285403.3916595,-19.292616146470632,-0.5920348381944858,1.1007822955065725,-0.1518064171789481,13.942157330896226,21.706998263594933,-0.17274700020642075
1761285403.4016538,-19.297290451734778,-0.5587536635573517,1.1570485420932903,-0.1691064746540116,14.08685466156034,12.166854593734124,4.6350018925120535
1761285403.4122374,-19.22065790758908,-0.5068064844408346,1.2020791731413345,-0.1788806109390615,14.903303707424193,1.2821572170085858,10.021044290725111
1761285403.4216611,-19.05710883333943,-0.4350279363251721,1.2320314090006632,-0.18074615309941897,16.1601052022596,-10.13719475770514,15.552612257338945
1761285403.4317977,-18.805340011475874,-0.3453559810049378,1.2449961314896456,-0.1755596271505323,17.617745283851562,-21.148734708525286,20.848591948630744
1761285403.4417164,-18.468048615136638,-0.24288929095594333,1.2411653962539073,-0.16532821728844638,19.05862688312372,-30.79056590938367,25.61518257221422
1761285403.4517202,-18.051420000939455,-0.1352237041623988,1.222582864177385,-0.15288082339711756,20.307225982021162,-38.20461609297253,29.662933167560695
1761285403.462129,-17.564493439988702,-0.03122615144332361,1.1925727894775269,-0.14137198282276442,21.239036288730997,-42.74876801390227,32.90571913647722
1761285403.471706,-17.018491471465392,0.06043307947635322,1.1550212026492659,-0.13373190068197344,21.779498652033965,-44.077641527530304,35.34543413379088
1761285403.4816732,-16.426192446461073,0.1326226369768908,1.1136937248394407,-0.13218433920664266,21.895944246299067,-42.17792182257235,37.04790691873927
1761285403.4916787,-15.80140654175296,0.1806758294700168,1.0717297005972732,-0.1379307633146486,21.58641110556181,-37.353848328468445,38.11571845314407
1761285403.5016763,-15.158582248639107,0.20276018425324988,1.0313804459195262,-0.15105194922614296,20.868997659811928,-30.168806028164404,38.662633612519265
1761285403.5116658,-14.512531311065656,0.1997142001911789,0.9939876801417225,-0.17062179413095596,19.77437685266559,-21.356892732767093,38.79290147628134
1761285403.5216696,-13.87822662300737,0.17449517009207988,0.9601454004383836,-0.19497937201488147,18.342561673689374,-11.722164289820755,38.587214785444026
1761285403.5317216,-13.270606052328699,0.13143408101023918,0.9299625862918716,-0.2220779963185281,16.623430357174097,-2.042794590048818,38.09590344071162
1761285403.541668,-12.704307311943044,0.07548281143882599,0.9033435487202595,-0.24982905715005116,14.679293467274576,7.006442144027193,37.33902370273822
1761285403.5519242,-12.193267092935224,0.011588103366798578,0.8802203196773047,-0.276378651359286,12.587198496580987,14.905557959200463,36.31234768997705
1761285403.5617056,-11.750144261921886,-0.05573948348187483,0.8606984595073877,-0.3002853492688403,10.438839407022085,21.312480751249655,34.99778242831445
1761285403.5717013,-11.38556987136985,-0.12265513330270686,0.8451055480021384,-0.3205961458874642,8.336780142632,26.06039994229843,33.37640014415742
1761285403.581716,-11.107276924538127,-0.18604382120817067,0.8339535757393475,-0.3368368315179714,6.386911990004434,29.134873637512083,31.442038321898206
1761285403.5918453,-10.919208067414838,-0.24347282264844095,0.8278392157038299,-0.34894078354160296,4.68824396254511,30.637841793449155,29.213379190608784
1761285403.6016572,-10.820730241725824,-0.29308628013424176,0.8273103911275764,-0.35713999379626793,3.3219390909320374,30.746061444587284,26.74260621072368
1761285403.611697,-10.80609669156944,-0.333486834770337,0.8327265190023955,-0.36183940811964077,2.341779842578031,29.670894057585745,24.119175337481526
1761285403.6218472,-10.864285240604982,-0.36363810547121306,0.8441358580570364,-0.3634937377565803,1.7679583678724393,27.625063318875814,21.467886144093956
1761285403.6317139,-10.979305512253887,-0.3828088144744402,0.8611882527540916,-0.3625044978821303,1.5853730863094695,24.800144047643958,18.941216600675457
1761285403.6422606,-11.131008595289941,-0.3905650304616592,0.8830962010196579,-0.3591517357807767,1.7466913484018491,21.356318862606674,16.70670201186764
1761285403.652417,-11.296357803281463,-0.38680271234211006,0.9086516056478517,-0.3535683714211982,2.1795278112585605,17.42362428796793,14.930881689097008
1761285403.6618059,-11.451042045759658,-0.3718012210488906,0.9362991506808749,-0.3457566996637787,2.796366240094814,13.111902434093116,13.761892362884554
1761285403.672164,-11.571252656069523,-0.346273620534766,0.964259583249127,-0.33563941812946513,3.5054519735758234,8.525381831034245,13.313050527037534
1761285403.6816828,-11.635418016888096,-0.3113932392711497,0.9906880368852591,-0.323133578089517,4.220872318011302,3.77745212164773,13.649662719658522
1761285403.6916826,-11.625705199693407,-0.268785234451717,1.0138459138393248,-0.30823472172468935,4.870396428170107,-0.9982711845284974,14.780837253226245
1761285403.7016642,-11.529146579665541,-0.22048118004618716,1.0322621340755997,-0.2910981176278869,5.400251634463734,-5.643308461122483,16.65733653803547
1761285403.7116668,-11.338314037142636,-0.16883956886760393,1.044862062074593,-0.27210286018485963,5.7767054935994375,-9.977287730635629,19.175643833255215
1761285403.7216809,-11.051525125680806,-0.11643530201924003,1.0510492492765982,-0.2518835630997877,5.984922773015934,-13.808144133920619,22.187565153484886
1761285403.7316911,-10.67261398592692,-0.06592085058026768,1.0507336143147912,-0.2313166886369351,6.02593063170284,-16.947823872326005,25.51397230121896
1761285403.74181,-10.21033426424093,-0.01986511660972817,1.044307350820769,-0.21145678170606544,5.9126071368217294,-19.230815245463475,28.9608112262032
1761285403.7517874,-9.677485094346373,0.019417185759131067,1.0325758850097642,-0.19343078722952517,5.665476918423829,-20.532363392592316,32.33531952682803
1761285403.7623682,-9.089865509984314,0.05002677708287237,1.016655775177977,-0.17831115538013811,5.30888230321472,-20.78332174717825,35.46054807291234
1761285403.772056,-8.465166128832795,0.07061139206176112,0.997854294261753,-0.16699476589352177,4.867899845205673,-19.979238499288254,38.18672123910532
1761285403.7824328,-7.821897965015927,0.08045140398070853,0.9775459315482096,-0.16011193096768836,4.366214353106031,-18.182319171089752,40.398594000085
1761285403.792141,-7.178436953053896,0.07949078695782742,0.9570591904176019,-0.15797957353151676,3.825014032423645,-15.516108700921821,42.01865190944888
1761285403.8021605,-6.552232370020417,0.068312893119535,0.9375834935484325,-0.160600023623449,3.262804854929409,-12.153850777884877,43.00662708820734
1761285403.8121433,-5.959193829366999,0.048067137535880426,0.9201013881911617,-0.16769663839097335,2.695873676387881,-8.30230852901574,43.356254968024636
1761285403.8219602,-5.413241909248041,0.020357113550206123,0.9053464472421359,-0.17877218072439394,2.1390047069792293,-4.1832736180540016,43.09040646661431
1761285403.832295,-4.925987074643364,-0.01289650083999645,0.893783828606133,-0.1931754158959431,1.6060251260573541,-0.01507997569128468,42.25569202268629
1761285403.8417754,-4.506492068626424,-0.04960263647075208,0.8856097251895122,-0.21016391873819354,1.1098525731580582,4.0037351545426105,40.917387549001525
1761285403.8516831,-4.161073565382445,-0.0876390271903021,0.8807675656742059,-0.22895478432787073,0.6619236970415253,7.706862119280746,39.15515835539312
1761285403.861671,-3.893109007786913,-0.12496805670428027,0.8789806810419831,-0.24875885868377084,0.27113316865403964,10.967581897175664,37.05965985274595
1761285403.8717916,-3.7028340714750843,-0.15971887625550846,0.8798009886812831,-0.2687980663247644,-0.057380472669415324,13.700712330358403,34.729770731753305
1761285403.881712,-3.587142924385762,-0.1902338978523003,0.882670611659636,-0.28830934094830013,-0.32316946103724237,15.859684896473007,32.27003074179154
1761285403.8918736,-3.53943228332631,-0.21508671081967287,0.8869899136176346,-0.30654228787101395,-0.5307424396839724,17.430073225101562,29.787830442387286
1761285403.9016833,-3.5495550838718115,-0.2330858262655255,0.8921833992225121,-0.3227605397510656,-0.688946417019149,18.421373051799048,27.390010993582937
1761285403.9117267,-3.6039643727972575,-0.2432824239563548,0.8977552698120763,-0.3362580339138654,-0.8095111848777113,18.85893446092454,25.17873076383617
1761285403.921715,-3.6861264109849174,-0.2449980217072761,0.9033285882579423,-0.346399992498013,-0.9050685073863508,18.77766554050156,23.246683862177758
1761285403.931832,-3.7772584400096987,-0.23787881034747954,0.9086648824939724,-0.35269311768866773,-0.9871403249664935,18.2185238127326,21.67196104056921
1761285403.941685,-3.857400828590803,-0.22197012602873087,0.9136637936507662,-0.35488025630357983,-1.0646275224635409,17.22801747107453,20.51299972250554
1761285403.951868,-3.9067733245700507,-0.19779260311573943,0.9183448622818898,-0.35304320507825365,-1.1432141722278226,15.860131884482232,19.80416647278157
1761285403.9617412,-3.907304280765979,-0.16639526552843545,0.9228159934752995,-0.34768704584532006,-1.2258686700036834,14.17946734566133,19.552534120124868
1761285403.9721155,-3.8441726130644756,-0.12936118986184159,0.9272356268754662,-0.3397746572796486,-1.3143372678267549,12.264071547542942,19.736343877432457
1761285403.9817111,-3.7071737746119555,-0.08874736066276291,0.9317774052608503,-0.3306835909101778,-1.41126037255787,10.206547302088609,20.305487801401096
1761285403.9921942,-3.4917196996983337,-0.04695071198466597,0.9366057516264917,-0.32206971033059467,-1.5223656524434708,8.112482443313759,21.18412957277548
1761285404.0021534,-3.199313251845218,-0.006505988043421258,0.941867469494307,-0.31564142347428853,-1.6581531470662478,6.095942401778538,22.275332139513015
1761285404.011758,-2.837400496214334,0.030163849784694583,0.9476993189624662,-0.3128717618812079,-1.834597272183057,4.272476834997709,23.467319981970554
1761285404.0220737,-2.4185911872699544,0.061010613669352814,0.9542464822981704,-0.31469758137472337,-2.0726144939490183,2.7506375486071395,24.640812112236215
1761285404.0320036,-1.9593328056330441,0.08459566252427085,0.96168311293527,-0.3212690302004463,-2.3963241170383993,1.6232978499988449,25.676748811793832
1761285404.0416787,-1.4782072180818688,0.10025528032431272,0.9702242982784773,-0.33181221627575425,-2.8304041186750384,0.9601083092931523,26.463709537065792
1761285404.0516608,-0.9940780826753279,0.10816266978214557,0.980119907313795,-0.34465121157802353,-3.3970493229550227,0.802268163500021,26.90435983104308
1761285404.0622141,-0.5243460257498899,0.10926408838208485,0.9916257087663958,-0.357405081389328,-4.113094422278482,1.1604580475137245,26.92033353087017
1761285404.072282,-0.08356363514928322,0.10508310918887075,1.0049539205015825,-0.3673389158129621,-4.987720609310824,2.016245929754718,26.45504394988099
1761285404.0823975,0.3173851060476671,0.09741217725888851,1.0202105295019022,-0.371813000560339,-6.020882916007396,3.3265526157113925,25.474077885957783
1761285404.09226,0.671433667250478,0.08794461398489985,1.0373292832124694,-0.3687477652856846,-7.202339030636055,5.0299978688164,23.9631439423539
1761285404.1019526,0.974840007623764,0.07793149220268365,1.0560137351737442,-0.3570098434721911,-8.511083805300464,7.053461092386851,21.924034875846854
1761285404.1116872,1.2262232367781727,0.0679564246934154,1.0756990192089133,-0.3366326479613291,-9.915152301381866,9.317316681641069,19.36958419809509
1761285404.1216643,1.425399746686549,0.057894223920446186,1.0955419220269544,-0.308816578796992,-11.372089454770734,11.738627270708843,16.318908909763103
1761285404.1316543,1.5723091693428157,0.047063189436882515,1.1144418347560958,-0.2757041801533653,-12.830719243912583,14.232758877542834,12.794146808808733
1761285404.141688,1.6662588293441611,0.03451933003954963,1.1310909468826262,-0.23997966886042638,-14.234917406503131,16.714792298046458,8.81942205300556
1761285404.1516924,1.7055995101368793,0.019400737132523025,1.1440531564857397,-0.20438247940882284,-15.529701841745858,19.102218632567595,4.42209968842707
1761285404.1622145,1.6878210882019633,0.0012257278108630768,1.1518753238026418,-0.171238796384079,-16.669157196077506,21.319649802796324,-0.36423186605925423
1761285404.1721535,1.6099642174560862,-0.01992505554724003,1.1532354093581425,-0.14210301120212185,-17.62482897419767,23.305066890288174,-5.4960229249862795
1761285404.18184,1.469201312187467,-0.043371429397995605,1.147125092226863,-0.11757196751169408,-18.392655771529295,25.016091404680193,-10.916412889288452
1761285404.191688,1.2634404150020586,-0.06793202080301734,1.133050180662123,-0.09729890848939571,-18.996498209824985,26.434344014474537,-16.553373765899185
1761285404.2016947,0.9918317089061681,-0.09212289811239191,1.1112158710699316,-0.08019529737523517,-19.48689761388901,27.566255834558195,-22.320218435485106
1761285404.2116752,0.6550933043417194,-0.11440872499788876,1.082652997907881,-0.06476956080038362,-19.934726866622842,28.439553716864726,-28.118895793181867
1761285404.2217035,0.25561310364285544,-0.13345715180740164,1.0492416322064817,-0.04952157090291494,-20.42060911597993,29.095750999790166,-33.84583778511689
1761285404.231667,-0.202675528800478,-0.14835301447832183,1.0136024130569372,-0.03330299021133739,-21.022003925949285,29.579991978123292,-39.39941760415412
1761285404.241941,-0.7146081085543979,-0.15873911387277606,0.9788519723737985,-0.015570142929832102,-21.800394880352172,29.930222699538614,-44.68761093728589
1761285404.2522645,-1.2742274392759805,-0.1648635787930292,0.9482487798826497,0.003510502893083948,-22.79097294017389,30.167744963422688,-49.63441835574677
1761285404.2621713,-1.8752655594201548,-0.16752969190156805,0.9247803998930237,0.02310704252111874,-23.996664305390652,30.29080232766439,-54.183971822942254
1761285404.2721531,-2.5115918777507016,-0.16796105567107586,0.910758676308466,0.04189063432020686,-25.38742165137984,30.27213644506636,-58.30183024036986
1761285404.2818484,-3.1775682223858954,-0.16760952471735724,0.9074940408250022,0.0582856726927647,-26.904584824374396,30.060681114196207,-61.97357272030288
1761285404.2921164,-3.8682775516240975,-0.16794067136166949,0.9151091698205818,0.07075485101495696,-28.469104186845534,29.586941281765053,-65.20128803377936
1761285404.3018272,-4.579618990293824,-0.1702294653312475,0.9325245161381277,0.07807315410513514,-29.991752994393238,28.771235755198855,-67.99887088277804
1761285404.3120718,-5.3082820205286065,-0.17539122365317544,0.9576131014507717,0.07954878937385626,-31.383260014744984,27.53382589184127,-70.38714199619575
1761285404.3225048,-6.0516255063849576,-0.1838660147688477,0.987491384073616,0.07515749000687062,-32.56258050253115,25.805894547461488,-72.38969734944496
1761285404.3321745,-6.807493973221793,-0.19556977976591294,1.0188926093771198,0.06557055089718476,-33.46219013002165,23.540294873148905,-74.0300943703642
1761285404.3419287,-7.57400603612364,-0.20991832955884407,1.048559922638215,0.05207454651964146,-34.030123772849436,20.720949477693615,-75.330590066327
1761285404.3516767,-8.349349146642425,-0.22591857266071586,1.073599455303528,0.03639811312261909,-34.22924272523871,17.369806200615567,-76.31226609903604
1761285404.3617103,-9.131610568651515,-0.2423083007635902,1.0917476466348437,0.02047507954068576,-34.03471186961038,13.550428446339962,-76.99608649704437
1761285404.3716767,-9.918666021896021,-0.25771813159410645,1.1015278907441828,0.0061817764157936555,-33.43082981811031,9.367658428724116,-77.4042816315921
1761285404.3816893,-10.708135930710611,-0.2708301850502023,1.1022933939296509,-0.004910879499172025,-32.40821849868716,4.963306536617651,-77.56147365331667
1761285404.3916674,-11.497408002730122,-0.28051551371575784,1.0941714640808122,-0.01173276240831664,-30.962055179565045,0.5083817039068828,-77.49515322867303
1761285404.4017186,-12.283717086391677,-0.2859415377368584,1.0779370914164215,-0.013828433685454852,-29.09166048239227,-3.8071680158119134,-77.23540896066567
1761285404.411753,-13.064269959762548,-0.2866488070926001,1.054849468182985,-0.01137559092909865,-26.801456500310316,-7.786036997976981,-76.81407361183918
1761285404.4217374,-13.836402869511472,-0.2826022341012724,1.0264832055399686,-0.005112434362925475,-24.103116996180898,-11.235415698748996,-76.26358392146517
1761285404.4317222,-14.59776103294063,-0.27422369733206,0.9945769989368318,0.0038057699600456273,-21.0186083753615,-13.97841763043179,-75.61582714508901
1761285404.4417002,-15.346489173414769,-0.2624084063399417,0.960909778834922,0.013991842378380874,-17.58370975858522,-15.864790478703158,-74.90110846479226
1761285404.4516914,-16.081418266214953,-0.24851781148021387,0.9272032192594328,0.024023086759314364,-13.851479132499373,-16.780945446662404,-74.14718533451438
1761285404.461747,-16.80222594887148,-0.23433306189998776,0.8950435837916947,0.03262149690845151,-9.89502570819084,-16.659513194967627,-73.37814118244943
1761285404.4716666,-17.509539169699288,-0.2219513600244913,0.8658152320116896,0.038795228435811915,-5.8089174774393735,-15.488617889094954,-72.61276950301051
1761285404.4816873,-18.20494164575135,-0.21361462430246259,0.8406402750540998,0.0419256402972457,-1.7086440264097693,-13.320799090399962,-71.8621548308718
1761285404.4917533,-18.89084886685147,-0.21147260903448237,0.8203220102599292,0.041794013399049174,2.2722401202913582,-10.281001731994536,-71.126283471178
1761285404.5017931,-19.570221370859556,-0.2172970923716196,0.8052933480624189,0.038553583804757305,5.987403789989892,-6.572390850484297,-70.38977098792803
1761285404.5116587,-20.246103263004272,-0.23217738576971825,0.7955748217846933,0.03266210962109355,9.285337921226835,-2.478093282777215,-69.61710307387395
1761285404.5217447,-20.92099701997255,-0.25623879828892004,0.790748938557878,0.024794338295286458,12.019010347883105,1.6434740539257304,-68.74808770973338
1761285404.5317466,-21.596115746469895,-0.28843340953275337,0.7899586863497583,0.015751438407599468,14.057268254320235,5.372030375876988,-67.69445435825753
1761285404.541708,-22.270586659650576,-0.3264545342410023,0.7919391017262953,0.006377655167098871,15.297591560794062,8.249305684648998,-66.33867052749119
1761285404.5516675,-22.940709405229086,-0.36681966736509436,0.7950915194674999,-0.0025127391712369577,15.679571852473027,9.813680366258302,-64.53604115616227
1761285404.5617454,-23.599393127129716,-0.40514779962680814,0.7976072002300846,-0.010198422586998782,15.198109237587524,9.643924090887952,-62.120968673045084
1761285404.5717049,-24.23589914451173,-0.4366236644311206,0.7976377483271426,-0.01610218871114189,13.91485643532418,7.408130411140907,-58.91783898272925
1761285404.5817063,-24.83599479647513,-0.45659861976657323,0.7934967613482764,-0.019824610580842703,11.966011208214976,2.9119716561535656,-54.756350362490394
1761285404.591686,-25.382576984842657,-0.4612400213539044,0.7838675397254973,-0.021153677680326506,9.564316771367249,-3.8607136903706882,-49.49029155238699
1761285404.6019945,-25.856758162258828,-0.44812467314672344,0.7679899608290779,-0.020047848950638363,6.993260142608515,-12.721767153287242,-43.01799591125248
1761285404.6120205,-26.239337143341533,-0.416683446497754,0.7458040976523403,-0.01659591712351781,4.592094121493644,-23.272098295312063,-35.30219424646425
1761285404.621698,-26.512517999797247,-0.368435485499191,0.7180345652454768,-0.010961592936402767,2.7314118407970853,-34.91701668366224,-26.38688526150652
1761285404.6317465,-26.66170337027913,-0.3069869295496245,0.686205565304094,-0.003322674907777579,1.7803634992824462,-46.90285229481791,-16.40907074351771
1761285404.6416972,-26.677175626281056,-0.23779882387480836,0.6525818413239204,0.006184710076964892,2.0679769465050124,-58.37150975605495,-5.603597144356147
1761285404.651695,-26.555484463438237,-0.1677471895741706,0.6200353814872135,0.01750459925262761,3.842269135733157,-68.42779413309475,5.700232181952681
1761285404.661832,-26.300375476111416,-0.1045080116723822,0.5918424525452389,0.030667152614411435,7.231839713728019,-76.21362143563252,17.091188326761266
1761285404.6719215,-25.92311954157037,-0.05580825986514331,0.5714220212077116,0.04574725235465805,12.215317158622788,-80.98329862094792,28.098158082041245
1761285404.6817224,-25.442141822583867,-0.028596264909209707,0.5620352737833686,0.06277063019682678,18.604150095911983,-82.17433700634079,38.221187470128676
1761285404.6917138,-24.881907374113496,-0.028200947163066852,0.5664738976506066,0.08157959812693953,26.043499204329763,-79.46830763120109,46.96976265174357
1761285404.7017155,-24.271099158001142,-0.057566192548298104,0.5867673459835897,0.10168524294559055,34.03419840814348,-72.83605540262724,53.905139486574555
1761285404.711881,-23.64021841102433,-0.11665932363314649,0.623934134170557,0.12213817891130957,41.975966750317376,-62.56155075068571,58.68233116379037
1761285404.7217863,-23.01883390336394,-0.2021546160642864,0.6777915024740347,0.14145051223522703,49.22857139145811,-49.23929207411804,61.08673866080008
1761285404.731711,-22.43278692404421,-0.3074778723055171,0.7468272285224281,0.15760690408044722,55.18401817162793,-33.741858445236,61.06059783074647
1761285404.7419052,-21.90170311004781,-0.42326424620711234,0.8281345320122313,0.16820838391151885,59.33981670774819,-17.157047451270422,58.71550333986246
1761285404.751777,-21.43715488467997,-0.5382303601695766,0.917423680055955,0.17077867311953268,61.36178621150965,-0.6977493380284923,54.32906502425305
1761285404.7618668,-21.04174970040159,-0.6403946237029502,1.0091553066583747,0.16321404771739237,61.12561797422894,14.408329241953254,48.32580745608899
1761285404.7717502,-20.709289413872796,-0.7185028001815139,1.0968767790805525,0.14428588507471718,58.729973980570705,27.038450730051142,41.24429636737716
1761285404.7817128,-20.425974645654424,-0.7634503846157611,1.1738426366933439,0.11404804295870749,54.47958935347554,36.290794165319554,33.69390267400869
1761285404.7917078,-20.17245825066414,-0.7694692896054965,1.2339174398001445,0.07400017328376117,48.842642340187865,41.58171186011463,26.305398536636712
1761285404.8017385,-19.92643134062189,-0.7348797094593654,1.2726038691511408,0.02692805854356692,42.39042293559446,42.70995128629108,19.679563833548965
1761285404.8117046,-19.66537554555154,-0.6622866622733529,1.2878996945299988,-0.02354268858435032,35.72838105137778,39.87687607948747,14.337348735664808
1761285404.8235626,-19.36912619048676,-0.5581940384996041,1.2806719526436094,-0.07354040711848532,29.4269434919046,33.65796542243759,10.674595958453882
1761285404.83225,-19.021942138450587,-0.43209434067626573,1.2543820696027848,-0.1195166915963281,23.959469282857224,24.928833179966993,8.924660087505291
1761285404.8417194,-18.61386394149704,-0.2951737269993813,1.2142340124287538,-0.15867132711638773,19.653993225206072,14.756895417225913,9.13345954351569
1761285404.8517365,-18.14127261396744,-0.15885836375410603,1.1660243033978168,-0.189204950811172,16.66462462599845,4.275804584282116,11.15236641655166
1761285404.861761,-17.60672516500105,-0.03348726636717832,1.1150520010196503,-0.21043533379764676,14.96683837544448,-5.437789544112016,14.6533000066293
1761285404.8717513,-17.018278321304777,0.072634488365572,1.0653800572434875,-0.22281620945960143,14.377878468091987,-13.467838869950834,19.166857020433028
1761285404.881719,-16.388547405861573,0.15368628553947772,1.0195747012832868,-0.22786234927543583,14.599252669010708,-19.13204006563861,24.139321905466375
1761285404.8917172,-15.733676045609077,0.20634445532636875,0.978868871387634,-0.22795686168322252,15.273879413981714,-22.021831091738708,28.999969776603404
1761285404.9017146,-15.072278467919789,0.22952821913796542,0.9435782764135731,-0.22602340735135773,16.047387171147033,-22.012868466395368,33.22794733245512
1761285404.9116948,-14.424330359851131,0.22406189183455755,0.9135762981823791,-0.22508210876375864,16.622458247683618,-19.252175611798172,36.40873456920605
1761285404.9217093,-13.809955823374773,0.192373288796198,0.8886799847892484,-0.22775228890029445,16.797034746201618,-14.127420732761879,38.273025258990124
1761285404.9317102,-13.2480817038361,0.1382639178062738,0.8688691386515609,-0.23579828530344615,16.481004056080174,-7.221716358956126,38.71455431318371
1761285404.9417658,-12.75498913405038,0.06671956807344469,0.8543283769103899,-0.24982179483847727,15.690749317025569,0.7440979455622642,37.78692894873905
1761285404.9517698,-12.342863023611674,-0.016302399144828374,0.845356219847716,-0.2691764920609477,14.525643388414638,8.979525974474878,35.68234798450838
1761285404.9617736,-12.018499443249443,-0.10416968452584785,0.8422134818813048,-0.2921231194277659,13.13402035195935,16.69899074765312,32.69700217835806
1761285404.9717457,-11.782361138393906,-0.18998804570859024,0.8449791110439494,-0.31617852999278706,11.677431210637076,23.19682316964005,29.188904152767137
1761285404.981722,-11.628163895724581,-0.2671231060990365,0.8534544074875596,-0.33856726095684586,10.300809444129627,27.914901532520147,25.53398731302801
1761285404.9917026,-11.543126731016802,-0.3297819942678215,0.8671255717251546,-0.3566730479953297,9.113131746867419,30.494908278555794,22.08570553666436
1761285405.0017133,-11.50892996938313,-0.3735722630877069,0.8851747514800857,-0.368406847173114,8.179497747294075,30.808495934134072,19.142261877854335
1761285405.0117285,-11.50331409846621,-0.3959408073032164,0.90652408069084,-0.3724438636464027,7.5225928470652415,28.961286067722416,16.92417843995046
1761285405.0217288,-11.50214470056824,-0.39640722621591484,0.9299001303972609,-0.36831936359113193,7.130036863596532,25.270107958686697,15.56333883905366
1761285405.0317152,-11.481688135871119,-0.37654237127900514,0.9539110566163781,-0.35640045400255,6.96415125126232,20.216679636869408,15.10306439804419
1761285405.041714,-11.420804984885233,-0.339693310246614,0.9771315328950267,-0.3377651969946444,6.97160787031167,14.3843625570475,15.5074552337875
1761285405.0517194,-11.302783338976692,-0.29050645233988037,0.9981904813745174,-0.3140245868607879,7.0915624327782565,8.386990182833006,16.677338683515927
1761285405.0617263,-11.116601946515255,-0.23433679522892437,1.015855312352697,-0.2871214105607643,7.261801662966595,2.799608817046033,18.46980137971658
1761285405.071726,-10.857518746818876,-0.17664345044233964,1.0291060952919406,-0.2591344562923837,7.423033112556921,-1.8998803006000224,20.718394179655924
1761285405.0817182,-10.526995294155396,-0.12245910645858386,1.0371944849767225,-0.2321068872509619,7.521766146783359,-5.371541068358407,23.25157018095345
1761285405.091759,-10.13206217135921,-0.07599148164301334,1.0396840972136971,-0.20790557437430024,7.512335906860496,-7.433351776499969,25.907596238588688
1761285405.1019335,-9.684285447525436,-0.04037921304974363,1.0364700171080683,-0.18810838779043731,7.35855299136148,-8.06042759731578,28.544931677043753
1761285405.111758,-9.19850651863433,-0.017593256524037888,1.0277754105914432,-0.17391340006471454,7.035262747786243,-7.366607908806103,31.047799931199748
1761285405.1217318,-8.69150711704167,-0.008454031071540042,1.0141243694441082,-0.1660679035088635,6.52983284539647,-5.573484057838869,33.32733939237042
1761285405.1317315,-8.180712772508157,-0.012725889514279396,0.9962933365622392,-0.16482157604203362,5.843341631583832,-2.9728104090082645,35.31927064592493
1761285405.1417284,-7.683006001419218,-0.02925296898399249,0.9752478711395011,-0.16991183115721195,4.991093109613768,0.11194090983408737,36.97939800366464
1761285405.151735,-7.2136863148457895,-0.0561113720158437,0.9520745179415653,-0.18058843384178455,4.002078842749876,3.3601416525517083,38.27840361512246
1761285405.1617258,-6.78559354887948,-0.09076693236194344,0.9279169825567726,-0.1956802339855087,2.9171390232036076,6.481503853612341,39.19726061804578
1761285405.171914,-6.4084033383906505,-0.13023925539983222,0.9039218851982869,-0.21370150076127006,1.7858097625053397,9.235066025092872,39.724224051528736
1761285405.1817176,-6.088104077042557,-0.17127730467635835,0.8811943280680018,-0.2329901802223077,0.6621204056161957,11.43978466874607,39.85385555938162
1761285405.1917343,-5.826668625957545,-0.21054992154356644,0.8607597353592424,-0.25186618813442857,-0.4001585495595841,12.977973990831037,39.58802859318351
1761285405.201727,-5.62193853635196,-0.24484959219023747,0.8435270251465833,-0.26879506343499426,-1.3521946682402897,13.793418174552562,38.938441738093914
1761285405.2117286,-5.467742130320829,-0.27130260115784505,0.8302492235315657,-0.2825409333051639,-2.154108628570818,13.886037086106084,37.92987756683137
1761285405.2217765,-5.354268116130096,-0.2875744110076659,0.8214808765579931,-0.2922924078879937,-2.7779016560604,13.304640449667355,36.60328986784223
1761285405.2317445,-5.268709243269487,-0.29205502974986586,0.8175364537942144,-0.2977457321436827,-3.209110753764005,12.138741546182372,35.017789903565784
1761285405.2417243,-5.196171417585116,-0.2840051479393278,0.8184588352288161,-0.2991320590001128,-3.4472333395541925,10.50982386580321,33.250740467078046
1761285405.2517533,-5.120812051218641,-0.26364185468926754,0.8240094705652512,-0.2971811656870201,-3.5051171393194536,8.562038347688866,31.395443953297793
1761285405.2617164,-5.027132614085158,-0.23214539430753126,0.8336899814436476,-0.29302255869889315,-3.407570178137868,6.452147384819643,29.55628428759082
1761285405.2717283,-4.901313463695119,-0.19157608749548527,0.8467992672908741,-0.2880349206802535,-3.1894104704751793,4.338621944927472,27.841592342447026
1761285405.2817848,-4.732452056561049,-0.14470064914179195,0.8625230564613265,-0.28366266307418425,-2.893071004696221,2.37008527252949,26.35489410212023
1761285405.2917426,-4.513553774149694,-0.09473688648965219,0.8800464128449604,-0.281221101930372,-2.5657618671697917,0.673715624800274,25.18550983807389
1761285405.3018255,-4.242132876915305,-0.04503505759466161,0.8986741190474307,-0.28171019963630933,-2.256145012599308,-0.6553003055287475,24.399631861395427
1761285405.3117406,-3.9203161355675116,0.0012749070701825076,0.9179386588099908,-0.2856548265808874,-2.010548939115023,-1.5617344099722308,24.03296986938016
1761285405.3217888,-3.5544073543431116,0.041627910718276755,0.9376718986907728,-0.2929901388704747,-1.8689314990236954,-2.033941120295242,24.085813405592383
1761285405.3317482,-3.15396177509671,0.07430481731975232,0.958017476294075,-0.30301285456550975,-1.8610277014397671,-2.1015390465213146,24.520963938121678
1761285405.3417366,-2.7305186170642872,0.09858805471877521,0.9793691193356945,-0.31441872442856755,-2.0033051836025497,-1.826262155899945,25.26452854907153
1761285405.3517575,-2.296223126405572,0.11473634664966613,1.0022360348888752,-0.32543907563936514,-2.2973950878625025,-1.2863811671660246,26.20917709093937
1761285405.361776,-1.8626074619559538,0.12375553877032199,1.0270565653702144,-0.3340727513530559,-2.7305039568569516,-0.5568199148095465,27.21926953806578
1761285405.3717673,-1.4397672924217468,0.12700383115413433,1.0539985279615696,-0.3383858238467657,-3.2779586329745314,0.3111683755171673,28.137316459738827
1761285405.3817546,-1.03606415039576,0.12573851966952385,1.0827923500110137,-0.33682729009101636,-3.907600189837401,1.305852078597776,28.791491275099208
1761285405.3917994,-0.6583334027359452,0.12074779204642902,1.1126388255967312,-0.32849500072662,-4.5853791374133746,2.4618458554755582,29.004203941436145
1761285405.4017327,-0.312440260274374,0.11218860324211186,1.1422187699059336,-0.3132909993181966,-5.281330100092104,3.855373930548285,28.60185941834024
1761285405.411746,-0.003952467531376529,0.09967702153939881,1.1698101805026573,-0.29193101024898754,-5.975132987440356,5.588605251408446,27.42572817148547
1761285405.421732,0.261293039876789,0.08258481631297528,1.193493681359247,-0.26581000368454405,-6.6606191841779605,7.766866147495113,25.343400017675847
1761285405.432217,0.47688009863184233,0.0604271270743857,1.211405550382238,-0.2367583017882855,-7.348769172549936,10.47446334635253,22.2597943193748
1761285405.4417515,0.6358145072437087,0.03320776521795374,1.2219875942021685,-0.20673943993163985,-8.068941931885748,13.754830284625761,18.126417974623585
1761285405.4517317,0.7308066420226974,0.0016201832056852252,1.2241888358899924,-0.17754377972445967,-8.868274347199378,17.598927944679364,12.94764295512775
1761285405.4617405,0.7547511669188471,-0.032939158473351396,1.2175919579614995,-0.15052906707292835,-9.809355924598794,21.943168965555746,6.783168935782325
1761285405.4718177,0.7012981272670427,-0.06852966834564987,1.2024586862736455,-0.12645409837725535,-10.966350129646544,26.67562288243271,-0.25363543610049666
1761285405.4817436,0.5654154323190598,-0.10294256251614446,1.1797040351785903,-0.10543947128035609,-12.419664568919721,31.647614199585835,-8.001334905917851
1761285405.4917452,0.34386402603218835,-0.13402297501300575,1.1508146598688787,-0.08706502320863306,-14.249141443855306,36.68731475640784,-16.25946230371821
1761285405.5017526,0.03553218463332665,-0.1599709033592805,1.117721720134533,-0.07058064559681711,-16.525712061733177,41.61248411681952,-24.80030467950166
1761285405.511753,-0.35840201183164244,-0.1795692733826725,1.0826305817805084,-0.05517650719845988,-19.30168505144568,46.24078600816855,-33.38265704273078
1761285405.5219772,-0.8344911700584532,-0.1923101402582435,1.0478097142436378,-0.04024193256603167,-22.600340752851857,50.39756866289017,-41.76659172624847
1761285405.5317883,-1.3872145674491254,-0.19841502989719575,1.0153547752367627,-0.025547219643825992,-26.40613692636721,53.92207715864782,-49.728051229133605
1761285405.541733,-2.0093247861689165,-0.19876505063094074,0.9869628173251528,-0.011308689346093661,-30.657317064925635,56.67339169671926,-57.071909970738446
1761285405.551743,-2.692304913895752,-0.19476406620417566,0.963760780002779,0.0018672154139333936,-35.24276245809381,58.53692982464972,-63.64220659118427
1761285405.5617294,-3.426883575950791,-0.18815536549881787,0.9462240642096983,0.013134529424940517,-40.004400202120635,59.43143990538336,-69.32853133436778
1761285405.5717702,-4.20354646313501,-0.18080771574646406,0.9341988268027097,0.021609689537690886,-44.74547869590594,59.315557334990835,-74.06801361907849
1761285405.581778,-5.012982374462111,-0.1744877744805332,0.9270161983687341,0.02657740395269512,-49.24384953113747,58.19260998317037,-77.84295475396944
1761285405.5917325,-5.846413157694002,-0.17064267261273522,0.9236679449884758,0.027658645067912428,-53.26840320236606,56.11255548008803,-80.67478821081124
1761285405.60176,-6.695780451010764,-0.17022395246377942,0.923004630854786,0.02491155433061499,-56.59630992449984,53.17051326033957,-82.61555180564682
1761285405.6118333,-7.55379252294793,-0.17358557316928805,0.9239162665498795,0.018853443913364198,-59.02888702759791,49.501985739290035,-83.73829287846806
1761285405.6217597,-8.413863205015197,-0.18048017217162732,0.9254598333673985,0.010410051561559759,-60.404642514696135,45.2752691999578,-84.1277640633579
1761285405.6319046,-9.269993777595039,-0.19015927171475272,0.92691067061455,0.0008111104882447475,-60.60896151299682,40.68164342207843,-83.87244486858113
1761285405.6419737,-10.116652710449385,-0.20155848527527145,0.9277370728887357,-0.008545054237195818,-59.58059534087721,35.923827624385716,-83.05845840362008
1761285405.6518803,-10.948696795914664,-0.21352440700344286,0.9275233356391277,-0.01624015112328666,-57.315342140858014,31.203154337259242,-81.76549639962161
1761285405.6617985,-11.761355199195373,-0.22502550827739604,0.9258840965384054,-0.020987378294160662,-53.86710211894885,26.706129539553437,-80.06453448256423
1761285405.6718643,-12.550274717966932,-0.23529566017336054,0.9224132266421521,-0.02177776366050899,-49.34610902390912,22.59148820863276,-78.01695613794443
1761285405.6818151,-13.311609837386179,-0.2438874627543608,0.9166931941087813,-0.018009100251022394,-43.91391400550921,18.97929436320396,-75.67469455243129
1761285405.691751,-14.042139183589029,-0.2506495215103183,0.9083634080681643,-0.00957931849959425,-37.77483206820889,15.943783154433769,-73.08110233753328
1761285405.701754,-14.739397029678017,-0.25566682925285206,0.8972212092453418,0.0030742554638663972,-31.164021390242635,13.511276816739903,-70.27240478841537
1761285405.7117667,-15.40181596613736,-0.25920571257960195,0.8833182675572621,0.01900089794208745,-24.332934123448627,11.663576045733997,-67.27969793908639
1761285405.7220175,-16.02887690420681,-0.2616884242717151,0.8670205812586264,0.0368269716613776,-17.53333146445603,10.34593326112666,-64.13144517615943
1761285405.7319355,-16.621252864828463,-0.2636987495285416,0.8490147689832207,0.05489879306998371,-11.001302044763165,9.477494578087681,-60.85629659823927
1761285405.741812,-17.180917274825923,-0.26599924702396904,0.8302579809886843,0.07145840138357429,-4.942755960736553,8.961454229751098,-57.48586250457218
1761285405.7518988,-17.711172759574424,-0.26952936966906904,0.8118794473431127,0.08483027615165857,0.4783055503902568,8.692388020689245,-54.05689981722037
1761285405.761782,-18.216549331790215,-0.2753540987150139,0.7950482935609253,0.09359865322049829,5.147786722588023,8.559261565266846,-50.612288841820934
1761285405.7717605,-18.702525718484956,-0.28454397145019983,0.7808258397121633,0.09675882723895098,9.005250273447492,8.444115567722042,-47.20021912686498
1761285405.7817523,-19.175046234073935,-0.2979868480083872,0.770022458726091,0.09382967683190065,12.043414050973785,8.217977332324132,-43.87116087794738
1761285405.7917786,-19.639838000971746,-0.3161557653904238,0.7630798950838039,0.08491759602270745,14.303838061293726,7.736712939731879,-40.672470998460646
1761285405.8017452,-20.10157675144834,-0.3388801635178968,0.7599991792423424,0.07072442679369371,15.869546257907094,6.839986574937059,-37.64088540151281
1761285405.8117738,-20.56299723052966,-0.3651820157460137,0.760330819923465,0.052494932456113724,16.855410151375168,5.356043151298807,-34.793660063563664
1761285405.8217862,-21.024085007984795,-0.3932366664752199,0.7632370014552488,0.03190382503582417,17.3970894046035,3.1136746856330424,-32.119656716913795
1761285405.8317435,-21.48150573209076,-0.42049669543830165,0.7676243142389786,0.01088945666689111,17.639369171641075,-0.03928151741394232,-29.57214748424817
1761285405.8417792,-21.92841170875404,-0.44397776280846113,0.7723298776857666,-0.008548679628125524,17.724978713222306,-4.2136710830441055,-27.065511571746775
1761285405.8517542,-22.354707841837538,-0.4606579153398237,0.7763267960673299,-0.02456159761542191,17.78528024239616,-9.4571679412052,-24.47812335555261
1761285405.8617773,-22.747769110913598,-0.46790478418180437,0.7789047097224939,-0.03564035217181037,17.934116941174118,-15.737200675751456,-21.663020382029192
1761285405.8717527,-23.09350858196849,-0.4638380074920837,0.7797848565863155,-0.040756689806232996,18.26525820476158,-22.931909532644806,-18.466040450189844
1761285405.88178,-23.377634100927338,-0.44756249439869916,0.779145589656284,-0.039439770132340235,18.852671197948034,-30.830482145109848,-14.748787638690025
1761285405.8918006,-23.586923886200598,-0.4192563399938447,0.7775558773917312,-0.03178848643406241,19.752146270501996,-39.14220748239949,-10.412441958891842
1761285405.9018157,-23.710389193473898,-0.3801396568904559,0.775833272603604,-0.01843081517117088,21.0029514930803,-47.512072470438895,-5.4186264573653835
1761285405.9117656,-23.74024922469888,-0.33236952879339254,0.7748556307147568,-0.0004470357155037242,22.628753595801626,-55.54012798037785,0.19537571689051197
1761285405.9218225,-23.67269169259854,-0.2789010211814316,0.7753623296025122,0.02072757396752546,24.637491895397012,-62.802285822518336,6.308666081036832
1761285405.932125,-23.508417072283425,-0.22333583912103627,0.7777817834631614,0.04341094115531711,27.020084190398705,-68.87135695485092,12.716867921058226
1761285405.9417493,-23.25296527435802,-0.16976060664773862,0.7821180016642654,0.06579128623838197,29.74792979848823,-73.33837993574646,19.1406608175478
1761285405.951785,-22.91680878751212,-0.12256320783654409,0.7879199984544217,0.08605537782013212,32.7693824853926,-75.83503578259308,25.242596540235223
1761285405.9619112,-22.515178337150324,-0.08621242682250689,0.7943453707408774,0.10252783481808597,36.00582302695505,-76.05791718913203,30.651601491294013
1761285405.9717922,-22.067577982199314,-0.06499449619688275,0.8003155051899328,0.11381419753282539,39.34858451087706,-73.79467197053683,34.993903664855225
1761285405.981778,-21.596954940454864,-0.0627161750643417,0.8047457379219783,0.11893287015187876,42.65851509635904,-68.95086746200127,37.928264222842714
1761285405.9917765,-21.128517142643627,-0.082399189008262,0.8068193779165074,0.11741516730447457,45.770101514098926,-61.57520583153779,39.18250863717852
1761285406.001816,-20.688233414506488,-0.12599680228252777,0.806261086719686,0.10935023039213673,48.50158685293569,-51.87979476343851,38.587667517345665
1761285406.0117474,-20.30109798700445,-0.19415656542079227,0.8035560304394286,0.0953558494171729,50.671314543813814,-40.251747826840685,36.10571980862272
1761285406.0218122,-19.989283007455846,-0.2860382759529346,0.8000601492092373,0.07646924277039535,52.118788479998216,-27.252505361790558,31.847082963484635
1761285406.031786,-19.770332219862457,-0.3991828160707941,0.7979564052139169,0.053970854024497014,52.72712917121111,-13.601891201971776,26.074693943840224
1761285406.0417867,-19.65556175667261,-0.529424796907005,0.800033041750277,0.029173245487834423,52.442370293773806,-0.14498865774288197,19.192765105371564
1761285406.051824,-19.648829761412678,-0.6708527132187647,0.8092909279747014,0.003221028603156594,51.28492404888959,12.198656843343366,11.719922622564924
1761285406.0617547,-19.745817714044545,-0.8158409153687803,0.8284225358621897,-0.023046510186965817,49.349761482136316,22.502253601745885,4.24822971081389
1761285406.0718281,-19.93393426009713,-0.9552009453064275,0.8592383373326946,-0.04912421978995395,46.79422313474056,29.91193658663602,-2.608553411860215
1761285406.0817869,-20.192905185787243,-1.0785189229103227,0.9021426942628026,-0.07473896037150358,43.815400632687414,33.733688486669585,-8.27227224612572
1761285406.0917757,-20.49604884427064,-1.174755106455212,0.9557767303546201,-0.0996396731179912,40.62196468719914,33.51797510536134,-12.256429729169161
1761285406.1017742,-20.81215887345495,-1.233169198769764,1.016941423782486,-0.12335945075899185,37.4071592867175,29.131167239090868,-14.213377194652907
1761285406.1118927,-21.10783837854717,-1.2445748005491815,1.0808753382668912,-0.1450653022701001,34.32941564610461,20.802613964717278,-13.965757706714422
1761285406.1217756,-21.35006853782502,-1.2027992766486735,1.1418816517177288,-0.1635940693168779,31.504311936787598,9.137664273652376,-11.517786414560407
1761285406.131776,-21.508762112467924,-1.1060642859626653,1.1941986487490985,-0.1777005122320402,29.00735773396,-4.910264720250768,-7.045579330644109
1761285406.1417737,-21.55905398402382,-0.9579076900518992,1.2329264450260065,-0.1864466836830717,26.88322926723173,-20.1110611531387,-0.8694557774784546
1761285406.151793,-21.483116196897104,-0.7673320472488779,1.254794637577403,-0.18958613910139432,25.155321887796056,-35.06892972987922,6.586049749371248
1761285406.1617749,-21.27134605571557,-0.5480723582938907,1.2585949666002645,-0.18778739387323162,23.830390117992177,-48.36193005188701,14.837530414667496
1761285406.1717749,-20.922847733689686,-0.3171124710557057,1.2451997180842462,-0.18261280283740453,22.896043148450605,-58.69269530961513,23.387096053717197
1761285406.181765,-20.445197236415765,-0.092741192901421,1.2172049659766757,-0.17627767640704417,22.3126747603395,-65.02988677570974,31.761386447876177
1761285406.1917522,-19.85354225591567,0.1075083320960423,1.1783313629158996,-0.17128760994803927,22.004500613173654,-66.72091263228648,39.542885203533984
1761285406.201785,-19.169141860047347,0.2687298765526627,1.1327524348502855,-0.17005543111616625,21.855526521150168,-63.561145212000845,46.39278228851532
1761285406.211818,-18.41749244000276,0.38010758609779277,1.0844989782904235,-0.17455802667369663,21.715068080330646,-55.81194869546824,52.065546131965675
1761285406.2217746,-17.626209317007802,0.4358518518202315,1.0370306032440104,-0.1860540200233388,21.414380307469017,-44.16733036081219,56.415768101438694
1761285406.2317781,-16.822837517517527,0.4355686731371793,0.9930027017793704,-0.2048706816363951,20.792134792833867,-29.675263322356205,59.39789200211543
1761285406.2418478,-16.03275983607789,0.3840740554064462,0.9542107504380848,-0.2302775775004979,19.72321534165793,-13.623997357546733,61.059330070327334
1761285406.25178,-15.277364471350914,0.2906934340012213,0.9216681671369292,-0.2604775562091896,18.1437132070949,2.593743924473424,61.52743672761455
1761285406.2618182,-14.572626516403089,0.16811452432448817,0.8957634995244617,-0.2927475376027426,16.065617017761568,17.6242500449473,60.99104161383627
1761285406.2718065,-13.928236680419031,0.03090607074648771,0.8764429688660229,-0.32374427882334234,13.577276595979406,30.28880369383106,59.677769714313946
1761285406.2817802,-13.347366893392564,-0.10613108744414998,0.8633734317648011,-0.34995496449695257,10.8294323887104,39.69727420341281,57.82910389710596
1761285406.2917693,-12.827095047686251,-0.2295748105157277,0.8560568464138003,-0.36823006451405044,8.01028014469665,45.326357612007314,55.67585706816187
1761285406.3017578,-12.359430055577429,-0.3287463743112165,0.8538876684812408,-0.3763030183784148,5.315536960150607,47.05334024285355,53.417103272933595
1761285406.3117797,-11.932799848153111,-0.3966594813952291,0.8561647859919366,-0.3731918005313528,2.92008504370748,45.14190990287739,51.20539202528342
1761285406.322326,-11.53380444777206,-0.43044972550400995,0.8620834147454316,-0.35939595729977075,0.9565411225183033,40.183206634263804,49.14016043986355
1761285406.3317764,-11.149004006941416,-0.4312593159112609,0.8707351168183112,-0.3368438833398838,-0.4962795487416245,33.001679706007444,47.269823997312244
1761285406.3418279,-10.766511513043831,-0.40363147634849583,0.8811355743819894,-0.3085971298227057,-1.4146728387140344,24.540108609171885,45.601394352074436
1761285406.3517618,-10.377191232392338,-0.35453706698853366,0.8922841438280121,-0.27836803385337977,-1.8229666738712649,15.740534792982965,44.11504720088585
1761285406.361785,-9.975324805404123,-0.2922011653812622,0.9032435357120866,-0.24994264654714726,-1.781175723232356,7.4375258812798855,42.78022669119492
1761285406.3718398,-9.558692590940197,-0.22491353589947286,0.913219129029311,-0.22661598956444115,-1.3708141439297516,0.2773014977895017,41.569837875599205
1761285406.3817832,-9.128117540454669,-0.15999448830180543,0.9216182395943678,-0.21073967622628897,-0.6817764257408209,-5.328575692179337,40.46980491369763
1761285406.3917923,-8.686614531516428,-0.10305096044082558,0.9280774544421985,-0.2034559172128358,0.19780390190496763,-9.212032380644574,39.48252048575602
1761285406.4017618,-8.238358611019112,-0.05760250734890683,0.9324558151950314,-0.20465257187928176,1.1879298019127407,-11.422716326601014,38.6241576147564
1761285406.4117749,-7.7877131432026125,-0.025090510696768167,0.9347994107751466,-0.2131288511121389,2.219520545574344,-12.175474313547689,37.91713725062798
1761285406.4218037,-7.338534072882557,-0.005216950530157755,0.9352874304711152,-0.22692009517451647,3.2344112832870944,-11.782415091236864,37.37998779077525
1761285406.4318545,-6.893891093390967,0.00349588579825657,0.9341710622507723,-0.24370263226081923,4.183697849267549,-10.582410848300713,37.01725329542091
1761285406.4418192,-6.456233595624438,0.003065883649370639,0.9317156952199251,-0.2611924912663573,5.02557450732978,-8.880194141080349,36.8119742726441
1761285406.4517872,-6.027903162201357,-0.004523137458921215,0.9281548991689604,-0.27746451265967864,5.723617028447333,-6.9044426297977415,36.72263677859321
1761285406.4617867,-5.611787917290132,-0.01771131824582278,0.9236624742891149,-0.2911452335839059,6.246129552827641,-4.789972282807734,36.68550753222651
1761285406.471796,-5.211859906910764,-0.035500701522193936,0.9183466406138763,-0.30146560622752544,6.566785721792199,-2.584236068005894,36.62215567178265
1761285406.4817855,-4.833353732903582,-0.05733839259375874,0.9122679488425555,-0.30819028120646624,6.666423845036258,-0.2736741712409991,36.45092034769783
1761285406.491765,-4.482429205497191,-0.08280368913609243,0.9054794941746145,-0.3114628592390867,6.53554348211358,2.1780960921126375,36.10029336941108
1761285406.5017858,-4.165290063434398,-0.11120235735919376,0.8980841338277664,-0.3116181334965093,6.176821870701251,4.790115273972474,35.521780543537915
1761285406.5118227,-3.886874005225044,-0.141191388606474,0.8902987492921343,-0.3090126395053954,5.606858358279246,7.531660387686803,34.69985666744492
1761285406.523021,-3.6493562627761253,-0.17055219282011913,0.8825116464406406,-0.303915455230174,4.856407334210943,10.305239791319192,33.65711322486665
1761285406.5322454,-3.450794115019345,-0.19620135539703618,0.8753178363718691,-0.29648499897255,3.968600452443254,12.949167610096314,32.45349273787308
1761285406.541827,-3.2842637524873766,-0.21447998005480537,0.8695186006801453,-0.2868372870970242,2.995071280615335,15.259560361856924,31.179431295575483
1761285406.5518827,-3.1377920018447956,-0.2217005794823982,0.8660758729637273,-0.2751882913524052,1.990415314419554,17.02724319126334,29.94361466855642
1761285406.561806,-2.9952601909129606,-0.21486092377569554,0.8660189905346103,-0.26202949795840735,1.0059221329221577,18.0814804498621,28.856792691624097
1761285406.5717924,-2.8382655847908276,-0.19237011791490757,0.8703122517985712,-0.24827662291741273,0.08381730992661078,18.330444077087865,28.01369460287162
1761285406.5817933,-2.6487000889731642,-0.15459795939054077,0.8797049398465504,-0.2353252071662763,-0.7468352187600724,17.788600690660836,27.47554925368932
1761285406.5918543,-2.411603376997734,-0.10407981269814538,0.8945955228014387,-0.2249610864535857,-1.4719254844529615,16.584062525904777,27.255915372669747
1761285406.6018147,-2.1177338542538324,-0.04529051622092211,0.9149423825099202,-0.21911003250993163,-2.0918435445336314,14.943881935779986,27.312261687255436
1761285406.611801,-1.765327298646743,0.015982208918774,0.940243084309447,-0.2194612643276797,-2.619374343356751,13.160784081003465,27.54489704082902
1761285406.6235008,-1.3606914082957702,0.07352405588051553,0.9695872017990114,-0.22704617797920043,-3.0766557588326413,11.549115511999132,27.80355941232226
1761285406.631789,-0.917564530784795,0.12163660442395353,1.001770363936154,-0.24187635599287896,-3.4916716402174495,10.399601977918769,27.9005763851564
1761285406.6433342,-0.4554479945421308,0.15593641519589008,1.0354440078346099,-0.2627349408180286,-3.8944463659040642,9.941647171648517,27.628437893524357
1761285406.6517856,0.0026908512029304695,0.17386931875740375,1.0692685845769725,-0.2871805020226406,-4.313037104347401,10.31905466720781,26.779172753416766
1761285406.6626623,0.4328912954749051,0.17487960552078133,1.1020388282484186,-0.3117772012006072,-4.7696662050513865,11.581372369362002,25.16311780955943
1761285406.67179,0.8124490849114799,0.16025119252610728,1.1327581494647079,-0.33252068882551056,-5.277735938560893,13.689650116310883,22.625303043921154
1761285406.6818054,1.1216670071104884,0.13269797015620904,1.1606531853901356,-0.34539312475487305,-5.840740689833445,16.53296656613902,19.05844834444645
1761285406.6918237,1.344975894744116,0.09581746398079151,1.1851353743968958,-0.34695827500275805,-6.453997544887039,19.950874206306768,14.412204620951702
1761285406.7017813,1.4714315942376603,0.05353171371415763,1.2057305501720568,-0.3349007702941205,-7.1095624594092435,23.75689167915695,8.698602572316393
1761285406.7118063,1.4946946576995115,0.009620531127530436,1.2220066239638532,-0.3084215535908692,-7.803782744918649,27.75912590926144,1.9936792297503738
1761285406.721821,1.412652264813027,-0.03259058501983201,1.2335295712229708,-0.2684232766410148,-8.545915647687258,31.775700023821514,-5.564935433716013
1761285406.7319772,1.2268445975622535,-0.07038070621755058,1.2398667188831947,-0.2174517670275789,-9.365449038847535,35.64448373227782,-13.784845100865514
1761285406.7419293,0.9418215396286158,-0.10166398512357488,1.2406368222260673,-0.15939569017831173,-10.315507925735668,39.228203238679875,-22.430377324626093
1761285406.7521482,0.5645009307677936,-0.12496842232481534,1.2355878861008605,-0.09898159789848043,-11.470249718009125,42.416906430193634,-31.238457797747294
1761285406.7624264,0.1035496389859027,-0.13942635058440694,1.2246761037542944,-0.04113614236542285,-12.915479739105773,45.12971022967746,-39.93774751704005
1761285406.772231,-0.4312208688086187,-0.14481154987229422,1.208125535912113,0.009683122701715063,-14.733562229616238,47.316809587935616,-48.26906519599066
1761285406.781817,-1.0294580819680517,-0.14161845368418885,1.1864606176810217,0.05007461846149165,-16.985457147014714,48.96130252691909,-56.00461822756197
1761285406.7918217,-1.6808710972108967,-0.13114148741085438,1.160510610303997,0.07809598653595254,-19.693741979955572,50.0791571788239,-62.9636597613526
1761285406.8020487,-2.375808608459613,-0.1154897024551947,1.1313830481463127,0.09341639332496063,-22.830429703833232,50.71523809421224,-69.02279587498899
1761285406.8118012,-3.1057638550215056,-0.09747433081323045,1.1003998431267579,0.0971996422238138,-26.312327624618298,50.93400436277571,-74.11998326689493
1761285406.821832,-3.8637420401222946,-0.08033751169434085,1.0689942766555771,0.0917551537926909,-30.00498042317834,50.805123155227676,-78.2520575058414
1761285406.8318324,-4.6444271289837,-0.06734028016110347,1.038579715121681,0.08004099955752327,-33.73442666684278,50.38623753868771,-81.46638769404721
1761285406.8418224,-5.444108746349692,-0.06127946188948139,1.0104129541763351,0.06512777380108267,-37.3045252398852,49.70672330287493,-83.84799046595036
1761285406.8518584,-6.260372781087864,-0.0640370733606369,0.9854784482819627,0.049728371946310634,-40.51673030793488,48.75682821592822,-85.50406741416504
1761285406.8620448,-7.091609032716205,-0.07626798257968234,0.9644130830231175,0.03587066076085861,-43.18898509676215,47.485823788021186,-86.54828016199411
1761285406.8718493,-7.936429176034655,-0.09729949527388203,0.9474792618732492,0.024748253980365453,-45.17083721448312,45.81083918589705,-87.08701495948048
1761285406.881957,-8.79310540828166,-0.12526260923041696,0.9345827540218244,0.016742727169638854,-46.352833867659264,43.635396517270735,-87.20940102038658
1761285406.8917878,-9.65913120696041,-0.15742058245517415,0.9253245022735545,0.011579377834139027,-46.66952958160897,40.87410089869057,-86.98204407314066
1761285406.9018052,-10.53097703561026,-0.1906241722223275,0.9190729621013901,0.0085619372990453,-46.096770494109656,37.478229237761234,-86.44852248106498
1761285406.9118009,-11.404075386465617,-0.2218092067190492,0.915044601648269,0.006827943051821554,-44.64501221390461,33.456561012665524,-85.63288927810488
1761285406.9218383,-12.273029251850655,-0.2484552844119818,0.9123837246305944,0.005572632909248022,-42.351004341695734,28.886703966640855,-84.54588220723073
1761285406.9318027,-13.132001716267103,-0.2689375804482541,0.9102371746358202,0.0042027970499367,-39.270091189041075,23.91405118108463,-83.19231859511052
1761285406.9417856,-13.97521671491267,-0.28272364239868175,0.9078227789394957,0.002401567521064436,-35.470727676694295,18.737891431677962,-81.57822019659586
1761285406.951837,-14.797485877752111,-0.29039164220901026,0.904491205787281,0.00010786577369056783,-31.031884434031063,13.586610844800639,-79.71650738119942
1761285406.9618683,-15.594675405748811,-0.29347326234048,0.8997792495859372,-0.0025656747982349135,-26.043135169768007,8.685942201732423,-77.630523096402
1761285406.9718323,-16.3640393377319,-0.2941503755865498,0.8934496192782526,-0.005441159698924462,-20.606573167853842,4.22547680535815,-75.3550800903148
1761285406.9818132,-17.104368373249038,-0.2948562997730306,0.8855097375616942,-0.008374787607238551,-14.839357752404661,0.3289465005415736,-72.93508111894127
1761285406.992153,-17.815931759443185,-0.2978451504286521,0.8762016134795755,-0.011320197961120992,-8.87565043474793,-2.9668640693614554,-70.42201220707368
1761285407.001799,-18.5002181675687,-0.30479379977982407,0.8659577529776412,-0.014341981303984102,-2.8669030375699047,-5.721111108385674,-67.86876696790925
1761285407.0117996,-19.159505926912484,-0.3164915807195162,0.8553239800158634,-0.01757893432446776,3.02021744371083,-8.084216681604612,-65.32335192371022
1761285407.0217664,-19.79631155551477,-0.33265735769394167,0.8448574159441667,-0.021168098966341375,8.608648704061936,-10.28002100929279,-62.822079255532486
1761285407.0317965,-20.41277724910759,-0.3519052961306161,0.8350154525484804,-0.025149740534310436,13.71858044129088,-12.577159422234098,-60.38289458653389
1761285407.041817,-21.010062201939338,-0.37186182660346645,0.8260581753182259,-0.029379782799489038,18.17774197085612,-15.253496149256694,-57.99951656759198
1761285407.0517948,-21.587800244638917,-0.389419831051723,0.8179896100229778,-0.03347767166485128,21.83385190081511,-18.558241956907462,-55.637083335203066
1761285407.0618002,-22.143679844694145,-0.4011039867882705,0.8105584527260811,-0.03683123302986469,24.568394742922766,-22.676510629302285,-53.22999612043632
1761285407.0718415,-22.673193737775122,-0.40351138808350034,0.8033249754214826,-0.038665410801522644,26.31049467210327,-27.700623916046705,-50.68257991062404
1761285407.0817952,-23.169593652077758,-0.39378028884016875,0.795781694142629,-0.03816320297570934,27.049305025520056,-33.61158348620319,-47.873013088060674
1761285407.0918088,-23.624069649768497,-0.37002874468519464,0.7874995673448973,-0.03461202641215161,26.84310519293924,-40.27287819983553,-44.66074393065756
1761285407.1018097,-24.026154921399225,-0.33170190811043454,0.7782653138831434,-0.027542841617573175,25.823282229392056,-47.437265472380446,-40.89738188442381
1761285407.1118398,-24.36433890682153,-0.27977736270668574,0.7681793164467859,-0.016833462167895143,24.191669328890463,-54.76552717984632,-36.44084184234354
1761285407.1218426,-24.626856842675252,-0.21679940396822892,0.7576940539260325,-0.0027579885752802374,22.210355428868777,-61.85471149191391,-31.172252154275615
1761285407.1318302,-24.80261197906937,-0.14673742437753295,0.7475855407531838,0.014023423197498006,20.183971881298444,-68.27225882121053,-25.014721300265556
1761285407.1418266,-24.882175835603835,-0.07468359754567139,0.7388615199261399,0.032529180224524806,18.435407563944956,-73.59181279738807,-17.95249436761911
1761285407.1518178,-24.858800619577277,-0.00641935317808817,0.7326204398041902,0.051561669463086386,17.27676076666586,-77.42652859160289,-10.048422548048409
1761285407.1618326,-24.729367253696903,0.05210796746122071,0.729885724245081,0.06983579269947758,16.97807852448999,-79.45635004569881,-1.457173252420462
1761285407.1717951,-24.495185358286765,0.09534483580707723,0.7314478005169706,0.08611352355595132,17.73704489889685,-79.44696743012315,7.5686154903522285
1761285407.181813,-24.162560699609887,0.11866529319798177,0.7377472788088084,0.09933068188308011,19.653163078297343,-77.25979418712156,16.681844310275636
1761285407.1918182,-23.74305161015089,0.11881713740071485,0.7488254303573695,0.10870478485201056,22.70998683213051,-72.8540030875403,25.456040969366835
1761285407.2021472,-23.253347758926072,0.09423199306616914,0.7643549879070572,0.11381347454197778,26.768450527427607,-66.28307970986364,33.412767705838036
1761285407.2118504,-22.714721837506396,0.04517264966230664,0.7837482333103848,0.11463385482075786,31.57323988797666,-57.68915497045689,40.060551107055176
1761285407.2218056,-22.152028454673903,-0.026284299343255695,0.8063226117641107,0.1115364466777228,36.77253063713134,-47.29829994403969,44.942764275192914
1761285407.231857,-21.592257956471368,-0.11641111146923218,0.8314888542376683,0.10523169360330067,41.94961943932872,-35.418853517780654,47.6900020150127
1761285407.2418108,-21.06269927900892,-0.22010450445390561,0.8589157563095554,0.0966686845187233,46.66339349040248,-22.44281555866858,48.070756615860056
1761285407.2518542,-20.588824788123123,-0.3312400155491533,0.8886230498945717,0.08688631711150507,50.49351003908382,-8.847846685531406,46.03310295345598
1761285407.2618732,-20.192073677459714,-0.44307812176724065,0.9209624411587256,0.07682329671675021,53.08557477421649,4.8047565919711035,41.73014507368854
1761285407.2718475,-19.887764688810538,-0.5487048800094039,0.9564678730306714,0.06711013352133234,54.19127918497902,17.881751340897353,35.52342151062777
1761285407.2818258,-19.683397200900327,-0.6414925754025834,0.995586863010102,0.05788879506198306,53.698270724565695,29.704200970671923,27.961203974948752
1761285407.2918243,-19.577587885057845,-0.7155538555941968,1.038340269590284,0.04872030792391572,51.64485195160482,39.590600232266894,19.73226794781351
1761285407.301801,-19.55983098450248,-0.7661408596498752,1.0839915350995595,0.03863485938714283,48.21610131731936,46.91518161277355,11.599700824863396
1761285407.311844,-19.611169070844515,-0.7899308149569156,1.1308279606682792,0.0263480426291562,43.720991096508456,51.17526459670033,4.322922998695387
1761285407.321824,-19.70573675092652,-0.7851632893854185,1.1761516446501332,0.010613767317850327,38.553980557375894,52.05791761364738,-1.4214581201068084
1761285407.3317995,-19.81301866576739,-0.7516467779800547,1.2165366094978096,-0.009376346069395152,33.147955903756795,49.494618385930245,-5.108747968856847
1761285407.3418703,-19.900570049568564,-0.6906985755507548,1.2483344015086386,-0.033674489155925115,27.926647688140196,43.6935127375726,-6.415674942461086
1761285407.3518176,-19.936899032882156,-0.6050857692099122,1.2683215181989145,-0.06144981092539679,23.26312265625661,35.14194905456265,-5.244522251883337
1761285407.3618228,-19.894207589516324,-0.4989909192134719,1.2743131478243013,-0.09109619967363855,19.44770017248142,24.576299911076447,-1.7208827292483473
1761285407.3718162,-19.750723555870028,-0.3779626560788741,1.2655603518630307,-0.12053924197859053,16.66581836196062,12.92076901304007,3.8317008301404183
1761285407.3818154,-19.49241732700874,-0.24877133636892546,1.2428202117907359,-0.14765798877295133,14.985440318951184,1.2014019598764116,10.934345254925947
1761285407.391805,-19.113976450604703,-0.1191001111796037,1.2081102799843895,-0.1707251127732095,14.354313584027572,-9.554541358968974,19.00600762166513
1761285407.4018142,-18.61900372709876,0.0029450308392993943,1.164266131460851,-0.1887753486739895,14.608369433013772,-18.421107988966945,27.420920857348623
