timestamp,angle,linear_acceleration_x,linear_acceleration_y,linear_acceleration_z,angular_velocity_x,angular_velocity_y,angular_velocity_z
1761284854.8962207,-7.65574254786662,-0.156688405476979,0.947603814476489,-0.3506098653589159,7.827425473854719,26.403691189872497,34.83703251610589
1761284854.9062316,-7.343338804130258,-0.15669333913415462,0.946921070132368,-0.35870854211572356,6.721204766678081,25.89621030792687,33.87144090107712
1761284854.9162328,-7.027584424012812,-0.14624516956477374,0.9465117617681946,-0.36218136820285013,5.805035385758467,24.88362019183322,32.99153255400481
1761284854.9262774,-6.698840254214323,-0.127407167991683,0.9460526733107035,-0.36077767315592385,5.0633231615086265,23.475907605773127,32.27936738334471
1761284854.9362519,-6.350245473720298,-0.1029729274525747,0.9452378851137669,-0.35481215805109556,4.46027657683819,21.803341547246063,31.776952417375256
1761284854.946232,-5.978633963093168,-0.0761353292586186,0.9438633513108156,-0.34508770296719843,3.951163365470059,20.0047687689218,31.48473558274435
1761284854.9564548,-5.585026379679504,-0.05013192322821837,0.9418786826189871,-0.3327389079174564,3.4929296954876157,18.214721890886224,31.36588288114958
1761284854.9664152,-5.174649091340844,-0.027914362523725925,0.9393966145272452,-0.3190375062875879,3.052314118027253,16.55102844210543,31.35527375419098
1761284854.9762926,-4.756490488370618,-0.011879502775631837,0.9366639329890868,-0.30520068025957675,2.6104582373974754,15.104305919115127,31.37163089985733
1761284854.986233,-4.342458177766589,-0.003686897179160307,0.9340054483621604,-0.29223467514834756,2.163871970743447,13.930331987919805,31.33091837579067
1761284854.9962122,-3.9462408195749608,-0.004173096693318492,0.9317555901285527,-0.28083220904087725,1.722294401561087,13.04588920627561,31.159115898113917
1761284855.0062108,-3.5820002070408523,-0.013358093860932585,0.9301931111299234,-0.2713279666162839,1.304421912221074,12.428324000301178,30.802708491546518
1761284855.016252,-3.263021046327651,-0.03052575595078567,0.9294936130108578,-0.2637064084364431,0.932650805180407,12.018718235212535,30.235685342144226
1761284855.0262222,-3.0004325592817325,-0.054351814534995116,0.9297101834215034,-0.25765187411658474,0.6279481756168086,11.728250749098288,29.462435107574862
1761284855.036222,-2.8020967999581052,-0.08305250821401955,0.9307840317428617,-0.2526306301185802,0.40577796348898076,11.447060419468656,28.516536372121514
1761284855.0462394,-2.6717424203083873,-0.11453392935553504,0.9325775556492252,-0.24799445031655606,0.27370003747749866,11.054753422009824,27.4559610228413
1761284855.0562294,-2.608413315600301,-0.1465328213675103,0.9349155716544424,-0.24309331783981736,0.23084265867285922,10.431644989277329,26.355569471722777
1761284855.0662758,-2.606294425805428,-0.17674828952948685,0.9376189614678668,-0.2373822267522191,0.26898055853977537,9.469873124179934,25.297966889566357
1761284855.0762343,-2.654960135414995,-0.2029661738047564,0.940519757908245,-0.2305074572198352,0.3745778610046141,8.083612981196842,24.36384111528407
1761284855.086238,-2.740053810866238,-0.22317431359411302,0.9434562780782423,-0.2223627531428184,0.5310392505601171,6.217699784001026,23.622865208057476
1761284855.0962393,-2.8443516912602935,-0.2356630146338214,0.9462561702708846,-0.21311268772058742,0.7205896303259401,3.854037727960049,23.126149291304795
1761284855.1062195,-2.9491059041426926,-0.2391054774403858,0.948719089915456,-0.20318520109461774,0.9255372753245628,1.0152897929532696,22.901058067933427
1761284855.1162524,-3.0355189966364984,-0.23261758923528858,0.9506091437545217,-0.1932373398975881,1.128974199848886,-2.2344538251933304,22.948943259528967
1761284855.1262236,-3.086188456895264,-0.2158017819633352,0.9516635786609939,-0.18409958346471553,1.3151129991928785,-5.792065122792409,23.245968520641526
1761284855.1362402,-3.086376224419983,-0.18878238430495495,0.9516202661799452,-0.17670565127017138,1.4694515235851493,-9.520587337687921,23.746776569923046
1761284855.1462228,-3.0249970998615003,-0.15223780120847896,0.9502620568293392,-0.17201531330993167,1.5788633649055985,-13.256807701402016,24.390347689245534
1761284855.156241,-2.895265817178024,-0.10742667841821843,0.947471110960367,-0.17093603433019697,1.6316060939248713,-16.820638257380775,25.10709459712212
1761284855.16624,-2.69498039054365,-0.05619300581539327,0.9432826301265843,-0.17424516232896223,1.6171700223239862,-20.025767817454284,25.826066568384036
1761284855.1762662,-2.426444017437589,-0.0009252630742881897,0.9379271849866415,-0.18250987602040933,1.5258851377748426,-22.69109656676017,26.481118538741608
1761284855.1862373,-2.0960453418177947,0.05555560992094054,0.9318537883095571,-0.19600047050056169,1.3482679367066277,-24.652430951720042,27.01506920633137
1761284855.1963263,-1.7135371829595525,0.11019238759345357,0.9257290245955223,-0.21459625999396872,1.0742036936028434,-25.773753639981305,27.381248137905636
1761284855.2064166,-1.2910816197073178,0.15996338698507762,0.9204090572062574,-0.23769266865686312,0.6921854515292268,-25.957131127078146,27.542382515810775
1761284855.2162669,-0.8421601135271789,0.20219837923770226,0.9168825869863407,-0.2641298917833928,0.18892037687502503,-25.15008543137611,27.467373090887513
1761284855.2262266,-0.3804718365674125,0.2348884199123675,0.9161852310003678,-0.2921716094658618,-0.4503833015472468,-23.349204017935005,27.12696327851407
1761284855.2362766,0.08104496667851668,0.25692681406809936,0.9192884967050861,-0.3195610640515583,-1.2408479763126115,-20.599074269870606,26.48945412913377
1761284855.246255,0.53093779378551,0.26821442109973737,0.9269701767182068,-0.3436713174008998,-2.195880504477943,-16.98636086282153,25.517431737549384
1761284855.256256,0.9596053923135218,0.2695784562089893,0.9396811492078913,-0.3617509365599969,-3.324470183946163,-12.629860761380714,24.16608017542315
1761284855.2663007,1.3592532894337235,0.26250139246873017,0.9574351768961226,-0.3712477578665657,-4.6281945303946435,-7.668436648048204,22.383273931142845
1761284855.2762992,1.7234718080098281,0.24872469208168888,0.9797523921409567,-0.37017042081685025,-6.098328044770386,-2.249548529870884,20.111467370626716
1761284855.2862751,2.04656123081722,0.229844743129683,1.0056741123615458,-0.3574233858828325,-7.713423568849473,3.4787572080007276,17.291450855128552
1761284855.2962697,2.3228002092060827,0.20702393236229855,1.0338431919258795,-0.33303881598124147,-9.437743672426505,9.370486026189749,13.868164852745737
1761284855.3062432,2.54587784557303,0.18089657164115963,1.0626269198150788,-0.29824103253630957,-11.221013351999774,15.278996394073351,9.798718046439337
1761284855.3178244,2.7086736259161253,0.1516795013508296,1.0902557853780803,-0.2553169664928825,-13.00009114316163,21.05121736594908,5.062372719064767
1761284855.3262691,2.8034788778442827,0.11942902182449329,1.114956550691653,-0.20731525793562705,-14.70312367634369,26.522513692563457,-0.32844640245046614
1761284855.3363035,2.8226365402592806,0.08434388866981482,1.1350672714694705,-0.15763728941741117,-16.256344378908487,31.515977301178417,-6.317855070377126
1761284855.346408,2.759470201956906,0.047011150633815085,1.1491341034399516,-0.10960102095801014,-17.592893720797512,35.84849746188562,-12.799182066778084
1761284855.3562644,2.6093079593732202,0.008523251386661,1.1560004976134013,-0.0660523558284879,-18.66218706603952,39.343648784460036,-19.612873402486464
1761284855.3662665,2.370393841962091,-0.029556723023014358,1.154900060398709,-0.029079232874191317,-19.437879830758853,41.84915660205697,-26.551329739255163
1761284855.3762414,2.044513939033003,-0.06536050625804021,1.1455526426864675,0.00013970777326132792,-19.922624939787905,43.25524718083658,-33.371332716004545
1761284855.38633,1.637227888091082,-0.09696236085779866,1.1282482412720631,0.02134597768604063,-20.148490290954353,43.50990470355825,-39.81334281241786
1761284855.3962524,1.1576686898732622,-0.1226501442795247,1.1038953706667283,0.03509344350522478,-20.172821336994062,42.62783605622099,-45.62555459823817
1761284855.4063005,0.6179405261213062,-0.14116278832356252,1.0740119132341266,0.04256132448984091,-20.070246590625622,40.6914318711769,-50.58955392422795
1761284855.416402,0.03219724617098475,-0.15185101379960464,1.0406434459973493,0.04532320410083327,-19.92226764638597,37.84371528603494,-54.543950696686316
1761284855.4262538,-0.5844809745197569,-0.1547425066102005,1.00620434586925,0.04509231317406748,-19.806302799057516,34.27467983218631,-57.402451708185474
1761284855.436239,-1.2172797321185576,-0.1505194541298676,0.9732525648759143,0.043461530089426166,-19.786049845706046,30.203230178403746,-59.163447915302164
1761284855.4462779,-1.8527794258666594,-0.14043290300621872,0.9442283299577491,0.04167133289385014,-19.904631849067698,25.85717140259333,-59.90934103855794
1761284855.4562588,-2.4799028695657666,-0.1261772902769317,0.9211991973368149,0.040450490436291744,-20.181361659475943,21.453540696247096,-59.79546593363268
1761284855.4662714,-3.090585351861577,-0.1097351275894648,0.9056509335416568,0.039966569976852835,-20.612252051924898,17.181223604453074,-59.030265606761205
1761284855.4762523,-3.6801019685273544,-0.09319249045344166,0.8983513180281927,0.03989769767094541,-21.17368199683919,13.187388053648261,-57.849858720821956
1761284855.4862456,-4.247027942794932,-0.0785319156981262,0.899301031473999,0.03960453557854438,-21.82803942432729,9.568910701218126,-56.4909351522614
1761284855.4962516,-4.792856027917613,-0.06742558440704828,0.9077737510407993,0.03835444727189307,-22.529907844090225,6.369640245959461,-55.16593023296186
1761284855.5062273,-5.321343076909239,-0.0610645877318099,0.9224345925734649,0.03553822707852369,-23.23156061101657,3.583869299069627,-54.04375888277035
1761284855.5162396,-5.83769504335346,-0.06005990636251628,0.9415134121704901,0.030827997116485793,-23.887048827174134,1.165631471616385,-53.23822090315455
1761284855.526237,-6.347716923984916,-0.06443565298287716,0.9630018670576099,0.02424884897207372,-24.454724405745687,-0.9574998593393704,-52.804775577795965
1761284855.5362768,-6.857046416514468,-0.07370986309212323,0.9848445086477812,0.01616504739309957,-24.89838310905491,-2.8682592125267994,-52.745015943888404
1761284855.5462472,-7.370559029057909,-0.08703303127571989,1.0051036187789093,0.007202543122270628,-25.187311739512815,-4.6437476423760335,-53.01708659275969
1761284855.556258,-7.891987805900246,-0.1033422351684418,1.0220895823642255,-0.001861700434043154,-25.295528646898266,-6.342145328470934,-53.54963170523494
1761284855.566271,-8.42375707791621,-0.12149537168456663,1.034457488069147,-0.010215007165465874,-25.200566972599105,-7.993910111737129,-54.25670194791538
1761284855.5762293,-8.966998262566875,-0.14036975128338808,1.0412733708041677,-0.01710893948453114,-24.88226518102045,-9.598368655382085,-55.051368044943644
1761284855.5862448,-9.521700452546288,-0.15892860730769123,1.0420513757877428,-0.0219343807621776,-24.32206179213806,-11.125595303708586,-55.85645057609246
1761284855.5962381,-10.086946362088526,-0.17626842396448184,1.0367609055782059,-0.02427071708136893,-23.503125957834712,-12.522589149985976,-56.61157121259627
1761284855.6062458,-10.661189980342007,-0.19165928617814348,1.0258040915613837,-0.023913133660095714,-22.411344621116648,-13.7221635728934,-57.27646567618007
1761284855.6162758,-11.242541735260948,-0.20458506162822945,1.009967223371829,-0.02088337792245444,-21.036921613340233,-14.652752875277232,-57.83104918506151
1761284855.6263304,-11.82903712262985,-0.21478460064677288,0.9903511716317689,-0.01542688494184076,-19.37628322577158,-15.247545539619832,-58.27303777045416
1761284855.63625,-12.4188734310389,-0.22229060981672166,0.968284482886649,-0.007994862419884497,-17.43411167979035,-15.451909321108266,-58.61400626695581
1761284855.6462817,-13.010604726119759,-0.22745870659973674,0.9452215528832135,0.0007918406963506969,-15.225468536254663,-15.228815683391902,-58.87465394638064
1761284855.6562743,-13.603286590513514,-0.23097474983662275,0.9226296229170322,0.010196985021447303,-12.777960483679662,-14.56267571570235,-59.07982770455511
1761284855.6662338,-14.19655949335546,-0.23382504720261252,0.9018716584930507,0.019435604374201526,-10.133734369748232,-13.462445895369395,-59.25360606324844
1761284855.676281,-14.79065523066456,-0.23721420485627162,0.884094956442654,0.02774428879076486,-7.3508946479445765,-11.964880564402053,-59.41455937759233
1761284855.686268,-15.386308255288506,-0.24242172199562048,0.8701360330480733,0.034447308945769,-4.503838172280831,-10.13833685702642,-59.57123639079007
1761284855.6962535,-15.984556635026713,-0.25060179378466907,0.8604513009155305,0.03901362863965096,-1.6820343486781708,-8.086691411457567,-59.717995664041354
1761284855.7062736,-16.58642807475977,-0.2625490298248172,0.8550813031790393,0.0411020385203826,1.013092706358168,-5.952005585474541,-59.831449684604465
1761284855.7162604,-17.19252439330131,-0.27847007575067456,0.8536540429265755,0.04059296597591793,3.4733469574972635,-3.9139560504194906,-59.86793533656534
1761284855.726251,-17.80253964483369,-0.2978102261976507,0.8554293999851352,0.03760661809708067,5.590968326890557,-2.184021813374979,-59.762498353060536
1761284855.7362437,-18.414767701367527,-0.31918103955102906,0.8593816332926824,0.03250739427166044,7.267585749855268,-0.993067670819342,-59.42985378551466
1761284855.746795,-19.02566975779047,-0.3404208622392243,0.8643120055615713,0.025892983371166415,8.424365190455985,-0.5721498324539251,-58.767667128864915
1761284855.7562943,-19.62957754590771,-0.3587990030686653,0.868980081809079,0.018564172478417355,9.012513567436393,-1.127812168839358,-57.662311912190695
1761284855.7662654,-20.218602635765514,-0.3713502325202822,0.8722401734000895,0.011470512073673639,9.023027531421546,-2.8145111438034833,-55.997016486109466
1761284855.7762847,-20.78280587879804,-0.37530273191708086,0.8731678689954951,0.005629176177981916,8.494392232622818,-5.7078088313535265,-53.66203157600645
1761284855.7862973,-21.310653652322436,-0.36854196499806186,0.8711604994168972,0.0020195194798318405,7.516911688262915,-9.782410825693145,-50.5661557400056
1761284855.7962677,-21.789749975119136,-0.35003818860875346,0.8659962376697594,0.00146255821489979,6.232526208542792,-14.898915941520281,-46.648687610498804
1761284855.806283,-22.207790729283985,-0.3201616433309373,0.8578413907409508,0.004501047413974016,4.829341465523327,-20.80230325605026,-41.89067849478949
1761284855.8162982,-22.55364746278495,-0.2808209836784581,0.8472039693528133,0.011300252587390942,3.5306116499343867,-27.13381214947087,-36.32426912212665
1761284855.8263025,-22.818462968048944,-0.23538578411861183,0.8348406063772424,0.021589850165855955,2.5785110480044913,-33.456129293759936,-30.03892009577416
1761284855.8362706,-22.996633621348785,-0.18838683188887262,0.8216307183309798,0.034661963626639244,2.2136364976069434,-39.289886610939526,-23.183480894554652
1761284855.8462825,-23.086562794083058,-0.14502180659600708,0.8084364824635464,0.04943001934015484,2.6517741608276295,-44.15769285056074,-15.963263260805848
1761284855.8563251,-23.091090992224935,-0.11052460281443019,0.7959702631292472,0.06454141698147772,4.060001098317882,-47.630621920401424,-8.631573329461787
1761284855.866312,-23.017538456511122,-0.08948192882189154,0.7846919362783167,0.0785276430770981,6.534631534018493,-49.371533325162225,-1.4755344356607218
1761284855.876308,-22.87733343109287,-0.08519845853823471,0.7747562338926712,0.08996993215576317,10.083813944145918,-49.16992942075884,5.203475296788615
1761284855.8864493,-22.6852420624847,-0.09921579859526447,0.7660245619956847,0.0976562397443596,14.61766203031156,-46.96424044729952,11.113849618766642
1761284855.896441,-22.458259127303,-0.13107323758593492,0.7581474865399351,0.10070558095193215,19.948514020920495,-42.849239827846304,16.000628449244275
1761284855.906284,-22.21425642825333,-0.17835823359792227,0.7507143284727124,0.0986397637566813,25.803074574502716,-37.06830617068745,19.672813943181634
1761284855.9162548,-21.970513065926973,-0.23704112498368837,0.7434552195287079,0.09139175334509825,31.84671618545424,-29.99204995956966,22.02794801879245
1761284855.9262981,-21.74226659776416,-0.30203609675862836,0.7364682119864554,0.07925439747708592,37.71823263185692,-22.086161659730706,23.07026763344166
1761284855.9362636,-21.541425531358442,-0.3678908523061421,0.7304307750204307,0.06278966565790174,43.07113449544477,-13.872136465295664,22.918815593105837
1761284855.9462826,-21.375571169183466,-0.4294870965632064,0.7267445941921783,0.04273011251806392,47.615534875010574,-5.884846706603523,21.80269008839923
1761284855.9562883,-21.24734993798619,-0.48263403834762725,0.7275597257672733,0.01990530252190787,51.153343445424056,1.369112083218439,20.04217350401533
1761284855.966654,-21.154316761455682,-0.5244556990073279,0.7356330638935893,-0.004783876011864488,53.59955291086337,7.448693045524632,18.016635043124385
1761284855.9763236,-21.089240276484258,-0.5535075548692631,0.7539982262115114,-0.03033785397214121,54.98433405562829,12.00827880440978,16.12251252365227
1761284855.986276,-21.04082922497112,-0.5696062157593114,0.7854579426834984,-0.055596022128415294,55.434390002926335,14.818153313371479,14.72683465402749
1761284855.99643,-20.994792570129206,-0.5734121454695483,0.8319526778316423,-0.07918218147399735,55.13687377359341,15.775002881547831,14.123108570768613
1761284856.0063362,-20.935108249847747,-0.5658623192278208,0.8939046298693276,-0.09951757979047401,54.29387047971747,14.903584179539765,14.496593649695805
1761284856.01694,-20.845353464472105,-0.547598474117291,0.9696745261290162,-0.11495510229406106,53.078365678981235,12.352051146495596,15.904874609626928
1761284856.0263057,-20.709952322047005,-0.5185642599971427,1.0552863487736142,-0.12404780715710922,51.60246754677703,8.383750536824115,18.2773232769587
1761284856.0367222,-20.51522947752453,-0.47793170514917316,1.1445570374386123,-0.12590102464477693,49.90521174291231,3.3671688179273676,21.433820720348937
1761284856.0467007,-20.250213601022395,-0.42444771582531166,1.2297032656216085,-0.12050367171267341,47.9616431816713,-2.2366502742009686,25.119549197068615
1761284856.0562992,-19.90719310977297,-0.3571686137024908,1.3023881747599695,-0.1089248565672183,45.70892831357043,-7.89247394638633,29.04946041808797
1761284856.066283,-19.482067694860106,-0.27640476756100996,1.3550387948428135,-0.09330192820194028,43.08088795028084,-13.01953181468753,32.95392778309477
1761284856.0763023,-18.97455008058324,-0.18457717314571964,1.382150128198106,-0.07660968405516677,40.04074144422057,-17.033700665450993,36.61671580935076
1761284856.0863109,-18.388253736934736,-0.08665207979302518,1.3812488827265252,-0.062254068325853375,36.60320095870512,-19.40277922914999,39.89804452649275
1761284856.0962596,-17.730666401050996,0.010085350447263552,1.3532611940789503,-0.05356567089744212,32.84068215267082,-19.709424003159576,42.739004129760126
1761284856.1062753,-17.012974818270003,0.0969415697119692,1.3022031844559372,-0.05328710718566286,28.873161727961943,-17.711678803135555,45.14812025986957
1761284856.116357,-16.24969094126433,0.16518622709889522,1.2343161137406267,-0.06315582985910947,24.845784296169317,-13.38847909444675,47.17518999173241
1761284856.1262949,-15.458044924843785,0.20751020309322518,1.1569093667040675,-0.08366800261483161,20.90143487760982,-6.958549160899996,48.88021420267691
1761284856.136277,-14.657153134130763,0.21920753238162066,1.077208575923507,-0.1140641628924424,17.156313137416987,1.1338720608386028,50.305544532791046
1761284856.1462927,-13.867019489986854,0.1988588671490474,1.0014443685992376,-0.15251725963280696,13.684985945828648,10.265568871618962,51.457426974444424
1761284856.1562958,-13.107456869568965,0.1484651182821919,0.9343041202762035,-0.19645238950188884,10.518097093405189,19.705216683614903,52.29991546317306
1761284856.166296,-12.397010149766459,0.07310048858104769,0.8787540610978201,-0.24290549810441023,7.651948430829225,28.696511486205242,52.76080472265252
1761284856.1763031,-11.751940904657213,-0.01979696785617346,0.8361570251561271,-0.2888425007911646,5.065738516844878,36.54083317583285,52.74666498218109
1761284856.1862853,-11.185319782279032,-0.12137280669198479,0.806573504692994,-0.3314004619290388,2.740384915104366,42.66849112943824,52.16267042364467
1761284856.1963096,-10.706271592074009,-0.2224152184064432,0.789133484426856,-0.3680563972202532,0.6730605662659882,46.69042667515933,50.93273327746334
1761284856.2063174,-10.31941995084504,-0.31438946732953327,0.7823908731846437,-0.39675553325027973,-1.1164134097698033,48.425354765311795,49.016263369581594
1761284856.216291,-10.024574778558083,-0.3903094608081971,0.7846088149120671,-0.41602993754472584,-2.5882367238000294,47.900613859999524,46.41927699095808
1761284856.226298,-9.816696704022617,-0.4453319527650409,0.7939606683538888,-0.4251160980637674,-3.6925196176361395,45.32847965192959,43.19910500539121
1761284856.2363224,-9.686159842669078,-0.4770124512954912,0.808657838708866,-0.4240522311380639,-4.382848943838571,41.063064093615296,39.46316750601326
1761284856.2462835,-9.619318976619851,-0.48523203771940604,0.8270274137816853,-0.4137180853642508,-4.629652227754924,35.545522953249716,35.36294583393903
1761284856.2563155,-9.599367078128955,-0.4718657079938224,0.8475614355024236,-0.3957793200239963,-4.430243521216701,29.246496582833377,31.08440229431268
1761284856.2663093,-9.607441720608088,-0.44029235519168824,0.8689508905196862,-0.3725158864296216,-3.8137461001715054,22.614189721623298,26.83588001658238
1761284856.2763343,-9.623904180835483,-0.39484072948896204,0.8901071685330634,-0.3465445985352255,-2.8404783164171343,16.034444101259222,22.834236710044987
1761284856.2862825,-9.629679381330257,-0.34024219105445475,0.910167035571885,-0.3204795830616788,-1.5965631360489683,9.806238863546133,19.289853181445565
1761284856.2963157,-9.607521185083446,-0.2811400690230543,0.9284771860578327,-0.2965966983392961,-0.1852767449501861,4.1330756217813605,16.391287974044864
1761284856.3062937,-9.54306901532755,-0.2216933658779656,0.9445606406779373,-0.2765694533153921,1.28311443847038,-0.8717592704784785,14.29063123384926
1761284856.316302,-9.425593584724387,-0.16530341405436,0.9580752219540853,-0.26132440712603705,2.701489303090243,-5.169743382434917,13.090876005233689
1761284856.326285,-9.24838625502186,-0.11447952478447103,0.9687782849816796,-0.25103288035664073,3.974872079519287,-8.775970050250244,12.836730912245498
1761284856.3363407,-9.00881276610902,-0.0708425048579438,0.9765089023513603,-0.24522515899071776,5.027614119105919,-11.736754600781083,13.510154452556622
1761284856.3463132,-8.708105003943134,-0.035244742565709336,0.9811906685091376,-0.24299082179663034,5.808372838302041,-14.10973259052459,15.03146526365345
1761284856.3562877,-8.350984226621321,-0.007965954759944143,0.9828494905418365,-0.24321646865987157,6.2926635270482105,-15.949064941869306,17.266217939408474
1761284856.366306,-7.945192009431365,0.011069057149786208,0.9816345681983353,-0.24481026865036226,6.482844499702189,-17.297080231992904,20.037252948018004
1761284856.3763382,-7.500965474727839,0.022104525522693767,0.9778288304109842,-0.24687155961767787,6.405506449998824,-18.182420941513506,23.140598691390018
1761284856.3862834,-7.030453135108959,0.025440348044658764,0.9718378247000893,-0.2487814976585769,6.106458839511278,-18.623663736242328,26.363370516993715
1761284856.3962831,-6.547045207963944,0.021408847515390014,0.9641529001538046,-0.2502126752325879,5.6438410841097655,-18.63658401287176,29.501560600327196
1761284856.4062922,-6.064595911646627,0.010432961317662448,0.9552935119957067,-0.2510752395583574,5.080238981701987,-18.24283773973987,32.37567666735688
1761284856.4163384,-5.59654128367297,-0.006864399775978562,0.9457413823510563,-0.25142873195474963,4.474930776950248,-17.477892545599214,34.84255694042711
1761284856.426329,-5.15495094586186,-0.029539651723972136,0.9358831294616308,-0.2513900385832137,3.8774294086096237,-16.396508918293943,36.80230072754254
1761284856.4363086,-4.749580901027474,-0.0562323305887526,0.9259767832981455,-0.251060290889106,3.3232864621835736,-15.074781133226045,38.20000689103979
1761284856.4463124,-4.387010152430386,-0.08511825751535018,0.9161522150904173,-0.25048268404909135,2.832695496864624,-13.608460542946073,39.02278808269595
1761284856.4562995,-4.069950101836127,-0.11392783595217995,0.9064476902371431,-0.24963427359179508,2.411864080088979,-12.10781987596014,39.293187661300685
1761284856.4663193,-3.796817300584359,-0.14004007502386506,0.8968765182837698,-0.2484494112879177,2.0565597084385754,-10.689635033512317,39.060528437914826
1761284856.4763367,-3.5616555054111805,-0.16065676004106286,0.887510929795328,-0.24686879123177635,1.7568267115369531,-9.467041473002595,38.39179273938641
1761284856.4863124,-3.3544745095805117,-0.17304932516584773,0.8785659474717871,-0.2449042031673381,1.5017170640632727,-8.538170246667832,37.3633925220667
1761284856.4963627,-3.1620342168617626,-0.1748541493456574,0.8704644895683862,-0.24270504578493413,1.2829878725816868,-7.974622610221923,36.054722448104215
1761284856.506319,-2.969043235613974,-0.1643755822535484,0.8638662803370118,-0.24060983704874706,1.097022765574297,-7.8109609107493485,34.543811844091174
1761284856.5163195,-2.7596711686215314,-0.1408465309678903,0.8596473807545016,-0.23916590416268219,0.944628051285553,-8.03641354429873,32.90482919209714
1761284856.5264916,-2.519209096590872,-0.1045984916197388,0.858824466595389,-0.2391040810285879,0.8287554378146874,-8.589893284146777,31.206768427872657
1761284856.5365558,-2.2356728109335253,-0.057107949694317685,0.8624282424226043,-0.24126266131147922,0.7505896600854928,-9.359248865703956,29.512445067347755
1761284856.5463328,-1.901144317259839,-0.0009116463988778313,0.8713421303311448,-0.24646528389014577,0.7048226259379902,-10.185455392627508,27.876966153043426
1761284856.5563545,-1.5126924174253897,0.06058930817889548,0.8861326364018901,-0.25536890811123525,0.6752834957595384,-10.872200583080588,26.345071795470826
1761284856.5663218,-1.0727853965362801,0.12340102833744615,0.9069034307201671,-0.26830686474957366,0.6322824903312882,-11.20098221575698,24.947134734591394
1761284856.5763268,-0.5891779475608658,0.1832532624518908,0.9332040823638572,-0.28515459439940877,0.5328839781644013,-10.95128680699471,23.694103790895266
1761284856.5863495,-0.0743029457061007,0.23594431079798808,0.9640156387161862,-0.3052422052002018,0.32475665106371404,-9.92455261713504,22.572198781691835
1761284856.5963175,0.45576459812138126,0.27770258252267477,0.997819983093628,-0.3273314126494793,-0.04666109346840029,-7.969440589728343,21.53857416481689
1761284856.6063247,0.9826614275317707,0.3055392424615181,1.0327429393998009,-0.34966679146114527,-0.6289378922129536,-5.004736313048259,20.519340989361325
1761284856.6170127,1.4872493487539933,0.3175464062058058,1.0667482504899717,-0.3701030530202989,-1.4533721083777453,-1.035545512557214,19.411195452939094
1761284856.626329,1.9510967813068127,0.31308667290684833,1.0978522291403783,-0.38630154025288915,-2.5278736182877926,3.8411019402318822,18.08742845097748
1761284856.6366034,2.3577429739477056,0.29283112971983843,1.1243250427795155,-0.39597998877785534,-3.833776056163959,9.443335146760674,16.408342070354806
1761284856.6481543,2.6936070097107923,0.2586315122470537,1.1448450636013727,-0.3971894709009348,-5.327398231258573,15.523551732939538,14.235233922072913
1761284856.6567812,2.9484778452615914,0.21324876202643525,1.1585808370572734,-0.38858243289748085,-6.946061939536985,21.796085242055703,11.44634570585201
1761284856.666327,3.1156010884779346,0.15999369286317747,1.165191434954735,-0.3696282031387955,-8.617389795223154,27.96815350649555,7.952688275493355
1761284856.6763093,3.1914455182750188,0.10235450410263354,1.1647570021680584,-0.34073091886680146,-10.270258319915234,33.768605463889116,3.7115353726845015
1761284856.686312,3.175273508805412,0.04368199363125627,1.1576711972178877,-0.30321482454837195,-11.845716953984246,38.97023556481027,-1.2643749266451314
1761284856.6963055,3.0686463929220174,-0.01302287796037817,1.1445369790763757,-0.2591664703429912,-13.306322936304973,43.40348242106744,-6.9033303509267885
1761284856.7063537,2.8749707489597767,-0.06521165863714949,1.1260999637109481,-0.21115771807498546,-14.642563326452189,46.96144115750062,-13.077468939337786
1761284856.716298,2.599145701727551,-0.1108074928694894,1.103232377747637,-0.1619054688394185,-15.875331867166617,49.59775527018417,-19.611809867895886
1761284856.7262938,2.247318402315789,-0.14818666464073657,1.0769569391825402,-0.11394095462495665,-17.05385020272745,51.31981639734454,-26.298712791118895
1761284856.7363174,1.8267084136408467,-0.17617036810028863,1.048484038198081,-0.06935682889868555,-18.24900900927391,52.17973114891735,-32.91643699638325
1761284856.7463202,1.3454340018418944,-0.1940580356885,1.0192300962451504,-0.02967575642538025,-19.542826104493585,52.26486060367303,-39.24990595558174
1761284856.7563055,0.8122722853114542,-0.20170460741982357,0.9907884405004103,0.004152675327630526,-21.015447445449382,51.688709906251134,-45.111201356938594
1761284856.7663143,0.23631088959972466,-0.1996143722965861,0.9648368818756837,0.031656741372705494,-22.731656003903034,50.58196624025445,-50.35692533636573
1761284856.776318,-0.3735072779008403,-0.18900578316660568,0.9429883962628144,0.05270164334242478,-24.729019630497447,49.082967173710045,-54.89968568701613
1761284856.786321,-1.008896507671594,-0.17180065252784793,0.9266144552428789,0.0673564680920334,-27.009520967743953,47.32703462569353,-58.71175501011485
1761284856.7962952,-1.6627123184583759,-0.15050546401378448,0.9166809497710456,0.07580651796984662,-29.535837843457106,45.43482791416882,-61.82034231558063
1761284856.806316,-2.3293102539548243,-0.12797800936248246,0.9136295982990038,0.07832489127282338,-32.23256417316231,43.50082326604541,-64.2955391196996
1761284856.8163228,-3.0047011357850995,-0.10710445798302258,0.917321773516913,0.07529483331379261,-34.991794118194974,41.58382483085844,-66.23337556410523
1761284856.8263257,-3.6864657865387165,-0.09044110264977223,0.9270473582468952,0.06725983350609027,-37.681826628699305,39.70172324204387,-67.73716498246867
1761284856.8363557,-4.373442450722587,-0.0798896849547985,0.9415922774686676,0.05497461659976529,-40.15741979175533,37.83236983155149,-68.9003249923735
1761284856.8463354,-5.0652455954350835,-0.07647020081575741,0.9593533112127214,0.039434896942033844,-42.27008941340877,35.921459988921555,-69.79327971397906
1761284856.8563266,-5.7617066750223245,-0.08023498426823983,0.9784852077418521,0.02187200978560536,-43.87737338754496,33.89690233839,-70.45610365192603
1761284856.8663168,-6.462341554809182,-0.09034068034113421,0.9970620332288588,0.0037061071927946164,-44.85064682120425,31.687563460327507,-70.89747823917577
1761284856.8763285,-7.165943712302131,-0.10526568919021224,1.0132338211785041,-0.013542554856171776,-45.08172222284616,29.242891724454303,-71.09946044601374
1761284856.88632,-7.870376926579551,-0.1231324224075309,1.0253635369079632,-0.02837885969724279,-44.488793498903554,26.549191037901554,-71.0266399577043
1761284856.8963213,-8.572599378758976,-0.14207011679171894,1.032137856989497,-0.039481879454737835,-43.022107170215186,23.638613090533486,-70.63762196487372
1761284856.9063272,-9.268901690377923,-0.16054224193248864,1.0326536621810651,-0.045857356774426684,-40.66918480276151,20.588355600856094,-69.89655275461352
1761284856.9163535,-9.95529713589818,-0.17757039007941208,1.0264849156023885,-0.046968161805830425,-37.45882883340042,17.509790051845307,-68.78267050939453
1761284856.9264119,-10.62797508105228,-0.1928151484411226,1.0137300720497806,-0.04281750896826934,-33.462874229710785,14.529653314564259,-67.29652299839235
1761284856.936459,-11.28372471427745,-0.20651433156621835,0.9950318246941006,-0.03396684702986523,-28.794831557768056,11.767262384621839,-65.46231333838722
1761284856.946341,-11.920253219954338,-0.21931425290500267,0.97155486720258,-0.02148281045313898,-23.60507264629964,9.312407070994867,-63.32657006069135
1761284856.9563258,-12.53635227069898,-0.23204804145639413,0.944908105054228,-0.006820559811185002,-18.07279437991739,7.208068993210874,-60.95384672231915
1761284856.9663634,-13.13189874980998,-0.24551363442670004,0.9170063080922657,0.008340012321026723,-12.395466453131117,5.440746219298626,-58.42039871641784
1761284856.9763904,-13.707701595137962,-0.26028862149491,0.8898800083055602,0.022283915216234615,-6.7767542967775,3.9394211705529436,-55.80678178281717
1761284856.9863262,-14.265222514652917,-0.2765986665919768,0.865456840193395,0.033453481470834594,-1.4140317756976921,2.582557339601167,-53.190147960448236
1761284856.9963756,-14.806204789292776,-0.2942392838154062,0.8453469787386322,0.04062141056550394,3.5134139431209426,1.2113192436315203,-50.6368001325223
1761284857.0063314,-15.332245411238734,-0.3125425067493191,0.8306660338980483,0.04302563981683106,7.854541543917123,-0.3533156115074794,-48.19540907716235
1761284857.0163615,-15.844346166176955,-0.33038147688463176,0.821921518463372,0.040451973918546776,11.494430039941482,-2.291772917304595,-45.89125182460359
1761284857.0263557,-16.34248274624866,-0.34621486232970283,0.8189783962945435,0.0332554874812339,14.359580453989574,-4.767131344974342,-43.72190208757007
1761284857.0363605,-16.825238478380463,-0.3581835529338338,0.8211086930700763,0.02231773788669084,16.420684086479024,-7.907521413955823,-41.65493939779968
1761284857.0464025,-17.28955639934331,-0.3642749426741987,0.827119378179243,0.008944833917684202,17.693106527147034,-11.790418862489615,-39.62833190672744
1761284857.056323,-17.730661341964236,-0.3625577653346808,0.8355407515181442,-0.005279612374367967,18.235382625063878,-16.429566060603143,-37.5540652759331
1761284857.0663373,-18.142185704124994,-0.35146585432929894,0.8448466867204709,-0.018666136539264758,18.1459154927039,-21.76551491234302,-35.325279001640546
1761284857.0763419,-18.51650171208977,-0.3300864608694393,0.8536725243588836,-0.029594218602717947,17.557905595392644,-27.66106253931208,-32.8266844076159
1761284857.086321,-18.845231846419455,-0.29840165144809444,0.8609979485251208,-0.036672865173568985,16.632418451771393,-33.902868598723174,-29.947515785944436
1761284857.096329,-19.119890174535445,-0.2574415229418518,0.866268883026746,-0.03887525248635925,15.549509389549874,-40.210133833353055,-26.59586137631068
1761284857.1063414,-19.332603650482714,-0.20932628522452484,0.8694415131101583,-0.035639824559945604,14.49747097741204,-46.250414058064955,-22.713015210543574
1761284857.1164522,-19.47686737989029,-0.15719076962966153,0.870941744669807,-0.026932201179569272,13.660522384896165,-51.66165005306813,-18.286462739201063
1761284857.126318,-19.548291926732624,-0.10499551189805408,0.8715447357951907,-0.013263224097625944,13.205572364779304,-56.07857930949851,-13.360177785609427
1761284857.1364808,-19.54529774990452,-0.05723429736607129,0.8721911299129629,0.004340046418447235,13.268986481998716,-59.161082603393425,-8.040974111716793
1761284857.14638,-19.469701318189497,-0.018552670666381048,0.8737674732856556,0.02441106578420027,13.94449130930486,-60.62180960111429,-2.499687810502802
1761284857.1563401,-19.327124148601218,0.0067005368840488706,0.8768857354429433,0.04516593047074875,15.273410898862531,-60.250566075933186,3.033953072669084
1761284857.1664174,-19.12714765761773,0.014953954716477074,0.8816996058896331,0.06466516870889577,17.23837335499574,-57.933307663515734,8.283633961170484
1761284857.1763713,-18.883140800825263,0.003875560157976642,0.8877927445256683,0.08100467245008917,19.761487965129504,-53.66413128580746,12.946214768898935
1761284857.1863337,-18.61170850239944,-0.02725009205463724,0.8941658791501679,0.09251795831565664,22.707792971713324,-47.54942072669044,16.71836994634653
1761284857.196323,-18.331746965056837,-0.07729949874205658,0.8993362561459908,0.09796352634986238,25.894492931306736,-39.80425161508228,19.328489037335746
1761284857.2063167,-18.06314304103987,-0.14329978355986497,0.9015466833805429,0.09666626435005006,29.106086478937563,-30.74207571493529,20.57108030430424
1761284857.2163792,-17.825211288830776,-0.22065595776134317,0.8990639933256658,0.08858563377232027,32.11485239707028,-20.759231023988097,20.339810177685173
1761284857.2263384,-17.635013588589572,-0.30360008834383395,0.8905292736668337,0.07429655362801539,34.70527614988258,-10.315713915233543,18.65446317699446
1761284857.2363966,-17.505740956900773,-0.38580767346999606,0.8753074093064299,0.05488685929469053,36.699928359228984,0.08699099426932656,15.676829206067891
1761284857.2463558,-17.445347083356488,-0.46109959010686347,0.8537757866711979,0.03179108458430949,37.98326427969664,9.930961513132372,11.711111249153817
1761284857.2563775,-17.45560509452194,-0.5241346869939735,0.8274949884149958,0.0065905373871497155,38.51915860502878,18.7100189648797,7.186066707807932
1761284857.2663608,-17.53171562906638,-0.5709954564123173,0.7992184371929145,-0.01918360814800657,38.35813296757911,25.960847278017987,2.6186546847465397
1761284857.276342,-17.66253241790401,-0.5995756047550839,0.7727190614159336,-0.04420304221323196,37.63143882360826,31.295728488214944,-1.4379697963575606
1761284857.2863479,-17.831400600216188,-0.6096967497969813,0.7524324016420928,-0.06741544062246106,36.53139145565602,34.43424434933238,-4.456322247545914
1761284857.2963316,-18.017531615038127,-0.602917779625937,0.742935226076588,-0.08802844821268498,35.28027446001855,35.230384702722034,-5.998280441011188
1761284857.306326,-18.197773158404246,-0.582057251918397,0.7483025024574206,-0.10543572797802292,34.093130000687815,33.69143019925048,-5.771463118458253
1761284857.3163624,-18.348580768952154,-0.5505191849074966,0.7714179579210164,-0.11914669242636587,33.14186799662094,29.98581036844131,-3.6694701175249778
1761284857.3263447,-18.447970552358832,-0.5115754621476615,0.8133470084379392,-0.12877621072409026,32.52828833729439,24.438561125726828,0.21098869927559516
1761284857.336394,-18.477241458255616,-0.4677858237092715,0.8728985351003532,-0.13410938926646565,32.2713360765223,17.514383750331522,5.579765083706955
1761284857.3463624,-18.422300463005808,-0.4207075498545447,0.9464901683370134,-0.13520826577236325,32.30997785810127,9.78905737426397,11.98920715562067
1761284857.3563495,-18.274490190174834,-0.3709631062469071,1.0283889758402975,-0.1325056799450598,32.51921623318444,1.9100939706826128,18.891497840691002
1761284857.3663557,-18.03088648440051,-0.31862389209169606,1.1113339525461756,-0.126847043729094,32.73445342979063,-5.452204673102541,25.709016570111604
1761284857.376671,-17.694092035461505,-0.26377177833972265,1.1874694499159557,-0.11947382077640928,32.77906005706167,-11.660916077631665,31.90723573113523
1761284857.3865368,-17.271599490030415,-0.2070476619709112,1.24944193647522,-0.11196343106221451,32.490923099028315,-16.171394980291137,37.059261732470084
1761284857.3963494,-16.77483376404909,-0.15000213180564342,1.2914549257857393,-0.10613466219692154,31.74497361199744,-18.58629692528168,40.89249300366011
1761284857.4063625,-16.218006528111342,-0.09512983181920222,1.3100652267535424,-0.10390682037600532,30.469627015352245,-18.699060172971997,43.31079372483679
1761284857.416394,-15.616923028253764,-0.04558075083068213,1.3045579254162496,-0.10709118088977874,28.65563681322804,-16.518637203199194,44.3896412152184
1761284857.4263537,-14.987869817755735,-0.004654968165931507,1.2768472192227684,-0.11711411705391558,26.356354025360325,-12.270270807128856,44.34630719017258
1761284857.4363725,-14.346681233953765,0.024753249677742804,1.2309716351272872,-0.13471660763007215,23.679173460766116,-6.370462551108714,43.49147491783988
1761284857.4463534,-13.70803875888664,0.04061453946103486,1.1723375607373714,-0.15971501488228967,20.769225655564966,0.6214881364990972,42.17178840702328
1761284857.456374,-13.085014602480488,0.04204552606137087,1.106892118393023,-0.19091236352207905,17.787958954150838,8.068779317773794,40.71385841783776
1761284857.4665394,-12.488841624055706,0.02939421020634849,1.0403804585740344,-0.22620971974480997,14.89058225906698,15.329582969572042,39.37897430317269
1761284857.4763775,-11.928875327078815,0.004149206565485794,0.9777837580425726,-0.2629028759829452,12.206733771811798,21.825994389654966,38.334665208714306
1761284857.4863546,-11.412697424889334,-0.03128777326362103,0.9229689862779344,-0.29809165430814766,9.827892690405218,27.09980111449597,37.6453207538822
1761284857.4963775,-10.9462876841687,-0.07391244645713788,0.8785338301113694,-0.3291013739449574,7.803225189424081,30.848108113972756,37.280422544907985
1761284857.506365,-10.53417240520165,-0.12045061066973714,0.8458096735936453,-0.3538245828257727,6.1433941739752305,32.9355465669482,37.136313474663666
1761284857.51638,-10.179461592318638,-0.16765793958880743,0.8249841543199633,-0.3709266261894894,4.8300503490596975,33.38380046964595,37.06608421334922
1761284857.526379,-9.883719103922232,-0.21254954429221143,0.815308124545197,-0.3799035368897125,3.8277677228843983,32.34275512109284,36.91194509973289
1761284857.5376139,-9.646662887888493,-0.2525445388821603,0.815352140314538,-0.3810178120187141,3.0952769171908865,30.050053605926077,36.535081589217164
1761284857.5463784,-9.46575073355858,-0.2855321450605434,0.8232762305408516,-0.3751563451663204,2.593792249374375,26.786889065637002,35.83915445026521
1761284857.5564191,-9.335755077426581,-0.3098813427402749,0.8370784484293042,-0.3636542214468765,2.2915519407766816,22.837430708515907,34.785027873134226
1761284857.5664022,-9.248456246189635,-0.32442311039033783,0.8547954176976901,-0.3481154259973835,2.164881536491548,18.457621203390726,33.39576396872792
1761284857.5763931,-9.192581899021086,-0.3284327605699855,0.8746407385534575,-0.330246728674466,2.196819623250043,13.85664670430607,31.752243986592223
1761284857.5863886,-9.154092537488138,-0.3216315651322111,0.8950811383480193,-0.3117110108234665,2.3745435242212967,9.19171149899535,29.980859527659103
1761284857.5963788,-9.116863560861205,-0.3042144205504173,0.9148616842284154,-0.29400270140572826,2.686622885434434,4.574326744592087,28.235505936152954
1761284857.6063528,-9.063750441777946,-0.2768966348668761,0.9329972015426836,-0.2783488123173575,3.1207181754509716,0.0844911089249921,26.67657949952734
1761284857.616381,-8.977954318804201,-0.24096070579762416,0.9487464747393839,-0.2656410607389065,3.6619404323603035,-4.211877238979891,25.44982674830921
1761284857.6264136,-8.84454136953528,-0.19827558932770245,0.961581167092863,-0.2564046497613566,4.291846054547999,-8.246990652114091,24.667740102111466
1761284857.6363766,-8.651922759903876,-0.15125919882999775,0.9711564602131424,-0.25080596979809244,4.987991796463783,-11.940648160430646,24.395769569253293
1761284857.6464016,-8.393085210291014,-0.1027622922493314,0.9772874381158204,-0.24869574441973918,5.7240453134483,-15.197483535843233,24.64494874688063
1761284857.6563582,-8.0663837506861,-0.05586821738171211,0.9799339087500728,-0.24967838633738632,6.470510509338036,-17.912434136560723,25.37166177913108
1761284857.666407,-7.67576716188612,-0.013623963692463135,0.9791949548797843,-0.25319464258338514,7.196094775272976,-19.98291366161104,26.484307325202213
1761284857.6763914,-7.230391659304708,0.021262445172197157,0.9753116562577563,-0.2586039173990575,7.869612756209648,-21.32469513235496,27.85568281703769
1761284857.6863956,-6.743671055164971,0.04671081900375804,0.9686724002073078,-0.26525483815777134,8.462157189412231,-21.887818027380536,29.33915737589855
1761284857.6964467,-6.231891480698386,0.06149561235461576,0.9598119384962995,-0.27253684781533444,8.949162670976241,-21.669002832468266,30.786252540101522
1761284857.7063882,-5.7125705361044785,0.06537335760114436,0.9493950252793201,-0.27991078506825623,9.312002774234166,-20.71795367043331,32.06319191963765
1761284857.7163875,-5.202759266655953,0.0590924950127897,0.9381790578570245,-0.2869214142101566,9.538890525915608,-19.136270439658944,33.064312536018505
1761284857.7264044,-4.717474213903043,0.04428875819118922,0.9269568403086741,-0.29319827924939196,9.625037202061788,-17.06912406840161,33.72086021941354
1761284857.7365296,-4.268414324514664,0.023287199995387274,0.9164877928464085,-0.29845173365328737,9.572191242414588,-14.691061053869726,34.00448132728225
1761284857.7464838,-3.8630738534855054,-0.001157844823920052,0.9074302748598447,-0.30246859812007726,9.387778003457049,-12.188096450841655,33.92553104521776
1761284857.75656,-3.5043165859649967,-0.026151931758910958,0.9002872930157862,-0.30510870378876737,9.083879749565869,-9.738573331964853,33.527019687670894
1761284857.7668195,-3.1904336841424126,-0.04894982175645852,0.8953735858463022,-0.3063020535545552,8.676250523167683,-7.495202508748466,32.87552011855226
1761284857.776495,-2.91566741865558,-0.06722102363624441,0.8928064153210883,-0.3060469731271818,8.183478177120728,-5.570398336996361,32.05061029215444
1761284857.7864187,-2.671143159786651,-0.0792707819746268,0.8925174836369324,-0.30441057669707206,7.626308626859941,-4.026587365117381,31.134416770901954
1761284857.7967956,-2.446109533485123,-0.0841961458618247,0.894280050476147,-0.3015320186007775,7.027056830076639,-2.8726005231482667,30.202590811424496
1761284857.8063824,-2.2293431545284133,-0.08195653100509977,0.8977435965596751,-0.29762635356373734,6.408966675727195,-2.066554633751103,29.317652916504223
1761284857.8165555,-2.0105394451622103,-0.07334218331228934,0.9024683337374209,-0.2929845782539265,5.795364993240002,-1.5248017881778295,28.525165309872552
1761284857.8264263,-1.7815002087473422,-0.059836284955795835,0.9079536945886949,-0.28796541801025693,5.208493629375593,-1.135663764178776,27.85271478403406
1761284857.8363922,-1.5369540655832752,-0.04338580895703967,0.9136586612091608,-0.2829763415261124,4.668001842314966,-0.7759398568041811,27.311276344584407
1761284857.8464038,-1.2749080447903252,-0.026116102380197057,0.9190168339472872,-0.27844382063716494,4.189234717743194,-0.32777072001344776,26.898227653299323
1761284857.8563995,-0.9965140726232972,-0.010036839440908694,0.9234539475371819,-0.2747755325271306,3.781637648872088,0.30650377761629766,26.60113295132577
1761284857.8663995,-0.705518174450002,0.0032135590679555617,0.926417914196375,-0.27232035240449315,3.447747435404321,1.1933113114087452,26.401448136283786
1761284857.8763852,-0.40741659197904906,0.012552597080804891,0.9274295277166369,-0.271335366065432,3.1832555778991667,2.361564983261586,26.27752727024905
1761284857.8865514,-0.10845970848470544,0.017556060557961106,0.926155264893692,-0.27197084283362455,2.9784278888501494,3.8011358022096733,26.206679300117145
1761284857.8963976,0.18536773319811714,0.0184819225835342,0.9224941943692099,-0.2742811605765563,2.820763381732923,5.4654860140297705,26.166400500800826
1761284857.9064195,0.46928072029268697,0.016223016907980323,0.9166625828992855,-0.27826120851047886,2.6983131075547138,7.277742024205557,26.13514556839293
1761284857.9164093,0.7404426082117588,0.01219098049734748,0.9092549803702356,-0.28389775426447683,2.6027571203793007,9.139645313537908,26.093015500911516
1761284857.9263906,0.9984287324684648,0.008130158024898575,0.9012599044927546,-0.29121922642141806,2.531310069529722,10.942910936848635,26.02255284220513
1761284857.9364357,1.2453115388050862,0.005865550270747597,0.8940123861962703,-0.3003268285544654,2.4868164488267905,12.582286738915252,25.909554130237854
1761284857.9463966,1.485306092511882,0.0070058708441615705,0.8890756547920227,-0.3113927903649317,2.4758943219052387,13.969057246112802,25.743584518295208
1761284857.956429,1.7239816880958099,0.012644543587722441,0.888058862939077,-0.324617207429392,2.5055180296748656,15.043146490431333,25.51782344036063
1761284857.9664016,1.967133818405901,0.023115850477113505,0.8923927780919417,-0.34014447292037137,2.578841141830356,15.781694224216729,25.228002647569877
1761284857.9763987,2.2194935210827835,0.03786148608627303,0.903096866515666,-0.3579528147938049,2.691260902263103,16.20224251302234,24.870447645833256
1761284857.9864163,2.4835002074555272,0.05544337773762746,0.9205775750001345,-0.3777417465532404,2.827700935366807,16.35948741816054,24.439490294239423
1761284857.9964035,2.75836231699756,0.07370749297688824,0.9444981299138623,-0.39884758103745926,2.9618821770126003,16.335725260494335,23.924693127421875
1761284858.0063996,3.039576947581126,0.09007029385948694,0.9737531880336178,-0.42021378608033366,3.0580197411116665,16.226348378851903,23.308372275297838
1761284858.0166526,3.3189911540515102,0.10187482326886857,1.006565589097531,-0.44043119153634075,3.0749636468513564,16.12273784477704,22.563830833705758
1761284858.026401,3.5853897836684987,0.10675340745777985,1.040698636466357,-0.4578462672676964,2.9723122641057023,16.09547117304768,21.654561218602392
1761284858.0364134,3.8255115210005104,0.10293863989454169,1.07375188661603,-0.47071931494281855,2.717503206553025,16.180826532988025,20.534510956633984
1761284858.0465739,4.025339490233241,0.08947962184031621,1.1034893046331413,-0.4774041436090422,2.2924217940355187,16.37312569703219,19.14939194319391
1761284858.056396,4.171487077175103,0.0663416742511145,1.1281402594533767,-0.4765195204300994,1.6978209129067785,16.624580883838473,17.43896258162204
1761284858.0664008,4.252498673296344,0.03438995942703013,1.1466165894238118,-0.46708843809336714,0.9539786282673036,16.853104962796966,15.3401923281399
1761284858.0763936,4.2599021776757136,-0.004724927406968329,1.1586030235741682,-0.4486301387011458,0.09660225612214483,16.9571746539451,12.791187250380808
1761284858.0864131,4.188880991099613,-0.0487515537607939,1.1645036836412739,-0.42120011973027194,-0.8320473654877254,16.835510974861894,9.735689810685015
1761284858.0964882,4.038478644736376,-0.09506064488475421,1.1652605330873198,-0.38538376278027336,-1.7956776696706527,16.408270449283602,6.127869884235711
1761284858.10644,3.811312916455418,-0.14087285501915967,1.1620920736530416,-0.3422559778390131,-2.7779094896402103,15.635836505634346,1.9370332361521794
1761284858.1164236,3.512856642367817,-0.18345882173927316,1.1562218834165898,-0.29331899833841923,-3.794700031506011,14.531408330668985,-2.848166996368742
1761284858.1270127,3.150423681618269,-0.22028804041611186,1.1486675240018795,-0.2404251976804085,-4.902177877218599,13.164599737915546,-8.216409091130863
1761284858.13644,2.732053177763547,-0.24912182348881365,1.1401376185754075,-0.18568717763005077,-6.197389140079364,11.655109563749763,-14.131613443347401
1761284858.1463783,2.265490174814436,-0.2680683662177673,1.1310462096554008,-0.13137629466127412,-7.810622461215915,10.15774547579172,-20.532394871144486
1761284858.1564517,1.7574131572442742,-0.27563463275059086,1.1216154545259807,-0.07981144712468696,-9.889555676074187,8.841999027187718,-27.333365705143947
1761284858.1663938,1.212979252180665,-0.2708116551955699,1.1120156707077438,-0.0332398784359772,-12.57715905766644,7.87041736881395,-34.4285478035628
1761284858.17641,0.6356765306888512,-0.2532134240569294,1.1024912048944666,0.006289373200423099,-15.986742850104703,7.379942885230931,-41.69692438797703
1761284858.1864507,0.027415675686780494,-0.22325883041008499,1.093435999630216,0.03705946071186304,-20.178413924595485,7.469266072258212,-49.00974022639668
1761284858.1964355,-0.6112299211559422,-0.18235267364028104,1.0854027362480507,0.05782452880547294,-25.141280230575052,8.193393486997874,-56.23869409359386
1761284858.206647,-1.2807206186335895,-0.13300025076302555,1.0790459680721884,0.06794215249623216,-30.784929838608154,9.564595406249747,-63.26385552487564
1761284858.216399,-1.982244121663526,-0.07879072305194777,1.0750126283622095,0.06747646615065696,-36.942112280922956,11.557268853721041,-69.98006537371762
1761284858.226577,-2.7174348299478117,-0.02420829191445677,1.0738051056843305,0.057242182717885476,-43.38248196688181,14.113541969597286,-76.30075152573549
1761284858.2364383,-3.488118465188167,0.025730591396331225,1.0756506334448372,0.03876528403349582,-49.835197344740266,17.14687711531547,-82.15850504745661
1761284858.2464013,-4.296063687893026,0.0659740843401929,1.0804109023240218,0.014154284062512108,-56.01657280142869,20.542325832905416,-87.50237205313879
1761284858.2563827,-5.142719275149268,0.09199439688588014,1.087555143909082,-0.014101536123468988,-61.65821560656263,24.153944459427088,-92.29251003356696
1761284858.2663932,-6.028924871068318,0.10032420569353079,1.0962012619585584,-0.04337383480921982,-66.53132297713638,27.80154091317488,-96.49349595773626
1761284858.276374,-6.9545997177255545,0.08898902386258219,1.1052098080098638,-0.07113808361680077,-70.46393892056237,31.26978303583488,-100.06798609532238
1761284858.2863855,-7.918430465984621,0.057774681212080674,1.1133026797925238,-0.09518338941745227,-73.34957232059493,34.31242657875398,-102.97242971084428
1761284858.2964084,-8.917590838385658,0.008298303267446606,1.1191774861702648,-0.11376657363106567,-75.14718668909381,36.663165179888445,-105.15607008492286
1761284858.3063846,-9.9475299867266,-0.0561180669880839,1.1215987857031382,-0.1257023971337614,-75.87385260397687,38.05294506824731,-106.56368307571955
1761284858.3164022,-11.001862915886523,-0.13074574293515678,1.119462527455837,-0.13039454637406306,-75.59216414791355,38.23216666924632,-107.14167552238305
1761284858.3263884,-12.072387247200943,-0.20987672268830943,1.1118423804360202,-0.12781845067342457,-74.39487463646041,36.99532631149971,-106.8464930333614
1761284858.3364627,-13.149238569073574,-0.2873310939468984,1.098031485010562,-0.11846644542284944,-72.3892060002622,34.205259591463154,-105.65383838313055
1761284858.3464305,-14.221183814543007,-0.3569974621715977,1.077589484781197,-0.10326189536293263,-69.68304554179348,29.81403463543948,-103.5669891028688
1761284858.3564026,-15.276039296570067,-0.41336188860993756,1.0503951115066963,-0.08344693894260938,-66.37481232442158,23.877635561060796,-100.6225436171241
1761284858.3664029,-16.30118744561223,-0.45198052852353987,1.0166950589901904,-0.060451810210541065,-62.54810622844633,16.561971970004077,-96.89224652567933
1761284858.3764365,-17.28415531691316,-0.4698534625218362,0.97713615849442,-0.03576074442339297,-58.27131639489875,8.138595839911794,-92.4801563217955
1761284858.386755,-18.213211198415372,-0.46566900060710437,0.9327707297763445,-0.010793997111093119,-53.601318227953804,-1.030205455047541,-87.51526139797927
1761284858.3963902,-19.07793489635966,-0.4399067841826963,0.8850304576176519,0.013178424481920411,-48.58955529935359,-10.515827061021405,-82.14053663264038
1761284858.406437,-19.86972188549397,-0.39480456187762586,0.8356684178529726,0.03508740693926895,-43.28846314760198,-19.85497282061756,-76.50011228314077
1761284858.41663,-20.582189236563536,-0.334200739742021,0.7866713732986579,0.05408837466725105,-37.75640669784104,-28.585485698095397,-70.726536402319
1761284858.4264243,-21.21145944252349,-0.2632635004185817,0.7401462696985087,0.06957310527891747,-32.05994053172023,-36.28311838863578,-64.93005199925824
1761284858.436425,-21.756304914111237,-0.1881128010724508,0.6981859802690163,0.08118281371278956,-26.273049612935075,-42.59599310736888,-59.19147104624578
1761284858.4463975,-22.21814068741862,-0.11534054533706872,0.6627192770176669,0.08882627953861409,-20.473850428338803,-47.27367434217437,-53.559684248273236
1761284858.456395,-22.600857690089487,-0.051442689247092666,0.6353504615722412,0.09269509154111813,-14.739806003515223,-50.188095525487185,-48.054150615911226
1761284858.4664328,-22.910497066701467,-0.0021970214713354207,0.617197892766103,0.09326112177578104,-9.142704267191489,-51.3440560473578,-42.671953352523325
1761284858.4764152,-23.15478026097077,0.02795332730015012,0.6087473965541067,0.09124396659820896,-3.7444717549595876,-50.87765402432871,-37.398310311305586
1761284858.4864213,-23.34252914968852,0.036429275527788706,0.6097422834604197,0.08754631111137952,1.4055485367852276,-49.04185619859027,-32.218882011479124
1761284858.4964015,-23.483030202249108,0.022871865531465405,0.6191330751501086,0.08316559507829012,6.271757756695286,-46.179443302401225,-27.131875928101277
1761284858.5063953,-23.585408463442448,-0.010744678035565001,0.635106513259986,0.07909498900191131,10.83223872834003,-42.684836389926915,-22.1578266439102
1761284858.5164523,-23.658075210627864,-0.06027910247227491,0.6552060185980317,0.07622510483558403,15.0780338833508,-38.957820847319695,-17.34506604306306
1761284858.5264223,-23.708297366763258,-0.11986479560205879,0.6765457263098882,0.07525287114916213,19.012307277512342,-35.35381929662253,-12.769335663203359
1761284858.5364206,-23.741912822041865,-0.18258686802376692,0.6961088722122171,0.07659846011485125,22.649713787334605,-32.13679582858556,-8.526763673953338
1761284858.5464096,-23.763191331673912,-0.2413253999090155,0.7111098716103524,0.08032847271343715,26.015994901059102,-29.44166035626759,-4.720489524611258
1761284858.5564096,-23.774821453180174,-0.28967242204222704,0.7193883894066861,0.08608741007829875,29.147554595336967,-27.252786411157505,-1.4424660955056672
1761284858.5664523,-23.7779931172053,-0.32281275403830556,0.7197932685617403,0.09304933409996202,32.09059733724903,-25.403734353709474,1.2467689107793842
1761284858.5765123,-23.77254392849003,-0.3382514753653004,0.7125058230379303,0.09991131640877597,34.89935007091225,-23.60054689434955,3.336572049129257
1761284858.586437,-23.757144392695352,-0.33627868776751113,0.6992483854135702,0.1049533837979286,37.63294937021772,-21.467452846819874,4.878800109854369
1761284858.5964556,-23.729509338034536,-0.32008505149977046,0.6833270723497288,0.10618464939928907,40.3507057035572,-18.610101604845084,5.99099707223895
1761284858.6064136,-23.686633047445085,-0.2954737652959985,0.6694672686297576,0.10158298796927377,43.1055360843503,-14.688215954692966,6.8481165270539455
1761284858.6164062,-23.625046769886005,-0.2701522848715023,0.6634151650129102,0.08941552055965757,45.93534521613954,-9.487365650869105,7.662880997861418
1761284858.6264164,-23.5410868840667,-0.2526334813101055,0.6712999287609145,0.06860023088073501,48.85225922963102,-2.978819024667958,8.657235723246476
1761284858.6364715,-23.43114598392481,-0.25083859080723603,0.6987828248733775,0.039042120889882986,51.83023016613989,4.642757317290934,10.029412283434757
1761284858.646449,-23.29186927611131,-0.27057336243055313,0.7500645806213767,0.0018622679413834169,54.79272546769751,12.951757148196974,11.92238738842207
1761284858.6564558,-23.120264523349057,-0.3141268088717847,0.8268768392197129,-0.0405552564159111,57.603625763662436,21.318884921701823,14.399675537116616
1761284858.666436,-22.91371584056897,-0.3792863410640502,0.927635933007255,-0.08474487924201281,60.065426722447896,28.973542797453835,17.433365392270936
1761284858.6764753,-22.66992111650179,-0.45904391311263126,1.0469693695659588,-0.12657331989074622,61.928768537958476,35.096714529739685,20.907280566448442
1761284858.6864069,-22.386797704072908,-0.5421765057670233,1.1758173746358607,-0.16184306918625435,62.91586101100134,38.93437119065621,24.635463713324732
1761284858.6964126,-22.062413019501278,-0.6147348560214247,1.3022467928082653,-0.18699820035660433,62.75757047694618,39.916428536507624,28.393266908026366
1761284858.706416,-21.694993775232764,-0.662290116103693,1.4129852753444399,-0.19980929335771613,61.24024484280759,37.762737918117914,31.955617446973733
1761284858.7164354,-21.283052303667667,-0.6725935172119174,1.4954999647753588,-0.1998966349023118,58.25462685260158,32.55668740334674,35.13502352279671
1761284858.7264328,-20.825644833660288,-0.6381323817265422,1.5402413497314658,-0.18895599374254685,53.83650785924361,24.769536794224834,37.81122349829574
1761284858.736484,-20.32274783771505,-0.5579757985332869,1.5425179681008472,-0.1705823685249259,48.1881088562605,15.224941732061454,39.945649465531396
1761284858.7466102,-19.775707176862714,-0.4383771338917355,1.503460944371823,-0.14965927607762577,41.67130899462309,5.003142325358323,41.57720804884984
1761284858.7564347,-19.18768527114664,-0.29188711239501924,1.4297515519374577,-0.13140611894773083,34.7690810867362,-4.703113107972901,42.80067507934497
1761284858.7664194,-18.564012895329434,-0.13516251109074512,1.3321697071456293,-0.12031752715319378,28.01916861004378,-12.756663088512939,43.7338977981743
1761284858.7764869,-17.912355259973005,0.013955247342784798,1.2233966057822987,-0.1193007691564403,21.93210494455858,-18.23645231849471,44.483211812385655
1761284858.7864804,-17.242630676483195,0.13935280968805253,1.1156909019524064,-0.1292588881771885,16.911188787924342,-20.55991534352451,45.116587227845585
1761284858.7965355,-16.566664380754528,0.22891783467478316,1.0190010344667142,-0.14920209768075224,13.192561623230171,-19.546372826553142,45.65091329728394
1761284858.8064907,-15.897601585372245,0.2758241122732947,0.9398512364631091,-0.17678460431271373,10.818631784637939,-15.415410347303663,46.05493990530271
1761284858.8164492,-15.249129996015629,0.27879020672436544,0.8810721799183197,-0.20904048844186907,9.649548451554308,-8.728594514346511,46.264796861384106
1761284858.8264892,-14.634573710150635,0.24149789709051864,0.8422409667941665,-0.24306771612586497,9.408114622822135,-0.29234001029041706,46.20624588743337
1761284858.8364127,-14.065925762547819,0.1714596873564751,0.8205852835664227,-0.276475436027505,9.745997997850777,8.957228519269652,45.81729704150074
1761284858.846426,-13.55289160872909,0.07862805829032951,0.812076967792698,-0.3075281981295255,10.315066099802289,18.068782994262403,45.066040495870226
1761284858.8565197,-13.102021582665847,-0.026012645870858258,0.8124658104667865,-0.3350404870268047,10.827954516315026,26.17606211433917,43.960674240509164
1761284858.8664098,-12.716014645030162,-0.13170157771294672,0.818069730088201,-0.3581507353120135,11.096308691619564,32.57579374542145,42.55101438709127
1761284858.8764505,-12.393274668414243,-0.22890261755338945,0.8262271924506952,-0.3761142832103697,11.042077193908352,36.77955279206326,40.92273183378892
1761284858.8864675,-12.127789994112161,-0.3100067295635496,0.8354097929889116,-0.3882091836816195,10.684535247037507,38.53872212211278,39.18681791422937
1761284858.896428,-11.909384722214103,-0.3697329604916017,0.8450648996725255,-0.3937786715979349,10.11110835800224,37.843631007494224,37.46716722197127
1761284858.9064267,-11.724355943650616,-0.4052545612612412,0.8552970315110073,-0.3923728689606616,9.442142052778932,34.899643013193376,35.88873298500409
1761284858.9164143,-11.556466126746855,-0.41609292871003195,0.8665014166990802,-0.3839199490974916,8.798565828189634,30.084758582681633,34.56776623864384
1761284858.9265137,-11.388208560152362,-0.4038278615406941,0.8790417621745809,-0.36885703855233204,8.27818092143915,23.89490078126369,33.60462857023269
1761284858.9364197,-11.202216113828483,-0.37167427187108304,0.8930283640480878,-0.3481747137436175,7.942658063447576,16.883993018660778,33.0789151494547
1761284858.9464235,-10.982653114144966,-0.3239784302501432,0.9082148970476834,-0.3233613393186128,7.814428407180826,9.605947085906777,33.046274506209606
1761284858.9564524,-10.716427956692629,-0.26569027630294456,0.9240026432726864,-0.2962616342320078,7.880969628047408,2.5647561215212695,33.53631196186961
1761284858.9665377,-10.39409366938854,-0.20186737727526305,0.9395239142460207,-0.26888136141299057,8.103462512285585,-3.8227863104423863,34.551171236125754
1761284858.9764407,-10.010358419114418,-0.1372575330167522,0.953770793805454,-0.24317649834698132,8.427068908100539,-9.24932205707435,36.06466173261551
1761284858.986446,-9.564193132718648,-0.07599151830832226,0.9657371933188619,-0.22086246247753344,8.790764027047105,-13.523869102188867,38.022046301246455
1761284858.9964504,-9.058582516956385,-0.02139858883660178,0.9745477026240308,-0.20326928505719966,9.135447251046713,-16.56515971998141,40.34078075846066
1761284859.0064642,-8.500007483925717,0.024060298779795222,0.9795536442153019,-0.19125538530553707,9.409775468886162,-18.384567962528035,42.91257920177575
1761284859.016458,-7.897766497480667,0.058760459881716826,0.9803846181070108,-0.18517981254355811,9.57370863047878,-19.06272256862275,45.607158033835816
1761284859.0265863,-7.263239701691326,0.08181232595031167,0.9769526950061146,-0.18492374077941073,9.600085534092614,-18.72416180270278,48.27789430383197
1761284859.0364933,-6.609174748213979,0.09292962704298133,0.9694158171605121,-0.18994787231935364,9.474680974835023,-17.51405207002821,50.769448387015416
1761284859.0466528,-5.949033267756973,0.09230976968081239,0.9581156159056374,-0.19937244763046952,9.195202418977091,-15.580144295700682,52.92717752435314
1761284859.056458,-5.2963933142515955,0.0805640049195321,0.9435107828611977,-0.21206911123083888,8.76963347839413,-13.061869275904376,54.60791674797271
1761284859.0664809,-4.664370007503941,0.05871693896216233,0.9261283044012244,-0.22675765654121888,8.214256087652142,-10.08690991729142,55.691429665163454
1761284859.0765114,-4.0650062097591535,0.028267366808248356,0.9065499325436239,-0.24210478083806722,7.5515919805671805,-6.773971961804371,56.09155015121514
1761284859.086509,-3.5086028973397867,-0.008725933968600073,0.8854404169970086,-0.25682533146475456,6.808408733672206,-3.239147486575476,55.76578380269419
1761284859.0964565,-3.0030014057332366,-0.04958961920952948,0.8636100267241109,-0.26978780168111505,6.013860073685886,0.39742051694475006,54.72197627497172
1761284859.106504,-2.55288508662157,-0.09107335177760555,0.8420914565074605,-0.28012414080334136,5.19779776799074,4.00768679238563,53.02066991116336
1761284859.1164618,-2.1592185430410247,-0.1295259016028971,0.822204147355249,-0.2873391696051205,4.389306520323249,7.456751360124758,50.77204225521905
1761284859.1265366,-1.818968763162745,-0.16122028860720047,0.8055785759758091,-0.29140753941087616,3.6155370020692223,10.609288899779925,48.12689679546615
1761284859.13662,-1.525237886709447,-0.18278793329100496,0.7941189318229075,-0.29283774704156323,2.900879231624366,13.340150793712455,45.26203922767194
1761284859.1465,-1.2678773174829816,-0.19167639545047663,0.789893563050456,-0.2926766785735172,2.266389678105916,15.54669210229748,42.361390427409376
1761284859.1564717,-1.034559938979565,-0.186528334110083,0.794955617404641,-0.2924291474270976,1.729198261260514,17.159981963167542,39.595109467831186
1761284859.1664474,-0.81218832345651,-0.16739887598755226,0.811107975184136,-0.2938779582614636,1.301490453053085,18.152548831518292,37.09954901972658
1761284859.1764474,-0.5884432519983109,-0.13577242658963024,0.8396358524788031,-0.29881030124985364,0.9887271253280248,18.541349985680306,34.960863524896006
1761284859.1865172,-0.3532504538636914,-0.09438739574549701,0.8810387273680079,-0.30868069125422726,0.7871012274041099,18.38573686399782,33.20453530368495
1761284859.1964672,-0.09996682002665883,-0.04691187131037048,0.9348010772880716,-0.324262152359965,0.6807400979423821,17.780972854235277,31.79214462089734
1761284859.2064247,0.1738541895167748,0.002471155247669426,0.9992461605377195,-0.3453504794269509,0.6396026669399085,16.848307556769317,30.62563348894172
1761284859.2164505,0.4661843730558243,0.04950987200068315,1.071513635245699,-0.37058854163139937,0.6191475211574801,15.72286774373035,29.558308466408
1761284859.226444,0.7707232399728009,0.09030880445385374,1.1476861367674345,-0.3974669979052777,0.562560249767758,14.54080577441691,28.411030584048554
1761284859.2364764,1.0775146558259667,0.12169046044452167,1.223063449878246,-0.42253333528683557,0.40570707420106755,13.427221204636167,26.991534014821124
1761284859.2464726,1.3738732918055498,0.1414626448375155,1.2925545464912638,-0.4418042803388554,0.0842268209914513,12.486236048802468,25.114630683922908
1761284859.256459,1.645502475625313,0.14857566749326345,1.3511396956360429,-0.451332379426686,-0.45847586023501774,11.794225408702681,22.621158505376737
1761284859.2664888,1.8776894062258958,0.14317047798581362,1.3943525204899256,-0.44783487117475557,-1.2639093885637085,11.396687246581832,19.39381789648851
1761284859.2764347,2.056476471872461,0.12653027617337173,1.4187377660712155,-0.4292648880605813,-2.3533443783951573,11.308759151907845,15.36841254400203
1761284859.2864394,2.1697197210688297,0.10094761513196969,1.422241956507929,-0.3952041478611916,-3.7258907144685,11.519080122281665,10.539436846541465
1761284859.2964396,2.2079540157171786,0.06950959133579303,1.4044882178622236,-0.34698768358713367,-5.360190655043184,11.99651262090961,4.959484885062364
1761284859.306446,2.16499193089525,0.035797671439365596,1.366884163965501,-0.28752930411455463,-7.219368720475986,12.699008379881036,-1.267368556515415
1761284859.316439,2.0381963998301,0.003506527793795315,1.3125260320068206,-0.2208868792590349,-9.258209982717984,13.583468266169636,-7.997313744870406
1761284859.3264363,1.8283915637976351,-0.02399139877456612,1.2458956647243047,-0.1516685467999921,-11.431102817034978,14.614852175966963,-15.062096568832777
1761284859.3364308,1.5394152254991478,-0.04408064832201452,1.1723881187039251,-0.08441318472281711,-13.699182988190433,15.772318171540897,-22.285790226529205
1761284859.3465133,1.1773670460459291,-0.055260545621343825,1.0977400467602552,-0.023069127768249768,-16.03535889556801,17.05021972660382,-29.500798835900856
1761284859.3564587,0.7496596787932231,-0.0573473941816082,1.0274434285718774,0.02934922920769867,-18.426398096787885,18.452687236380708,-36.56102912575374
1761284859.3664737,0.2640204470092301,-0.051465388190289556,0.966226718349514,0.07090533205282053,-20.87187929024073,19.982260535467354,-43.35071913439415
1761284859.3764365,-0.2723969605516408,-0.039815974956093556,0.9176687678646056,0.10071388480716084,-23.380421317024325,21.625161289016752,-49.788220614844164
1761284859.3864355,-0.8536565901306018,-0.025269493869724158,0.8839818269131856,0.11880350042757416,-25.96405402591915,23.33748779791982,-55.82490499773663
1761284859.3964362,-1.475362191838477,-0.01086633752643404,0.865965754126826,0.12593333525222924,-28.631783345331744,25.037094581155657,-61.44008679751354
1761284859.4064486,-2.1346480154174827,0.000666854572118022,0.8631075180326618,0.12340979109235722,-31.38331662193936,26.604842671020535,-66.63329786550754
1761284859.4164414,-2.8298918810090377,0.007290175449836404,0.8737841178341533,0.11292044869303766,-34.20367329355048,27.89653961866637,-71.41541282432885
1761284859.4264464,-3.560247753061184,0.00784888069571273,0.8955225169535148,0.0963818122993395,-37.059149386009544,28.76396057956267,-75.80008680439623
1761284859.4365075,-4.32511366381828,0.0020793678565754763,0.9252755839551021,0.07579474327888712,-39.894890670839004,29.080756757859575,-79.79673866925245
1761284859.4464495,-5.123642605205371,-0.009547180070965668,0.9596866493879052,0.05311102171766952,-42.634165150360204,28.767592963938295,-83.40591374541607
1761284859.4564788,-5.954374148641812,-0.026077777321812406,0.995331023176541,0.03012304007374209,-45.17934151293856,27.810923141817266,-86.61738437026165
1761284859.4664733,-6.81502508426991,-0.046350421591710184,1.0289324646906906,0.008387354342965288,-47.41461532061935,26.27131705520143,-89.41092124308425
1761284859.4764707,-7.702441588459874,-0.0692250889961825,1.057553930009419,-0.010816835207176067,-49.21063726556117,24.279630100022278,-91.75935782530088
1761284859.4864588,-8.612691290700747,-0.09374207499654084,1.0787603248285453,-0.026503231743853457,-50.43125229986698,22.02179898276221,-93.6333646694552
1761284859.4964747,-9.541261606925268,-0.11920606682676284,1.090751564424977,-0.03798101299976474,-50.942430478184015,19.71504742976261,-95.00721952523435
1761284859.5064538,-10.483326682659474,-0.14521047800976616,1.0924657646450306,-0.04485459149063705,-50.62315055965608,17.579514834717163,-95.86477604672399
1761284859.5164678,-11.434044775964205,-0.17161928115843417,1.0836503894688905,-0.04702377565552176,-49.377594522529506,15.809695639633649,-96.20478343391508
1761284859.5264695,-12.388848453787517,-0.19851926884589077,1.0648921258611013,-0.04468041607361399,-47.14765707703515,14.5496020819675,-96.04469291830435
1761284859.5365236,-13.343690758709979,-0.2261496285764367,1.0375877301374528,-0.03829412676946772,-43.92451469911404,13.874385367754233,-95.42211872358104
1761284859.5464783,-14.29521128868377,-0.25480957454062053,1.0038346771026248,-0.02858120477999167,-39.75779381510575,13.779630630487254,-94.39323067377109
1761284859.5564995,-15.24078736479512,-0.2847398953764758,0.9662276004725185,-0.016455161376249475,-34.760728167459064,14.1781608239988,-93.02759657244688
1761284859.5664933,-16.178439120497178,-0.31597453988788565,0.927564679611923,-0.0029608224193552824,-29.109736378926534,14.903360879101902,-91.39941888511783
1761284859.576447,-17.106566983214684,-0.34816763791916305,0.8904917203167716,0.010804682701552623,-23.03727514537386,15.717950575846835,-89.57572709285802
1761284859.5864809,-18.023519033296065,-0.3804184858509293,0.8571323870994959,0.023780194118008684,-16.817680907180232,16.327649770102997,-87.60280980154339
1761284859.5965095,-18.927014614386444,-0.4111352435559254,0.8287648765401352,0.03503195088393933,-10.746791213278247,16.399864152405826,-85.49282606384561
1761284859.6064696,-19.813485418558773,-0.4379893671237116,0.8056062566621733,0.04383726698214481,-5.11709732453592,15.587859035398932,-83.21292841505691
1761284859.6164598,-20.67742866336994,-0.45801105718582447,0.7867552642126645,0.049745289445219665,-0.19081702224341673,13.560534457624017,-80.67923404506122
1761284859.6265433,-21.51089009541731,-0.46785725948555046,0.7703222054961704,0.0526008798984154,3.8264028281881886,10.03683727303306,-77.7575694912938
1761284859.6364746,-22.30319931230759,-0.46424791777789803,0.7537430165889456,0.05252596125279677,6.808360202038235,4.822327334049931,-74.27214384329639
1761284859.6464763,-23.041061451390956,-0.4445212465550263,0.7342410061200354,0.04986428631519644,8.725080688671131,-2.156070944005336,-70.0222880095176
1761284859.6564996,-23.709068324627257,-0.40722042587089063,0.7093740912368819,0.04510497941634643,9.65123137411038,-10.822051938761923,-64.80627709654348
1761284859.6665008,-24.290634947049938,-0.35260659003505984,0.6775921176979158,0.03880551868891323,9.764598582251807,-20.933602674808725,-58.45018385813709
1761284859.6765559,-24.769303752937034,-0.2829998443461675,0.6387252512038137,0.03153763571914356,9.334031034337778,-32.082303766439935,-50.838829936486476
1761284859.6866107,-25.130298330228825,-0.20287479967374225,0.594326032358706,0.023878532485027745,8.697294791462546,-43.710312659174996,-41.945280294679364
1761284859.6964812,-25.362159203328645,-0.11867082510442035,0.5477945445327943,0.016458826430660888,8.230244377895085,-55.14479772920632,-31.854984813296227
1761284859.7065897,-25.458262381510934,-0.03831349571034452,0.5042324445915752,0.010055814878393719,8.309530557571764,-65.64739257437348,-20.780668325346458
1761284859.716514,-25.41801239678794,0.029520781732314986,0.47000174632441083,0.005695190511672906,9.271762261833521,-74.47446247889239,-9.064528171741996
1761284859.7265651,-25.247519671758415,0.07633132709019291,0.45200813573600507,0.004709656937145536,11.372665765035567,-80.94277786198245,2.8347054020490474
1761284859.736616,-24.95961937412625,0.09481424129892688,0.4567788972334436,0.008705045263327726,14.750362642139653,-84.49462907662627,14.370802399054467
1761284859.7464724,-24.57316320657954,0.07985644473035715,0.48945033642287256,0.019401360010010103,19.397354855494665,-84.75646176954243,24.954235863886677
1761284859.756473,-24.11160843054271,0.029369816856715164,0.5528086856558042,0.03834380340187139,25.145963628457952,-81.58558989593107,34.00844749379779
1761284859.766484,-23.601025717694945,-0.05515899246065202,0.6465373701935873,0.06651325645343245,31.671520252284147,-75.1002009213596,41.032777717543354
1761284859.776684,-23.067733240677647,-0.16849915761386886,0.7668123255000941,0.10390029013994448,38.51623955457221,-65.68858405063325,45.66465606067045
1761284859.7864764,-22.53582573076284,-0.3019404892576596,0.9063562982363463,0.1491331523070031,45.13421375303776,-53.994416152028435,47.73241120730494
1761284859.7964587,-22.024895740322417,-0.44399716240628195,1.055011387852387,0.19926164906215524,50.95440223715909,-40.87627929526016,47.29003309602792
1761284859.8064618,-21.54823587839298,-0.5815039198469033,1.2008153976825082,0.24979031682146807,55.45433146340791,-27.341537316883013,44.6267016404096
1761284859.8165083,-21.11176497393328,-0.7010074727750193,1.331474520143863,0.2950197338259824,58.23342878965393,-14.457341077872362,40.24687759128676
1761284859.8264701,-20.71384063225029,-0.7903052279827629,1.4360231479786922,0.3286914268170325,59.07287849047239,-3.2449262925405744,34.8208499858105
1761284859.8364933,-20.346009319422045,-0.8399333964060374,1.5063760262079644,0.34485335975878556,57.969872726855876,5.43244342116259,29.110283676661904
1761284859.84648,-19.99460905486516,-0.8443688260609843,1.5384493340103491,0.3388041675992386,55.13843092977761,10.973019610194143,23.877888156328403
1761284859.8564627,-19.642994202893366,-0.8027153415178342,1.5325954482029867,0.3079604974700801,50.97557160146807,13.113734165171577,19.794052131025857
1761284859.8667705,-19.274027886417013,-0.7187259139900959,1.4932607905434907,0.2525000715510182,45.998773444095065,11.964671671436722,17.355119453007106
1761284859.876518,-18.87243037847931,-0.600160295864902,1.4279761538933846,0.17562552348497115,40.76653944347337,7.992293230399966,16.826912490551177
1761284859.886485,-18.42662330388969,-0.4576499673452658,1.3459440137334286,0.08330309996774067,35.79703595698366,1.954440683590885,18.222803452422166
1761284859.896527,-17.92987186065001,-0.30336492550384914,1.256553465516014,-0.01656566479518157,31.499519121474503,-5.199812060575715,21.31891322368135
1761284859.9064853,-17.380731479834328,-0.14976317727378674,1.1681242486571684,-0.11539264021561749,28.129832487993777,-12.447903048799354,25.70168908078125
1761284859.916489,-16.782942477245985,-0.008547975887113844,1.087075583795238,-0.2052705989116949,25.775667659415504,-18.81247414810951,30.837276845863556
1761284859.9264748,-16.144932166295796,0.11020192739252935,1.0175807594996973,-0.2801278523089061,24.37092455308361,-23.467727682392603,36.149330670077326
1761284859.9364774,-15.479025066375597,0.19878563476834532,0.9616549580832779,-0.3364238090620173,23.732850712009043,-25.823378446833583,41.09256644025851
1761284859.946509,-14.800409926720683,0.25248182845381695,0.9195494132916104,-0.37328366229293014,23.611851962242405,-25.578612097722377,45.2125116689379
1761284859.9565043,-14.125903624690215,0.2698909579030038,0.8902882577340375,-0.3921232180558249,23.742627879238587,-22.74104822719721,48.18596343713914
1761284859.9664729,-13.472574693653316,0.25292761857622303,0.8721916858589691,-0.3959356497337311,23.88675649617187,-17.60922113495068,49.840425303128775
1761284859.9764812,-12.856321736645995,0.2064461941712497,0.8632822113629929,-0.3884678398063307,23.860568990123287,-10.721542080684921,50.153768234820674
1761284859.9865386,-12.290529343875138,0.13755365345979487,0.8615464394145758,-0.3734918208764059,23.5469078621857,-2.779327253540073,49.237466459508234
1761284859.9965243,-11.784934071068138,0.05471145245715082,0.8650849946837542,-0.35429583351180927,22.893518959856507,5.444855218371154,47.30799128006406
1761284860.0067053,-11.344818148694912,-0.03324360137816804,0.8722035125955089,-0.3334236228696007,21.903087466107944,13.20051114583745,44.651378543015845
1761284860.01652,-10.970612596599667,-0.11802475169842741,0.8814808351955106,-0.31262092974777356,20.619935573705643,19.841786222191438,41.58581771395181
1761284860.0264785,-10.6579450384386,-0.19265356076831097,0.891819584285137,-0.2929201794041528,19.116795653616236,24.88948081137829,38.4265594931953
1761284860.0364814,-10.398118780052368,-0.2519770603146928,0.9024635066139921,-0.2747985652293938,17.48303426104735,28.066640134968754,35.45661836010121
1761284860.046501,-10.178962081073927,-0.2929134335546205,0.9129664840172227,-0.2583622124265458,15.814280178450872,29.306119466253048,32.90566849229255
1761284860.0564806,-9.985944182765051,-0.31443507083170413,0.9231145541523679,-0.2435252453707606,14.20302717232563,28.732461081081606,30.938217490636376
1761284860.0665007,-9.803425448885319,-0.31733021722250965,0.9328206521884244,-0.23016210204145898,12.7301678875886,26.623596912395,29.650735012453286
1761284860.0765066,-9.615901325656665,-0.3038086701285563,0.9420205438138313,-0.2182169497799906,11.45796010774846,23.360002142598432,29.07617277073297
1761284860.0865397,-9.409117000400213,-0.2770301873712004,0.9505951045070001,-0.20776042024490976,10.425160909174108,19.36974185089535,29.19350026469768
1761284860.0964897,-9.170967052800714,-0.24063389656444503,0.9583334442552183,-0.19899309830339845,9.644896184400778,15.07730419452163,29.939643646077702
1761284860.1064835,-8.892141025001285,-0.19833315091960096,0.9649392371044011,-0.19220547152601727,9.105435000312296,10.862354307086436,31.221531432927893
1761284860.1164954,-8.566517870940446,-0.15361575683719383,0.9700722818868315,-0.18771172004889153,8.7736058417359,7.031980002913225,32.92664852905586
1761284860.1264827,-8.191338137995457,-0.10955963280413551,0.9734099413414546,-0.1857766943165143,8.600234618207402,3.8072486100604044,34.93133676882711
1761284860.1367915,-7.767188409741463,-0.06874644513518953,0.9747093430448941,-0.18655136382158535,8.526751852260652,1.322588916637399,37.10683813695049
1761284860.1465113,-7.2978231681298436,-0.033238509283373366,0.9738519007676136,-0.19002499725024627,8.49203064084144,-0.3649500233248738,39.32362018547231
1761284860.156532,-6.789835868790043,-0.004581717021679781,0.9708573322975182,-0.195996516894917,8.438577097763018,-1.2600894814385426,41.454802258908174
1761284860.1664946,-6.25218431498598,0.016192015068088785,0.9658640436260373,-0.20406510882725493,8.317381529487497,-1.4107971502308767,43.37951949137658
1761284860.1768167,-5.695580499175798,0.028571705184150538,0.9590837380296259,-0.21364086051502695,8.091017694039051,-0.8898097608785808,44.986846163444355
1761284860.1865098,-5.131770860202751,0.03257522792343968,0.9507466320745831,-0.22397797260463284,7.73490448424245,0.2214795643760899,46.18050460201197
1761284860.1965504,-4.572754648962858,0.028737464389518817,0.9410567787863136,-0.2342335867673668,7.2369713715087265,1.8451378700740009,46.8841027249744
1761284860.206526,-4.030008417796598,0.018055885782753817,0.9301737532650683,-0.24355256314392495,6.596242470526541,3.913852394128542,47.04619719556107
1761284860.2165306,-3.51379269591633,0.0018845357389893772,0.9182287805868141,-0.251172103826387,5.8210017013147555,6.372807213544769,46.644213045418056
1761284860.2267778,-3.0326034525953647,-0.018206487152776785,0.9053739461287972,-0.25653186386095517,4.927152024296512,9.176560949516931,45.68628143290367
1761284860.2365022,-2.592799234562584,-0.04056859314120741,0.8918561772705884,-0.25936917382532926,3.9371269161152203,12.281844600519948,44.210388694523765
1761284860.2465122,-2.1984019968034256,-0.06357497430173574,0.8781038573126091,-0.25977889357182593,2.8793350532910433,15.63787599922605,42.280727020997205
1761284860.2565193,-1.851052182945577,-0.08567319017722355,0.8648109705739877,-0.25822392540901146,1.7877532326998495,19.176402424816498,39.981626750409234
1761284860.2665205,-1.5500990641993682,-0.10540526551800725,0.8530001358010085,-0.255492959208893,0.7010597464584744,22.80398511724697,37.409832229868435
1761284860.27651,-1.2928159157425663,-0.12142258903550608,0.8440429319691412,-0.25261215323686664,-0.3392830784062207,26.398776608134842,34.666134580045004
1761284860.2874877,-1.074734424379234,-0.13251972744272753,0.8396157977808931,-0.2507229877001305,-1.292309848111296,29.813164202974754,31.847483457609236
1761284860.2965674,-0.8900864607774331,-0.137697934704239,0.841574600076084,-0.25093824313488355,-2.1220503202748295,32.882398066442775,29.04062153515678
1761284860.3065295,-0.7323232623646619,-0.13625136936048762,0.8517427782910919,-0.25418524205555,-2.8026239768767733,35.43810339455363,26.31797169824994
1761284860.3166606,-0.5946593032695929,-0.12785378297953565,0.8716273630796099,-0.26104598599918555,-3.322988720671746,37.3247485995422,23.735982837970123
1761284860.3266113,-0.4705741179246376,-0.11261818329981681,0.9021005525519689,-0.2716109840226742,-3.6903296488337816,38.41683197071808,21.335535926979794
1761284860.3365228,-0.3542117525678493,-0.0911094631762608,0.9431042338322555,-0.28537434049352783,-3.9312501827029327,38.63466928476821,19.14350316990772
1761284860.3465087,-0.24064532964548105,-0.06430570747334159,0.9934426344205374,-0.3012041166010066,-4.090286277714285,37.957030185865264,17.17428066617894
1761284860.3565006,-0.12601313560105923,-0.0335197370794494,1.0507195442145076,-0.3174163483366882,-4.225730634687078,36.42930340513,15.430162341468721
1761284860.3666558,-0.007568075561981965,-0.00030168379016464966,1.1114531025787728,-0.3319591187630779,-4.403262655202613,34.16625981119393,13.899820364719051
1761284860.376509,0.11629773008569201,0.03365688731141347,1.1713702190727266,-0.3426784795226258,-4.688339155595337,31.348811863447093,12.55486112716096
1761284860.3866034,0.2459931801172348,0.06660528271760825,1.2258511232597669,-0.3476079226016162,-5.13858081776242,28.21449546922352,11.34527793847845
1761284860.396527,0.3805963717532158,0.09680261303328953,1.2704657689921568,-0.3452185912151017,-5.797389003248578,25.04181337856863,10.195362871343468
1761284860.4068444,0.5176519915552245,0.12258342978958243,1.3015218518111258,-0.33459061535119317,-6.689743268409055,22.129149950768056,9.002004688232798
1761284860.416546,0.6529411874109485,0.14243229123932558,1.3165357218887277,-0.31549561166605233,-7.820652428786789,19.76969354655866,7.637121723444067
1761284860.4265072,0.780300282723233,0.1550725448598881,1.3145469206328937,-0.2883966359553932,-9.176204925329568,18.224563259160277,5.955253249811247
1761284860.4365165,0.8915786079608525,0.15956269019564906,1.296222539204476,-0.2543759692094913,-10.726738508294185,17.696908610658063,3.8062216645541156
1761284860.4465399,0.9768152589133137,0.155383945484355,1.2637336487833837,-0.21500459160853472,-12.431420098597247,18.30992659395737,1.051558763851457
1761284860.4565074,1.024680234268903,0.14250097042917798,1.2204272386211092,-0.17217319986012086,-14.243492654183532,20.09145858817624,-2.417627465648283
1761284860.4665463,1.0231735471236,0.12138463015496048,1.170356115795282,-0.12790931114253337,-16.115536352275626,22.967170407471038,-6.6642250600210335
1761284860.4765477,0.9605190649560796,0.09299598143444587,1.117755129671629,-0.0842064726873648,-18.004218192872358,26.76339282399863,-11.692957847918995
1761284860.48653,0.8261444385548997,0.05873803437311527,1.066555420745211,-0.04288830005297995,-19.874103019954486,31.219614251527307,-17.44466809285096
1761284860.4965172,0.611618030752413,0.02038342737067768,1.0200087090348893,-0.005519471102410171,-21.700166145605447,36.00951935799278,-23.79812124554918
1761284860.5065544,0.3114215481471535,-0.020017464085187286,0.980460588011983,0.02663964181480857,-23.46872825552958,40.76852102594201,-30.579130788959084
1761284860.5165703,-0.07653418812679681,-0.06024953764399303,0.9492781779961219,0.0526501762408744,-25.176661465463727,45.12505181453574,-37.57561324946746
1761284860.526522,-0.5507045959872787,-0.09807282931382816,0.9269113391561487,0.0719018198032868,-26.82889029660181,48.73253558308037,-44.55634558615885
1761284860.5365717,-1.1060330564643954,-0.13139316775662527,0.9130498315385392,0.08412086959130369,-28.434413293565218,51.298989800276594,-51.29087172134764
1761284860.5465212,-1.7343787795743661,-0.15845886178410576,0.906830934657718,0.08937941850563788,-30.001268239761355,52.6115590551618,-57.56815688067726
1761284860.5565467,-2.4252001334743385,-0.1780663918901391,0.9070529576484986,0.08809643576639542,-31.53102272454298,52.553787209103525,-63.21202354621654
1761284860.5665283,-3.166418612108765,-0.18974725421567587,0.9123594066430193,0.08101814403224752,-33.013482303238064,51.113944655047085,-68.09195285009329
1761284860.5765274,-3.9453723897599966,-0.19390178682628395,0.9213743544714967,0.06916894436173947,-34.422381944817324,48.38322125505424,-72.12845133249206
1761284860.5865638,-4.749760726689724,-0.1918445447617544,0.9327872163825307,0.053773246467819974,-35.71285320635883,44.54321920943924,-75.29284634493895
1761284860.596537,-5.568480619500135,-0.18573065080408943,0.945398341217272,0.036158336669269334,-36.82138187061584,39.843125601412595,-77.60200606983776
1761284860.6065152,-6.392264993186719,-0.17834646710354662,0.9581412368869769,0.01765373271661327,-37.66871716752769,34.56827058781198,-79.10899585021066
1761284860.616566,-7.214049852313461,-0.1727724109747912,0.9700939511550628,-0.0004990109715939405,-38.165749545896865,29.00331590161706,-79.89105804638142
1761284860.626539,-8.029029148741214,-0.17195652784133378,0.9804861000980947,-0.01721848497330032,-38.22182234834395,23.394716082705454,-80.0365477804304
1761284860.6365325,-8.834399762600581,-0.1782644675240532,0.9887034351272469,-0.03163692670491277,-37.754440392119925,17.917919345447768,-79.63256518625205
1761284860.6465302,-9.628847796621645,-0.19308405402597453,0.9942898099421561,-0.04313787261569655,-36.69903927685236,12.654676518817572,-78.75496842045955
1761284860.656522,-10.41187011197977,-0.21655558698626115,0.9969461467564323,-0.0513799975061733,-35.01745706335158,7.584701038676487,-77.46217837222044
1761284860.6665068,-11.183050946336488,-0.24747540727457015,0.9965261870533614,-0.056306107438577294,-32.703979692203795,2.5939191389377254,-75.79363735038426
1761284860.6765473,-11.941416452400981,-0.28338866236754023,0.9930285426511593,-0.058133419685157416,-29.78822859339171,-2.501034384530233,-73.77297121971364
1761284860.6865208,-12.684970280355527,-0.3208563784519901,0.9865838950642577,-0.05732028679444215,-26.334625751382504,-7.915171002027084,-71.41496806879526
1761284860.6967263,-13.41047615999331,-0.3558566523341976,0.9774357884285678,-0.0545064264142463,-22.43862065035947,-13.849864167154756,-68.73466146733843
1761284860.70705,-14.11350652188548,-0.3842609046422641,0.9659140624048353,-0.050428795308630314,-18.220216747670648,-20.447021392536683,-65.75632124031068
1761284860.7165587,-14.788728047409124,-0.40231529288996487,0.9524024563004189,-0.045822383946568714,-13.815522272183827,-27.75019970200385,-62.52014886866426
1761284860.726705,-15.430354723726575,-0.40705989102040674,0.9373063914126354,-0.041321634617619424,-9.367058813639884,-35.67918427135684,-59.08496986155051
1761284860.7370064,-16.032674886909245,-0.39663764097984766,0.9210307769105314,-0.03738020654231454,-5.013492811415931,-44.0223556030345,-55.52610826236948
1761284860.746647,-16.59055542647577,-0.3704747202209886,0.9039765128954521,-0.034222479271556625,-0.8794584070029691,-52.44823987508016,-51.92869323403267
1761284860.756583,-17.099842386516105,-0.3293391843047053,0.8865569625142048,-0.03183177099114922,2.933739562559283,-60.53466649150739,-48.37760680840118
1761284860.7668176,-17.55760614677397,-0.2752950916058645,0.8692265954052039,-0.029972314175456084,6.35562457648113,-67.81154015640473,-44.94592370601525
1761284860.776928,-17.962212326544506,-0.21156574671157746,0.8525094241304438,-0.02823706546784451,9.351353777450537,-73.8116904130899,-41.683926821705384
1761284860.786541,-18.313228708274384,-0.14231075418695885,0.8370163487904207,-0.026111163451723655,11.92316995829439,-78.12362931615296,-38.6106245587119
1761284860.7965467,-18.611200456450504,-0.07231735174963545,0.8234447989240011,-0.023040855353912815,14.108203117281743,-80.44014225299422,-35.70926689680161
1761284860.8065064,-18.85734220554004,-0.006614612601552733,0.8125577288107108,-0.018499843735135257,15.972692423039836,-80.59720942868958,-32.92781616288447
1761284860.8165455,-19.053208805197148,0.04996082779302023,0.8051410792309527,-0.01204797794306319,17.60304725267749,-78.59867265475502,-30.18478371557383
1761284860.8265274,-19.200416135135754,0.09319776059394423,0.8019394606809561,-0.0033796169154388855,19.0945294174184,-74.62329726778557,-27.38031847727874
1761284860.836525,-19.300485199358207,0.11988364836251278,0.803570155967559,0.007638966835848454,20.53870743493062,-69.01243320183421,-24.41189483501707
1761284860.8465235,-19.35487123614593,0.12806865793834665,0.8104178296268643,0.020941740051151823,22.0111342345836,-62.238363655582376,-21.19333923970787
1761284860.8565276,-19.36521120384393,0.11719337702379835,0.822517679363797,0.036242686380811635,23.56084103420755,-54.85560584615523,-17.675225591391534
1761284860.86652,-19.333778319781107,0.08808017283911865,0.8394414099229299,0.053023891470865926,25.203151569746094,-47.43972210694091,-13.863927373252103
1761284860.8765275,-19.264077818132563,0.04281109660059573,0.8602057500681481,0.07053729920925297,26.916982994261577,-40.520301233835966,-9.836038303685166
1761284860.8865926,-19.16146587375939,-0.015472221541833472,0.8832262997099329,0.08782864939331193,28.647253927889313,-34.51628589252276,-5.744723711804325
1761284860.8965397,-19.03363844527869,-0.08281109543248026,0.9063402240165941,0.10379067538269392,30.31233449173315,-29.682376175629763,-1.8150469494151553
1761284860.906542,-18.89083113233807,-0.15468992774351245,0.9269185435210485,0.11724671879445668,31.815720359239936,-26.074609479011894,1.6734988543764153
1761284860.9165368,-18.745601211089877,-0.2263076361538976,0.9420803488655876,0.12705818058318608,33.060406917042094,-23.541364812302643,4.417212514994617
1761284860.9266338,-18.612127493562177,-0.29287421147934684,0.9490059861334192,0.13224222530957958,33.96395945498545,-21.743073722170028,6.128889718282181
1761284860.93652,-18.50505432394808,-0.3499585731449887,0.9453253679345259,0.1320808477192434,34.4721939007651,-20.20011900026638,6.584399621834736
1761284860.946529,-18.43800698114826,-0.3939076029158325,0.9295351820031432,0.12619923121484777,34.56974321297181,-18.364215359962802,5.668478769334892
1761284860.9566162,-18.42199305143113,-0.42232530781597905,0.9013811763323412,0.11459173531682498,34.28642681635704,-15.704561054596905,3.41184205264098
1761284860.9666955,-18.463951593475592,-0.4345497781306732,0.8621352493258084,0.09758065231862348,33.698960756438424,-11.796945555411622,0.011754885252923397
1761284860.9765794,-18.56570107907934,-0.43201100914634805,0.8147053973741234,0.07570930219695791,32.92788440071017,-6.402649535715995,-4.1700977486603215
1761284860.988062,-18.723466203946323,-0.4183215428084481,0.7635385999450057,0.04959773772554739,32.129575734605325,0.4749807211366046,-8.63523570976021
1761284860.996711,-18.928048177889213,-0.39897056100475,0.7143066352002588,0.019819212635065822,31.483029704572253,8.565057945074113,-12.799752131835515
1761284861.0065281,-19.165573913339024,-0.38057013739624174,0.6733940993168295,-0.013128509970327867,31.170987122615582,17.33888636081124,-16.063055003980402
1761284861.0165286,-19.418656516347678,-0.36972127876038396,0.6472287481101061,-0.04870169287199545,31.355450539447467,26.054375334383284,-17.884130820764636
1761284861.0265322,-19.667755209835022,-0.3716869951984175,0.6415049781004654,-0.08604712722424919,32.14901236704035,33.830958925764776,-17.853920596873518
1761284861.0365345,-19.89254372963745,-0.38913940801719143,0.6603611230869734,-0.12369603199862404,33.58577435877437,39.74834363455765,-15.752887055796755
1761284861.0465324,-20.07315988776797,-0.4212649612369877,0.7055947854317,-0.15938493193286435,35.598190920442605,42.96048005688962,-11.585053188894078
1761284861.0565357,-20.19128108431322,-0.4634646673016942,0.7760394466430403,-0.19016430670008175,38.007409346734995,42.81394099655635,-5.5831787065975025
1761284861.066551,-20.23102424738405,-0.5077862545876906,0.8672589296623596,-0.21284957468112078,40.53322447615647,38.95702174636796,1.8162324185058503
1761284861.076535,-20.17969188914339,-0.544086947209435,0.9717122324929423,-0.22471426322233343,42.8255195289048,31.42320520282721,10.02522823991994
1761284861.0865364,-20.02837981699123,-0.5617707090352961,1.0794807805462021,-0.224209385253554,44.51351460177868,20.672069192379958,18.37731407170061
1761284861.0965455,-19.772438365955793,-0.5518046759917159,1.179538378419105,-0.21147775298311253,45.26438071576735,7.574071307902829,26.211250507255002
1761284861.1065373,-19.411755589484912,-0.5086289343782557,1.2614031250807671,-0.18851243621748115,44.84017036055633,-6.666606172310928,32.95414065887225
1761284861.1165416,-18.950822624342564,-0.4315522555777158,1.316870069831052,-0.15892803078488035,43.14178948639103,-20.6460640169732,38.19164554527512
1761284861.126607,-18.398552945120766,-0.325288091231127,1.3414282721964466,-0.12741183897530473,40.230619981718135,-32.934834722473546,41.71422847138558
1761284861.1365356,-17.767850818017095,-0.19944287344997935,1.3349790801764359,-0.09897487715232862,36.32224688340424,-42.266001781945334,43.53147801077999
1761284861.1467013,-17.074945688508098,-0.06701116538789191,1.3016345691642075,-0.0781428687887163,31.752267468289876,-47.706313871513466,43.85199015109616
1761284861.1565392,-16.338518603236725,0.05780494092366202,1.2486464408943045,-0.06823642691691215,26.920342836513985,-48.78059759443689,43.03316372579522
1761284861.1665463,-15.578647481396105,0.16195401763896433,1.1847796559623363,-0.0708860584536166,22.22380656697778,-45.52738532394389,41.51157505047212
1761284861.1765578,-14.815605179910923,0.23555007305129136,1.1185864379698487,-0.08588900318808702,17.994704390278688,-38.47656339223989,39.728188485254975
1761284861.1865666,-14.068572690855664,0.27315563191134834,1.0570118158843151,-0.11143076040678655,14.453344505099794,-28.555201781946703,38.06248618482963
1761284861.196553,-13.354378680692234,0.27416508059617045,1.0046058054119396,-0.14458916374896252,11.68740835526649,-16.941371221935913,36.78609905099554
1761284861.206561,-12.686420028850826,0.24234556031071822,0.9634058352557928,-0.18196043183791483,9.659305008398082,-4.893987741775335,36.041089907821465
1761284861.2165768,-12.073917078092625,0.18476300870624446,0.933365059025157,-0.22023141782070013,8.237434437955008,6.411905819852454,35.84238542905062
1761284861.2265835,-11.521595198562423,0.11040413635641123,0.9130900250539963,-0.25657219468891074,7.241460862860448,16.01965878900509,36.0994703784857
1761284861.2365448,-11.029788993711508,0.028794379971081027,0.9006292096407901,-0.2888080569360992,6.4892296420161095,23.27916726793324,36.65016065945256
1761284861.2465441,-10.59488730679679,-0.05117065771353491,0.8941065762124337,-0.31541059525862253,5.834077439844489,27.882613206612312,37.298988285710784
1761284861.2565477,-10.21000658987722,-0.12207181040054682,0.8920897812324544,-0.3353955149211417,5.1853210473902,29.851049598891336,37.85379560107986
1761284861.2665532,-9.865792532996355,-0.17847397863959383,0.8936840249978011,-0.3482196557435273,4.510247916499706,29.48192382910427,38.155816950880805
1761284861.2765584,-9.551280799801244,-0.21713066307598872,0.8984186553001496,-0.3537363297568622,3.8212075515963257,27.271272942684394,38.100341643144844
1761284861.2865386,-9.2547742290647,-0.23694037519262307,0.9060287087693324,-0.3522151438321377,3.154810555667809,23.82499188246409,37.64677199678298
1761284861.2965527,-8.96470482625186,-0.23871260550078,0.9162298724200864,-0.34438607956556316,2.5509363690710507,19.77206600112242,36.81840737623766
1761284861.3065763,-8.67044426925928,-0.22479962368985082,0.928556772921448,-0.3314489284486262,2.037448654924401,15.68989586893249,35.69350701644036
1761284861.3165846,-8.363012577072253,-0.19864623264582087,0.9422970127651447,-0.3150029254742994,1.6232774864154824,12.048542059768275,34.39001445204519
1761284861.3265555,-8.03562189545268,-0.16430318639789643,0.9565189852390655,-0.2968859016819251,1.2992369122413814,9.177349208022795,33.04671511305126
1761284861.3365972,-7.683996004050639,-0.12594708110412997,0.9701674724944545,-0.2789492405907635,1.0437683340298527,7.254286962781472,31.80357485531401
1761284861.3465672,-7.306437109737076,-0.0874528188841359,0.9821905886193826,-0.262819498894617,0.8302394666472911,6.3156760090629795,30.78366031053078
1761284861.3565743,-6.9036649631485885,-0.05206662916165372,0.9916638314955881,-0.24970277252275141,0.633212377332762,6.281875097649737,30.078498110992538
1761284861.3666742,-6.478507412376525,-0.022217173641417922,0.9978875201355233,-0.2402746468901373,0.43246135989300405,6.993089756653834,29.738119856843724
1761284861.3765619,-6.035550799545715,0.000522789466135349,1.0004470973940034,-0.2346736367829354,0.21472161465100056,8.248832516759158,29.766452757264307
1761284861.3865783,-5.5808502338394,0.01534261164320024,0.9992363854423354,-0.23258872257752328,-0.026206260233678478,9.844807651547718,30.122180839051854
1761284861.3965993,-5.12175762558971,0.022011689966267557,0.9944485342960225,-0.23340965593648158,-0.29027844143909115,11.60210996796792,30.724707183747658
1761284861.4065955,-4.666863710843695,0.020666665965186636,0.9865386793706736,-0.23639675627569756,-0.5724732128521841,13.385456475904626,31.46438315345289
1761284861.416608,-4.225987296765844,0.01162594922840096,0.9761604946879335,-0.24082753419160616,-0.8643135530315862,15.109386257030165,32.215755661783746
1761284861.4265928,-3.810098953369858,-0.004722233043674301,0.964080153869626,-0.2460902903004785,-1.1556307488368571,16.733547780722414,32.8522647912538
1761284861.436605,-3.4310513923979915,-0.02793354798351292,0.9510762155914756,-0.2517148581057658,-1.4365298062619873,18.24993369215441,33.26065660040284
1761284861.446573,-3.101010826427236,-0.0574248868627034,0.9378396439064391,-0.257350360837351,-1.6993689363465072,19.66592220770891,33.35341321397955
1761284861.4565694,-2.8315405756256595,-0.09232386120003226,0.9248914374374722,-0.2627129277467617,-1.9404253068075088,20.987136026668555,33.07777196888115
1761284861.4665773,-2.6323706478291458,-0.13130029465531862,0.9125348407553647,-0.26752986139375834,-2.160889582647562,22.203541007016064,32.420374869393825
1761284861.476584,-2.5099783236029296,-0.17243913443007308,0.9008544333661657,-0.271502077040108,-2.366932344020209,23.28113487766926,31.40717406720769
1761284861.486591,-2.466183686051422,-0.21320817000356354,0.889765952257877,-0.2742978777819147,-2.5687719955509905,24.160317830039123,30.098830089684213
1761284861.496621,-2.497010714985292,-0.25055408664275447,0.8791107136206516,-0.27558175202574375,-2.778879462635529,24.760836870110847,28.582403415715437
1761284861.5067346,-2.5920657645980794,-0.2811328838481975,0.8687795933674038,-0.27507311116890504,-3.009625813145245,24.992210767261774,26.960576783110568
1761284861.5166388,-2.7346358010139276,-0.301651795963445,0.8588445799230013,-0.2726225086182656,-3.2707920120063374,24.767839933449498,25.339877148835626
1761284861.5266385,-2.902612235811158,-0.3092744255772884,0.8496710112637592,-0.26828840444600816,-3.567414832659722,24.020588523650737,23.819363297347238
1761284861.5368571,-3.0702166154117805,-0.3020236981351659,0.8419822390475495,-0.2623966622010398,-3.898440323488563,22.71748282808883,22.48104285327318
1761284861.5465772,-3.2103661443686766,-0.27911301061292354,0.836853006912457,-0.2555667301256048,-4.256586033894226,20.871302688751094,21.382940544800935
1761284861.5565841,-3.297398988496545,-0.24114620716411117,0.8356192446312622,-0.2486918754967911,-4.629654473148889,18.547240313801133,20.555303531926683
1761284861.5666084,-3.3098056974671084,-0.1901486311992985,0.8397085624417557,-0.24286579820593462,-5.0032771761406085,15.863412953866558,19.999940249089374
1761284861.5766447,-3.2325954793809837,-0.12941777656028874,0.8504137374247023,-0.23925426614934245,-5.364723998507137,12.984767820007349,19.692219463589996
1761284861.5865583,-3.0589634815980684,-0.06320727153354208,0.8686468528916181,-0.23891806712032948,-5.70707162111187,10.110740061372647,19.584914805790884
1761284861.596561,-2.791012113806616,0.003718954070185245,0.8947210587069986,-0.24260395271325486,-6.03281521870956,7.457867261090688,19.612957188480166
1761284861.6065953,-2.4394102810665723,0.06660359396389803,0.9282065516261757,-0.2505343735085262,-6.356029905576045,5.239367021396759,19.69826480898854
1761284861.6166046,-2.0220378494788402,0.12120761014475312,0.9678943450166025,-0.26224117293816357,-6.702466609912486,3.644308722820538,19.754091878650897
1761284861.6266193,-1.5618337862731226,0.164233854399776,1.0118779363064174,-0.27649448109196734,-7.1074337929398546,2.819228189721364,19.688689509086515
1761284861.6366057,-1.0842066285716367,0.19359188814588535,1.057738175034668,-0.29136751595174126,-7.611837851170467,2.8546481632132963,19.408445964777627
1761284861.6465807,-0.6144330958147265,0.20846644844912293,1.102799696667717,-0.3044494987979798,-8.257172937615907,3.7779672860414197,18.821010091748047
1761284861.6565664,-0.17543851287266887,0.20920013429267512,1.1444199076680253,-0.3131805657773282,-9.080444417757775,5.552814082908331,17.839106622758027
1761284861.6666014,0.2137705260555755,0.19704672910103516,1.1802692486173445,-0.31524817164464963,-10.109940349368518,8.083690178278927,16.385711688662315
1761284861.6765773,0.5389225591732663,0.17387614243502159,1.2085615248424542,-0.3089660091932898,-11.36247280006996,11.224025415148727,14.400903365979248
1761284861.6865702,0.7906126439490672,0.14190708278353023,1.2281978764110006,-0.29355885825899003,-12.842289148445014,14.785870948827569,11.850072130910428
1761284861.696558,0.963928711637275,0.10351549144426088,1.2388011917991184,-0.26929763051380556,-14.541425461387512,18.55022712047885,8.732421087685166
1761284861.706633,1.0577979697557107,0.0611297781505554,1.240639493304523,-0.23746116383088733,-16.440955993836692,22.27800959626981,5.088033116734058
1761284861.716585,1.074259450070488,0.017191652320001284,1.2344622894108597,-0.20013667472006774,-18.512456620449072,25.722389013678473,1.0014700373250243
1761284861.7265835,1.0178051388425127,-0.025858502221715807,1.2212954640939164,-0.1599018629655125,-20.71906660404208,28.64334128521476,-3.3999260749272704
1761284861.736738,0.8948495987893407,-0.06561762973818985,1.2022498816708251,-0.11945245269589605,-23.01578562081576,30.8246457618506,-7.9540817101844485
1761284861.7466571,0.7133131985243876,-0.09981182893471055,1.1783908660490776,-0.08124433496336293,-25.34903036200936,32.092463545253935,-12.478395211845847
1761284861.7565942,0.4822581392357358,-0.12645176549614703,1.1506909950431585,-0.04720781205996021,-27.65591162338865,32.333415012267416,-16.788454079858763
1761284861.766648,0.2115080395304917,-0.14402688726195356,1.1200574043868279,-0.018568537799957437,-29.86405053676746,31.509230284081926,-20.718379752470028
1761284861.7770674,-0.08879545629641758,-0.15169139052072464,1.08740152580888,0.004213422914526016,-31.892868429711758,29.6649278339118,-24.139264899280157
1761284861.786779,-0.40870789345080466,-0.14939395231684538,1.0537119392944336,0.02139143757052966,-33.657033591104806,26.92817969397218,-26.972388578822798
1761284861.7969146,-0.739041963616049,-0.13792075158349867,1.0200969921854626,0.03378360556728444,-35.072142533626916,23.498878467448865,-29.194990103582086
1761284861.8066652,-1.0719212990612528,-0.11884512640894991,0.9877765817112948,0.04255548932098077,-36.06193817752702,19.629577502972865,-30.83801921252113
1761284861.8166285,-1.4012679442837326,-0.09439638005860099,0.9580189111873324,0.048973559581296164,-36.56572165175312,15.599007785317276,-31.97692564737655
1761284861.8268397,-1.7231661004408345,-0.06726950653443275,0.9320357851695664,0.05417441392195828,-36.54437274421088,11.68195717772777,-32.717756307611694
1761284861.8367796,-2.0360554413642236,-0.040397040195779395,0.9108635208899795,0.05898985749169571,-35.983663043362135,8.119312079910918,-33.18137778901195
1761284861.8466518,-2.340722464537635,-0.01669852031113119,0.8952600230506195,0.06385273379504382,-34.89423137134947,5.09205198369454,-33.48852754231072
1761284861.8567803,-2.6400765085543156,0.0011802107419268933,0.8856411614513452,0.06878915736475708,-33.3084647903521,2.702525904056811,-33.74775984367046
1761284861.8667343,-2.93871948804474,0.011120768128402616,0.8820655622062888,0.07348624285984258,-31.275303650810212,0.9654488414898778,-34.04743981648659
1761284861.8767612,-3.24234646946624,0.011751118703852845,0.884261852780829,0.07741380229816136,-28.854415644586496,-0.19024263024144372,-34.45201418550312
1761284861.886694,-3.557044613543688,0.0025950747971338305,0.8916808802265488,0.07997373034880077,-26.11114924503117,-0.9090965496952476,-35.002041877800856
1761284861.8967657,-3.888581502949723,-0.01587595796930024,0.9035512374520025,0.08065026931160496,-23.113225283622086,-1.3883419509187593,-35.71699570079372
1761284861.906654,-4.2417805607727415,-0.04229964248553889,0.9189215087189404,0.07913647974725933,-19.92941409832824,-1.8516109170653048,-36.599670065558755
1761284861.9167805,-4.620066822504442,-0.0745775608577843,0.936684781258287,0.07541673986846084,-16.62970796394061,-2.5207125760657543,-37.64111017293185
1761284861.926853,-5.025233524366043,-0.11010134846341942,0.955594529943336,0.06979253759317713,-13.28597897195823,-3.5888386411797955,-38.82522787537889
1761284861.9373238,-5.457437013623465,-0.1460147999945707,0.9742899898065089,0.06284896844892217,-9.971981241179261,-5.197938636917445,-40.132584643270775
1761284861.9476829,-5.915386252998112,-0.17947857333261752,0.991349408589171,0.05537020804896075,-6.761859484244458,-7.422112737863666,-41.543114548876794
1761284861.9566534,-6.396665882738656,-0.20791493316495943,1.0053803459294683,0.048221091430658655,-3.7269590922619513,-10.258006344109964,-43.03777857600249
1761284861.9666522,-6.898124714439959,-0.2292224177844045,1.015141382548804,0.04221717170884736,-0.931451498887432,-13.62255104298835,-44.599277035976904
1761284861.9766376,-7.416270729622058,-0.24195510297858305,1.019676188326374,0.03800687039549915,1.572188423509689,-17.358000376818417,-46.21201635814091
1761284861.9866362,-7.947628521088659,-0.2454554756609187,1.0184344160031882,0.035986366338775805,3.7466693997926726,-21.243904075389334,-47.86154613671591
1761284861.99681,-8.489027515090319,-0.23992112730598547,1.0113553155470776,0.03626074040526194,5.5714000147577405,-25.015272653270472,-49.53365721869172
1761284862.0067108,-9.037798802079195,-0.22638451854077596,0.9988964918287331,0.03865501834404059,7.041627052110056,-28.385649070103625,-51.2132701421325
1761284862.0165825,-9.591868734796892,-0.20659668303207615,0.981998546289944,0.04276872565856417,8.165413709956375,-31.07321027972494,-52.88317084848702
1761284862.026853,-10.149750462754216,-0.18282528949011348,0.96198528594846,0.04805979171864747,8.95921630808534,-32.82751552873845,-54.52260228234596
1761284862.036643,-10.710448500881176,-0.15759619719351914,0.9404093317225202,0.053939609272085944,9.443147011785857,-33.4542445616426,-56.1057241041955
1761284862.0467322,-11.273303122924197,-0.13341879837173024,0.9188637173018306,0.059861101437247974,9.637066592830202,-32.83533266588793,-57.60001335594972
1761284862.0566747,-11.83780822440317,-0.11253616095784227,0.8987878854571381,0.06538498653066509,9.55842530781199,-30.94233837987867,-58.96476827190536
1761284862.0666373,-12.403436725224953,-0.09673195630858014,0.8812970351011042,0.0702150397461596,9.222301434075808,-27.841625231693783,-60.1499510039969
1761284862.0767584,-12.969501239687022,-0.08721142596414488,0.8670561978462213,0.0742003599150875,8.643492279391053,-23.690902694582434,-61.09563562172612
1761284862.0868523,-13.535065769724643,-0.08455845747210668,0.8562089682096653,0.07731028249895064,7.8399789944012,-18.72768240469201,-61.73231373277196
1761284862.0967073,-14.098908962303948,-0.08875875354982318,0.8483617220497689,0.07959320303501097,6.836795906805839,-13.251016622917918,-61.98226452213067
1761284862.1068993,-14.65952436498035,-0.09927204449987197,0.8426209071102774,0.08113181234118132,5.669368453094028,-7.598304965170657,-61.762138812631136
1761284862.1174324,-15.215132055320755,-0.11513575312148222,0.8376824908778634,0.0820039306154332,4.385693269899556,-2.1189991675580937,-60.986850128268614
1761284862.1266513,-15.76367264074392,-0.1350880757485912,0.8319750633991633,0.08225265889803465,3.047185028910934,2.8530887747034934,-59.574797692934496
1761284862.136988,-16.302760924161706,-0.15770623218555146,0.8238571626201783,0.0818653728400859,1.7284294666194417,7.0272262055864845,-57.45433210434673
1761284862.1469073,-16.82959142278299,-0.18155987720460176,0.811862179019686,0.08076056447005718,0.516271891551774,10.181158613197535,-54.571179596829936
1761284862.1566944,-17.340807130517064,-0.20537692409613642,0.7949712168728464,0.07878420456847071,-0.4914830848717477,12.182360384424532,-50.89626913287538
1761284862.1667187,-17.832361241361017,-0.22821066435582282,0.7728804764800322,0.07571988619189454,-1.1879232014904855,13.002672752936238,-46.43311984617557
1761284862.1766496,-18.29941500857129,-0.24958692051633155,0.7462213904617109,0.07131655521695959,-1.4600857942877845,12.723705491425186,-41.22373432272516
1761284862.1866539,-18.736320555257294,-0.2696017121856723,0.7166917697031732,0.06533428849086495,-1.1941520911636212,11.530696661800944,-35.351883374653426
1761284862.1969743,-19.136732953035978,-0.2889373858163344,0.6870630061557276,0.057604613443902254,-0.28359798405262393,9.693514137744634,-28.942808753307407
1761284862.2066286,-19.493879740535764,-0.308771462529011,0.6610391665056833,0.048098342642831915,1.3594261468909015,7.535145498531728,-22.158712053252717
1761284862.2166936,-19.800987445081077,-0.33056694989786906,0.6429575250832399,0.036989580790244676,3.7901126691583156,5.39014526377478,-15.189894848365348
1761284862.2268157,-20.05182459045516,-0.35575171665742567,0.6373374145004728,0.02469886191740381,7.016073269013546,3.5577108602931786,-8.24201622706598
1761284862.2366626,-20.241275844511556,-0.38531509999974506,0.6483061144684084,0.011894740627048261,10.984005998881967,2.2558856391760287,-1.5205858643310892
1761284862.246673,-20.365827913251582,-0.41937239455698355,0.6789563651075965,-0.0005624587376124634,15.570902247139227,1.584389845201682,4.785607537765426
1761284862.256641,-20.4238444003068,-0.45677172828297224,0.7307170465576234,-0.01173642394021279,20.582551262743284,1.5033713286781716,10.520120558353138
1761284862.2666621,-20.415545669736737,-0.4948375215443806,0.802840741475908,-0.020772814846997143,25.76127539600193,1.8337191670390864,15.571622960499024
1761284862.2767406,-20.342683120320608,-0.5293498350380593,0.8921209113383795,-0.027068894771548144,30.803469766916223,2.28156935947344,19.88236254393135
1761284862.2871463,-20.207980255827003,-0.5548391552825671,0.9929388123584826,-0.03042310235181447,35.385862901744815,2.485660080173035,23.451490896888465
1761284862.2966955,-20.014476760711847,-0.5652271082597934,1.097701409476579,-0.031140500885684864,39.1978049038447,2.0818865626370027,26.332977990007823
1761284862.3070326,-19.76493730253056,-0.5547686475416209,1.1976675719419072,-0.03007847413262666,41.97564097677993,0.7754798393903904,28.628280811086565
1761284862.316857,-19.461469155929287,-0.5191608875754983,1.2840767302891887,-0.02861994679718086,43.53450228099346,-1.5915474843103807,30.474275318401435
1761284862.3266912,-19.105439234178505,-0.45659823967380947,1.3494038750896575,-0.028558994101143036,43.79266294107099,-4.990908619422654,32.027311480803796
1761284862.3367522,-18.69770732739449,-0.3685089433864074,1.3884918026059427,-0.031885925717029015,42.784003903701866,-9.18795494912057,33.44469077593419
1761284862.3467004,-18.239118144387714,-0.25974700706731874,1.3992952988804765,-0.04048088687116332,40.65530976532413,-13.757633784460204,34.8654051161013
1761284862.356669,-17.731138650600045,-0.13814820032939848,1.3830476054363494,-0.05576746739147143,37.647376972568466,-18.135769549735897,36.3925283144356
1761284862.366684,-17.176501042435778,-0.013539896577623839,1.3438199745958854,-0.07841473158706729,34.062075592298385,-21.69696659819335,38.07998186031233
1761284862.3766387,-16.57971814058679,0.10356466591394589,1.287623752383442,-0.10817635309102952,30.220759804834625,-23.844657114780727,39.92616600419428
1761284862.3873863,-15.94737057456058,0.20331525974616144,1.2213140306749861,-0.14391456559224897,26.421671322964553,-24.097228665124394,41.87594438449912
1761284862.397054,-15.288111397834742,0.2776917730233951,1.1515544333108034,-0.1837961183393023,22.904407538904287,-22.15661730360037,43.83086031284765
1761284862.4066176,-14.61238124719077,0.3213484215375256,1.0840242402997784,-0.2255939010624871,19.827838560356714,-17.950452398290377,45.665752736612475
1761284862.4166327,-13.931867823557422,0.33206976691395174,1.022949712275666,-0.2670015521395312,17.264416726542017,-11.64386264586436,47.24867564616523
1761284862.4265985,-13.258773520216867,0.3108299828649836,0.9709577351729902,-0.3058794207252184,15.209684727709327,-3.621345736312369,48.46052559082086
1761284862.4365976,-12.604973831009524,0.2614912387962288,0.9291917902394601,-0.3403926933852457,13.602336701611648,5.557519707805873,49.211104228544144
1761284862.4472082,-11.981159393821585,0.19021223400093898,0.8975999780970197,-0.3690536199973977,12.348485530670485,15.222123919096514,49.449343676155614
1761284862.4566119,-11.396059502625443,0.10465981394856765,0.8753019212556857,-0.39071339108782843,11.344158990768284,24.66630694011124,49.1668019208568
1761284862.4666023,-10.855843612143204,0.013123432123365218,0.8609574766607717,-0.40455320247175997,10.492039243544511,33.22577638622891,48.39491522007389
1761284862.4766912,-10.36378326056413,-0.07637032633266153,0.8530827903811389,-0.4101052315730379,9.711112828724241,40.3477431922127,47.197550807399246
1761284862.4874663,-9.9202238647284,-0.15685065028492845,0.8502809521062104,-0.4073075797185714,8.94016078256785,45.64399632790072,45.66096360461742
1761284862.4966106,-9.522865659848325,-0.2230176182445763,0.8513747516021247,-0.396574523723454,8.137215721724315,48.9209096379021,43.88331293805508
1761284862.50659,-9.167296717795491,-0.27161203094272485,0.8554481370167325,-0.3788512034860594,7.277190195941567,50.1833090461863,41.9655365699242
1761284862.5166364,-8.847674432123913,-0.301505743829851,0.861818329961638,-0.3556219307697872,6.349253000607366,49.61313506452219,40.0047471241545
1761284862.5266078,-8.557429369648645,-0.31352198456710684,0.869968492107945,-0.3288507842058057,5.3547051959460505,47.5276441906311,38.09055022865838
1761284862.5366156,-8.28987372415829,-0.3100374506054508,0.8794699798724829,-0.30084755487967996,4.305421453605969,44.32480574021671,36.30392717389334
1761284862.5466263,-8.038632063867283,-0.29444831096170565,0.8899153898952639,-0.2740679744129956,3.222506657562122,40.42506652093826,34.71772322087167
1761284862.5566394,-7.797862792234643,-0.27059507245657327,0.9008728109079439,-0.2508709950946726,2.1346779552329282,36.21855206803542,33.3974618100567
1761284862.5667121,-7.562291214373463,-0.2422364134711585,0.9118625573982422,-0.23326401873441574,1.0759655873766647,32.025132599587344,32.401232525087316
1761284862.5766127,-7.327118990593172,-0.21264326096219005,0.9223530067583214,-0.22266848989510404,0.08255392410691158,28.071964065614036,31.777758319497682
1761284862.5866644,-7.087902921861408,-0.18435655182516636,0.9317714778203057,-0.21973561803357916,-0.8111281774315312,24.489699951594098,31.562339897221282
1761284862.596713,-6.840502682228357,-0.15911965965226663,0.9395268943304474,-0.22423762490228813,-1.5766918520081912,21.325224323901107,31.77106546570232
1761284862.6066172,-6.581178292788653,-0.13796359645731013,0.9450416275044974,-0.23505424335663153,-2.195883279221652,18.56606245677631,32.39431790922714
1761284862.61667,-6.306874004912802,-0.12139473545213691,0.9477903764865269,-0.2502666984643982,-2.663833164937732,16.169989369333404,33.391078274229145
1761284862.6266792,-6.015662369418287,-0.10961626591800545,0.9473445375396934,-0.26736185799129214,-2.990804736687462,14.092994351624055,34.68570810268483
1761284862.6366782,-5.707254467728757,-0.10271079826951983,0.9434209859458036,-0.28353753313889635,-3.2018842349232832,12.30968718420165,36.168723924711784
1761284862.6466513,-5.3834293672755225,-0.10072580261215663,0.9359340927305737,-0.29608542340744415,-3.3342810296205765,10.82226462486998,37.70254656023637
