timestamp,angle,linear_acceleration_x,linear_acceleration_y,linear_acceleration_z,angular_velocity_x,angular_velocity_y,angular_velocity_z
1760516432.21726,-14.883778183364445,-0.16371101357930753,0.9238814177916027,-0.18207297821007087,11.857969460932745,3.538357083854537,13.920832644913297
1760516432.2272925,-14.567974351733408,-0.133608996505343,0.9203541179972576,-0.18286387822916214,12.141000952633918,4.549442611171403,13.960042378761
1760516432.2372825,-14.219602464861003,-0.10771628894700942,0.9161526152288691,-0.18443636129327873,12.363781352857222,5.950956932406562,14.085277038305621
1760516432.2473438,-13.847720940702898,-0.08788708409690336,0.9117095264928808,-0.18660004116066944,12.527254122940874,7.562611589104572,14.310205510388963
1760516432.2572758,-13.462792182293516,-0.07527361671400869,0.9076244366972163,-0.1891957057187359,12.638484749256405,9.185143113587879,14.64316485153613
1760516432.2672594,-13.075374009136857,-0.07016872295222089,0.9046152525577428,-0.19215730209919576,12.706986815492822,10.62354022847643,15.083321460675837
1760516432.2773235,-12.69490207640707,-0.07200734356925756,0.9034286517290293,-0.19555037219138754,12.741146092495164,11.708629774245452,15.617625943521332
1760516432.2872949,-12.32881641350383,-0.07952952667993328,0.9047206576023838,-0.19957672590273948,12.745551646284046,12.314789535005442,16.219098932022803
1760516432.2974694,-11.982177494385919,-0.09105380522498478,0.9089341923431495,-0.2045413043950238,12.719698095318595,12.371985962014506,16.846960617749325
1760516432.3074174,-11.65777089306958,-0.10478265475257811,0.9162039175675124,-0.21078550640171617,12.658068066114474,11.870984716883894,17.448907063840533
1760516432.3173661,-11.356576704378782,-0.11906818544923876,0.926309972027768,-0.21860143692896924,12.551243291715283,10.861424637297759,17.96546175163428
1760516432.3273196,-11.078415044443165,-0.13259296338756021,0.9386889610406082,-0.2281486302351826,12.387532753931634,9.443363455478213,18.335907216254128
1760516432.3373003,-10.822576765302871,-0.14445199834987857,0.9524982824782369,-0.23939356706665446,12.154634077179562,7.753710003493511,18.5049669042721
1760516432.3472931,-10.588296771418706,-0.15414831926414185,0.9667206743702232,-0.25208389486274396,11.841000945600983,5.949493695136764,18.42924372810444
1760516432.357263,-10.37500368664482,-0.16153089065433152,0.9802903969814128,-0.2657596086649689,11.436812454848129,4.190128153357081,18.082448939512734
1760516432.3673012,-10.182354164999253,-0.16670590363350554,0.9922204676161838,-0.27979704710059633,10.934653015058572,2.620738033721923,17.45866424346002
1760516432.3773053,-10.010105814018162,-0.16994212385089746,1.0017117298939713,-0.29347869365451074,10.330123146486356,1.3583173261905133,16.57323498223564
1760516432.3872962,-9.85789328420719,-0.17157836843919497,1.0082290687128985,-0.3060800192272856,9.62255545770451,0.48204587857441944,15.461307954874586
1760516432.397544,-9.724966862121764,-0.17193820245052369,1.0115356870177523,-0.3169618173587321,8.815834252227909,0.02855057996062521,14.174396145788474
1760516432.4072952,-9.609955980152986,-0.17126452991338278,1.0116811027810917,-0.3256534059134834,7.919120044472134,-0.007708128279592297,12.77559729667282
1760516432.4172604,-9.510734470500994,-0.16969370057266514,1.0089446392066512,-0.33191200957643513,6.947181217268413,0.33064097386407526,11.334184210911422
1760516432.4272914,-9.424468801586272,-0.16728327399117637,1.003746766365017,-0.3357486437443766,5.9200866568121455,0.9726667220238657,9.920228947766825
1760516432.4372764,-9.347900500564249,-0.16408844242800252,0.9965521735965013,-0.33741872418192287,4.862181247085317,1.8302423427515262,8.599763839762256
1760516432.4472892,-9.27784667613058,-0.16025985574956264,0.9877923136101877,-0.33738197177122414,3.800469860543792,2.809849652511826,7.430786588268747
1760516432.4572828,-9.211822580917833,-0.15612390253137995,0.9778274445602406,-0.3362383883338413,2.7626942738538895,3.823422884669342,6.460236957581202
1760516432.467362,-9.148632863169574,-0.1522116904195432,0.9669536596956905,-0.3346463701726581,1.7754429298208678,4.796760703958994,5.721923512194203
1760516432.4772918,-9.088768335751215,-0.1492212483605264,0.9554468268044898,-0.33322914523980357,0.8625660784038491,5.674442008912372,5.235257825886159
1760516432.487287,-9.034486349948585,-0.14791976237193494,0.9436273170453771,-0.332479045186629,0.044013165906966675,6.420747967347299,5.004572972528222
1760516432.497524,-8.989528458294734,-0.14900976492786083,0.9319271224064894,-0.33267320617111595,-0.6649586638499387,7.016723148677518,5.018788860637312
1760516432.5072765,-8.958511819129145,-0.1529897894730237,0.9209420979431499,-0.3338143348017585,-1.2543607517683133,7.454119302491216,5.251250698193246
1760516432.517287,-8.946098482142363,-0.16003717655820993,0.9114538382665887,-0.33560550992953364,-1.7199953676231208,7.727485661679369,5.659693822703755
1760516432.5272827,-8.956089941989372,-0.1699334909649393,0.9044074826977453,-0.33746281788495835,-2.064013506960997,7.826019377240529,6.186450109105998
1760516432.5372956,-8.99061125266612,-0.1820448124420942,0.9008360379603652,-0.33856707382381795,-2.29550244005392,7.726892051961075,6.759178651857998
1760516432.547309,-9.049538062403556,-0.19536050496234714,0.9017313495302416,-0.3379547520841875,-2.43102600927093,7.391582046369593,7.2925434343697555
1760516432.5572977,-9.13028116385691,-0.2085851611859333,0.9078756288126089,-0.3346453847988525,-2.4950001113206173,6.766276731939826,7.691330372395679
1760516432.5673685,-9.227981945268402,-0.220270350857325,0.9196602104708542,-0.3277963002056931,-2.5197603875949794,5.786724833737021,7.855447800270176
1760516432.5772915,-9.336099193702491,-0.22896667951472693,0.9369242403212298,-0.3168666315316573,-2.545161201740967,4.387119892443906,7.687054774547481
1760516432.5872939,-9.447296796042304,-0.23337349938796434,0.9588435859951319,-0.3017642727831511,-2.6175475856065566,2.511807848449029,7.099709455229254
1760516432.5972867,-9.554487450069983,-0.23246467235186763,0.9838929125665877,-0.2829456823886094,-2.7879814237575573,0.12796267303339315,6.028961134177936
1760516432.6072905,-9.651860455164014,-0.22557440353394165,1.0098966787930663,-0.2614416772268539,-3.1096709778556724,-2.7630153455616204,4.443292417859343
1760516432.6172698,-9.735724620118878,-0.21243527214208008,1.0341791819372403,-0.23879215775054533,-3.6346139813884246,-6.117647661569572,2.353849315090815
1760516432.6275241,-9.805024814434892,-0.19316782923190598,1.053815598553082,-0.21688534407166885,-4.409497973145865,-9.847930759420406,-0.1789059658724947
1760516432.637316,-9.861435988594378,-0.16822669809044424,1.0659701499282535,-0.1977095972468345,-5.4709385740612095,-13.8252996910672,-3.043505104468352
1760516432.6474009,-9.909000743843858,-0.13831585922798756,1.0682849223999542,-0.18304047259316564,-6.840246874376381,-17.890772385005555,-6.082283351572663
1760516432.6573024,-9.953357444464006,-0.10429944716718587,1.0592617247914742,-0.17410637359278736,-8.518152668921346,-21.869629702714334,-9.103474187371384
1760516432.667308,-10.000696430635935,-0.06714895706982771,1.0385691337626008,-0.17129939941843356,-10.480254900836865,-25.587801406583136,-11.900260491624456
1760516432.6773016,-10.05665650405035,-0.027968707593600078,1.007212008124527,-0.17400916574553119,-12.674332041711144,-28.8867091298228,-14.275111601706865
1760516432.6873224,-10.1254026130043,0.011884127445839355,0.9675207088853512,-0.18064150955625127,-15.020882918338955,-31.634002021361596,-16.06639599934939
1760516432.6974533,-10.209092074643621,0.050618075987195775,0.9229485591393334,-0.1888402207401163,-17.41822458563594,-33.72922626745318,-17.173211860961825
1760516432.707312,-10.307844393575786,0.08585082811318728,0.8777010684785936,-0.1958739749993965,-19.752994727560857,-35.10530564203588,-17.5739290028799
1760516432.7173088,-10.420199706163464,0.11459402677207944,0.8362481153842242,-0.1991034765715773,-21.915905043408014,-35.72797729982815,-17.334379895114587
1760516432.7273948,-10.54391856915621,0.13348115548106346,0.8027838109719491,-0.1964216282400949,-23.821169992054198,-35.59554758927969,-16.603143244970028
1760516432.7373836,-10.676886283933218,0.13926826534565068,0.7807025252594592,-0.18657064741376142,-25.426574138427924,-34.74050445355818,-15.593785894706865
1760516432.7475665,-10.817876080503453,0.12951389630822693,0.7721644255366498,-0.16928199924970247,-26.750219341476797,-33.23304837954776,-14.556750378677092
1760516432.7574127,-10.967003404060131,0.1032187687134014,0.7778291275330619,-0.14524057485806502,-27.880052029732763,-31.185101902436173,-13.746024003931307
1760516432.767301,-11.125830363616643,0.06117135965944754,0.7968189903757412,-0.11591595705124454,-28.97328090021022,-28.752366628715166,-13.386939287203578
1760516432.777293,-11.297191503482038,0.005862499265486154,0.8269169098041701,-0.08331246111145477,-30.244329154082838,-26.131748263725914,-13.65085804584708
1760516432.7872953,-11.484862145498827,-0.05896659211897528,0.8649336002057431,-0.04967560784774616,-31.941630720457418,-23.551958795841948,-14.640342332985588
1760516432.797284,-11.6931765670758,-0.12893984135999673,0.9071464406483117,-0.01718215959875473,-34.31524449524643,-21.25626934086507,-16.38575062435589
1760516432.8073144,-11.926658264494863,-0.1996223073114619,0.9497296801381668,0.01235384189943642,-37.57884846584482,-19.47806479399812,-18.851926724471628
1760516432.8173027,-12.189684895230052,-0.2669473700232629,0.9891324935862608,0.03771570519409999,-41.87096789815231,-18.41165666199618,-21.95203139045853
1760516432.8273165,-12.486192659207417,-0.3274867486507925,1.0223866382355136,0.05841544822969893,-47.221024204990805,-18.18228883390806,-25.564678128269648
1760516432.8373182,-12.81942247655142,-0.3786047096647662,1.04733646157697,0.07469453827658916,-53.525803727705664,-18.820150880763737,-29.550601256590216
1760516432.847289,-13.191708804537889,-0.41853059809037274,1.0627891057765098,0.08739562775946638,-60.541179407676594,-20.243376149785895,-33.76607431272602
1760516432.8572707,-13.60430545177129,-0.44635658491232993,1.0685825106718014,0.09773613509416192,-67.89237550522884,-22.254335715318685,-38.07169299679414
1760516432.8672924,-14.057236776674834,-0.4619596292865295,1.0655612171576816,0.10703329868132887,-75.10380757672274,-24.551993951459753,-42.336395858790425
1760516432.877307,-14.54916517727444,-0.4658652376955003,1.0554436007156291,0.11643517000277843,-81.6466519842066,-26.760804392779875,-46.43756276696563
1760516432.8873107,-15.077279447427813,-0.45909671424000104,1.0405738512072666,0.12670466248789625,-86.99897941330116,-28.47390218861799,-50.25875985526711
1760516432.8975582,-15.637227898497892,-0.44306386877820136,1.0235804752600588,0.138087688087464,-90.71007185589897,-29.30558841480716,-53.68709988573156
1760516432.9073317,-16.22313373352905,-0.4195239954770226,1.0069938978874513,0.15027739385363278,-92.45853276101424,-28.945766524187412,-56.61208547235856
1760516432.91732,-16.82772861719367,-0.3906000529728763,0.9928892528569078,0.16247211998365424,-92.09410811666811,-27.207575007445264,-58.92723562160694
1760516432.927335,-17.44262248059154,-0.35879217528632695,0.9826125524858768,0.17351858248458055,-89.65592769222229,-24.059374453870113,-60.53497003753157
1760516432.9374745,-18.05869823179085,-0.32689524126499453,0.9766287569842799,0.18212849912410012,-85.36416661015839,-19.633765699468817,-61.354263595419425
1760516432.9473212,-18.666587522909335,-0.29775513880138677,0.974509038697647,0.18714518127843935,-79.58663166673298,-14.209590173152712,-61.32956689928116
1760516432.9573956,-19.25716152277809,-0.27387029267183094,0.975055505835919,0.1878132108987151,-72.78580649732656,-8.167865393752312,-60.43872101533629
1760516432.9676096,-19.82197385195534,-0.2569528000584411,0.9765421903273879,0.1839842849986012,-65.45532530347369,-1.928887105909065,-58.69759807656763
1760516432.9773188,-20.353624707951397,-0.24763521197112937,0.9770285307196783,0.17619773344864184,-58.05722232477047,4.116117439647151,-56.160279093335596
1760516432.987311,-20.84605765173793,-0.24546931435446284,0.9746824470322094,0.16560974504495923,-50.97134675810665,9.662075979302118,-52.915326549460424
1760516432.997314,-21.294824620759712,-0.24921823465493195,0.9680499366771499,0.15379159027221825,-44.46511031611156,14.521513092790585,-49.080074505735276
1760516433.0073543,-21.69734535220903,-0.2573007900195106,0.9562343419276754,0.1424507665880483,-38.68618792947639,18.624169558584317,-44.79495465582421
1760516433.017338,-22.053154938756034,-0.2682110386453004,0.9389835743881886,0.13314173161985482,-33.675286179858844,21.989138587293716,-40.218757218501125
1760516433.0273798,-22.36409980020935,-0.280799367601149,0.9166996778705266,0.12702864750222112,-29.392471093700177,24.681783977648344,-35.52429390495619
1760516433.0373843,-22.634422731564772,-0.2943841856546854,0.8903786864514289,0.12474604451819735,-25.749214110513407,26.770347227604507,-30.8931053447405
1760516433.0474474,-22.870675931205053,-0.30871603559970917,0.8614829501191351,0.12637706567155016,-22.638884049517248,28.294839609263306,-26.507950022968487
1760516433.0577435,-23.08141687027989,-0.32384108797725686,0.831757716674635,0.1315376865754075,-19.960359641499547,29.25537737189892,-22.54260342158285
1760516433.0673513,-23.276673656843442,-0.3399207533631754,0.8030184842997262,0.13952902940201778,-17.63212599204511,29.62062825848389,-19.149573732167696
1760516433.0774422,-23.467208227841297,-0.3570607800435991,0.7769401285514929,0.14950920084166067,-15.596881839338398,29.351403873635952,-16.447292288727525
1760516433.0874178,-23.663647211148895,-0.37518799710773443,0.7548717575265123,0.16064328010977078,-13.818678783650107,28.43099567577123,-14.508851264164152
1760516433.0974405,-23.875581231058113,-0.3939920993693474,0.737691508262576,0.17220774894053026,-12.275646558309404,26.893063523696803,-13.354331797985514
1760516433.1073117,-24.110746482263437,-0.4129308097448228,0.7257099507892678,0.18364394292952893,-10.951461542935206,24.8394647444633,-12.948259134237894
1760516433.1174202,-24.374394520517317,-0.43128427938253383,0.7186298554475002,0.1945679669471555,-9.828105595495272,22.443648039779507,-13.202858372210985
1760516433.127311,-24.66892863077923,-0.448240320754712,0.7155703554374571,0.20475033091184594,-8.881448385477581,19.93909045674848,-13.986740599010785
1760516433.1374424,-24.99384322868698,-0.46299383267850197,0.7151612701876742,0.21407847695937465,-8.080094149855164,17.59558004194691,-15.137698910319282
1760516433.1476352,-25.34595553829947,-0.47484762897620336,0.7157067604446992,0.22251212014645197,-7.387025407041409,15.688165816636344,-16.477713762594718
1760516433.15739,-25.719876750608233,-0.4833052593455273,0.7154072989786787,0.2300379064255386,-6.76301299355027,14.464163898167326,-17.82817850154881
1760516433.167306,-26.10864162702727,-0.4881486728865846,0.7126176241471103,0.23662777728378762,-6.17059823869147,14.113034203642663,-19.023681743187247
1760516433.1773078,-26.5044051732436,-0.4894948874519448,0.7061087929549068,0.24220415795211148,-5.5776431465325285,14.742708675357125,-19.923231464901583
1760516433.187294,-26.899120783007287,-0.4878259800525313,0.6952970211896211,0.24661413846618938,-4.959866547562922,16.36451305322337,-20.41838253522153
1760516433.1973054,-27.28512982115609,-0.4839855095224456,0.6804023290124768,0.24961466875356825,-4.302271169999049,18.887482747999503,-20.438202483713003
1760516433.2073128,-27.6556126143025,-0.4791339752441876,0.6625069519648356,0.2508711902246912,-3.5997356513767884,22.121787383196285,-19.951310225232493
1760516433.2173996,-28.00487452212522,-0.4746593171910581,0.6434960281603541,0.24997161440930057,-2.8571579440385726,25.790240011319042,-18.96533352103256
1760516433.2273047,-28.328467973733332,-0.47204550333840656,0.6258783058812135,0.24645574543220275,-2.089370498666299,29.546519241780324,-17.52408997581347
1760516433.2374458,-28.623177315270663,-0.4727095126788181,0.6125001698381769,0.23985831165832133,-1.320699636933308,32.99875952076186,-15.702672604732324
1760516433.2476144,-28.886911091069457,-0.47782305769527184,0.6061815248499146,0.22976246072670004,-0.5836555998211261,35.73748477423528,-13.600487172642215
1760516433.2576122,-29.11855204818484,-0.4881411342297791,0.6093159669891198,0.2158595646499612,0.08403010294183995,37.367247033829244,-11.332221236020576
1760516433.2673976,-29.317808510947692,-0.5038637356962078,0.6234873832883249,0.19801033069547141,0.6447843726158805,37.541370712752,-9.01681809605323
1760516433.2773094,-29.48509325791388,-0.5245554059283876,0.6491573194429884,0.1763021786803172,1.0693062550263575,35.99850365948223,-6.7648661719160295
1760516433.2873535,-29.621430801224164,-0.5491375928654497,0.6854707638357059,0.15109891394054387,1.3468667133492342,32.59821427461427,-4.665394002832806
1760516433.2972958,-29.72836832878522,-0.5759563166486951,0.7302151149400374,0.12307904298284629,1.4961745620028248,27.351102642240697,-2.7737365047615063
1760516433.307383,-29.807850617303117,-0.6029205370758,0.779953545921828,0.09325567441388287,1.5742554323617066,20.437508402824022,-1.1026316628669537
1760516433.317323,-29.862023324405083,-0.6277048175947184,0.8303423373565786,0.06296375320688295,1.6803655279172767,12.208564149811044,0.3812937642988234
1760516433.327326,-29.892951104568944,-0.6480035548854159,0.876626908890301,0.03379438871092946,1.9523343224569725,3.164632044688931,1.7541837863149987
1760516433.3373203,-29.902267262454927,-0.6618043772980604,0.914283123140334,0.007458677430392609,2.554031958916483,-6.090484929532381,3.124635148037805
1760516433.347346,-29.890799072730935,-0.6676230186799341,0.9397241465833537,-0.014421070376452719,3.6548256373236163,-14.915744168058932,4.617969058580609
1760516433.3574119,-29.85823068096386,-0.6646385897854941,0.950940666555516,-0.030568759460198946,5.4045656893203,-22.70918705252833,6.3581849071106165
1760516433.367297,-29.802870383741574,-0.6527059812631788,0.9479160620072272,-0.04030658048273495,7.909918546772006,-28.979019282266265,8.451409582139734
1760516433.377332,-29.721578198292647,-0.6322786661567869,0.9326956250329227,-0.04372351367167637,11.218320789844164,-33.39362819632733,10.974077424568797
1760516433.387401,-29.60988345455628,-0.6043054548298712,0.9090918190344911,-0.041681960430167204,15.313519666216965,-35.800474291593076,13.967296070157644
1760516433.3973114,-29.462289743988322,-0.5701523203540604,0.8821176342468778,-0.03562542063812325,20.12243269226068,-36.21349717110683,17.436700358842717
1760516433.4073422,-29.272738926715842,-0.5315646171725008,0.8572881907672854,-0.027222575982034845,25.52927921734851,-34.77733735379952,21.355586193720004
1760516433.417362,-29.035192333487338,-0.4906499425734572,0.8399098408176171,-0.017946862828435346,31.3914804242411,-31.72060687967074,25.668767972914907
1760516433.4273455,-28.744280564853568,-0.4498413185082768,0.8344341805252821,-0.00871087524448465,37.55267878967748,-27.309703288714996,30.295293589768978
1760516433.4373143,-28.395966974422834,-0.4118009555507216,0.8439281218796237,0.0003504501254455835,43.85022318277546,-21.81163080304072,35.12939406344125
1760516433.4472926,-27.988164587632376,-0.37924452070592746,0.8696994027177136,0.009902875661497014,50.116586530221845,-15.4709168398349,40.0402807980235
1760516433.457303,-27.521246284730598,-0.35469197810056097,0.9111062539015207,0.02124563873441709,56.17596199712378,-8.502499534406946,44.87221658957622
1760516433.4673374,-26.998394839880294,-0.3401709387861327,0.9655666955135783,0.03599241747134383,61.83855674728812,-1.0992637998963246,49.44653241073173
1760516433.4774272,-26.425750838970462,-0.33691052355922646,1.0287710391107188,0.055658906638922256,66.8957884802744,6.550157740216479,53.567020882985794
1760516433.48735,-25.81233110771156,-0.34507316288933876,1.095091069403164,0.08122483063056235,71.11964512950289,14.240100343091653,57.029575922926725
1760516433.4973793,-25.169707644401957,-0.3635789214677556,1.1581644076161743,0.1127416038616597,74.26891990720623,21.731010752764806,59.63621573007677
1760516433.5074244,-24.51145671925297,-0.39007745660053866,1.211607585483342,0.14905585838381233,76.10394253913854,28.74429430294172,61.21279528352135
1760516433.5173798,-23.85240981374012,-0.4211127649794397,1.249781599531974,0.18771161857199004,76.40978851382609,34.973440959499214,61.62877421701432
1760516433.527361,-23.207762442505796,-0.45250056327928284,1.2685104829810694,0.2250758737648674,75.02578484461903,40.11148981344638,60.81638177445187
1760516433.5373013,-22.592120439138117,-0.4798920881481744,1.2656438093512297,0.2567003059188296,71.87680990280373,43.889739837822255,58.78568240034805
1760516433.5473866,-22.018578091212994,-0.49943689671709623,1.2413611119742363,0.27788574789453496,67.00022895798824,46.118678140809344,55.631926751770514
1760516433.5574522,-21.4979199220075,-0.50840540879117,1.1981466845377018,0.2843635908097329,60.562165851322604,46.72087525350183,51.53259237990673
1760516433.567322,-21.03801508750122,-0.505620602682742,1.140422639159734,0.27297098627892746,52.85840655523291,45.74737346402182,46.73353692276131
1760516433.5773516,-20.64343609644268,-0.49159098880768193,1.0739045413918165,0.24219812065718518,44.29796505828884,43.37302329888086,41.52604339018177
1760516433.587323,-20.315293100230328,-0.4683175039146779,1.0048079351346506,0.19252677609554372,35.37031770843405,39.87106106697496,36.21850696636003
1760516433.5973086,-20.051243266682153,-0.4388312888621607,0.939059990717769,0.1265288817328448,26.5999791062725,35.571875747123364,31.107603945373846
1760516433.607349,-19.845624246854985,-0.40657931320830215,0.8816514918520908,0.04871962540633492,18.49429428982355,30.814456306529614,26.453679931777266
1760516433.6173415,-19.689684295298157,-0.3748008977549899,0.8362104504845168,-0.034835492122139704,11.491828100967291,25.900541004074764,22.463676406018532
1760516433.6273239,-19.571938114296483,-0.3460315229150465,0.8048128970602735,-0.11714689327860979,5.919051173231345,21.060465164707566,19.28257678465831
1760516433.6373396,-19.478732058581823,-0.3218301859306223,0.7879970538904785,-0.1911090731290718,1.9617807613229874,16.436475926430976,16.992093414821557
1760516433.6473184,-19.395099136758937,-0.3027560403490189,0.7849286892767653,-0.2503890492251119,-0.3448243471421498,12.0850244811032,15.614140365242498
1760516433.6575372,-19.3058988766393,-0.2885422665756324,0.7936691397680392,-0.2902569372426866,-1.107339058148053,7.995531395529537,15.116803064918653
1760516433.667307,-19.197110239352412,-0.27836702054213464,0.811505502496379,-0.3082140886462015,-0.5491134399466895,4.120141461232196,15.42147383664505
1760516433.6773007,-19.05705286188787,-0.27112300996636446,0.8353065468176897,-0.3043012899691853,1.0255259386381965,0.4073425349945678,16.410795153960148
1760516433.6873202,-18.877304101653994,-0.26562608164402574,0.8618701697856527,-0.28102459648539724,3.2717776073638793,-3.167884737419405,17.937578916891706
1760516433.6973054,-18.653156029520503,-0.26075030623856127,0.8882322239210053,-0.24290968587562412,5.843727864797034,-6.58349105362159,19.834904039527448
1760516433.7073083,-18.383579512623204,-0.2555104687027632,0.9119129983413335,-0.1957718620349164,8.427908617251564,-9.763063089399617,21.927299716801063
1760516433.7173169,-18.070782311137727,-0.24912403786918053,0.9310861026380934,-0.1458460533690916,10.76804348835984,-12.582558641875105,24.042485725765708
1760516433.72742,-17.71952367275376,-0.24107484319632552,0.9446643814591867,-0.0989401862697792,12.679726752159228,-14.889022790769468,26.022742215276335
1760516433.7374473,-17.33635958617172,-0.23117802384836894,0.9523073823773202,-0.0597526927388893,14.055294118364353,-16.52711315189153,27.734783801236887
1760516433.7474766,-16.928946363070917,-0.21962252912612049,0.9543628010033484,-0.03144364098600133,14.860236186489692,-17.368067637255393,29.077104995475292
1760516433.757326,-16.505451931348727,-0.20695626877940054,0.9517583680063536,-0.015488168599382566,15.123141460208574,-17.33557435740509,29.984120467328022
1760516433.767333,-16.07405178823571,-0.19398918280711172,0.9458595098945359,-0.011786071084263149,14.921393559908383,-16.423839677105427,30.426930556818643
1760516433.777345,-15.64245415497551,-0.18162002265490387,0.9383024501997183,-0.018961640248207796,14.364778560676418,-14.704802866853422,30.411040116084603
1760516433.7874486,-15.21741960274875,-0.17062907775009858,0.9308067153715422,-0.03476748248645428,13.578892758816655,-12.323523001877607,29.971700152271705
1760516433.7973106,-14.804297512542448,-0.16150103639190913,0.9249719876052216,-0.056506202683333756,12.689892322708241,-9.482815911939294,29.167669650426955
1760516433.807313,-14.40665515659075,-0.15433469426942928,0.922074894197849,-0.08140217606869696,11.811771901678462,-6.419871262807796,28.074165280599235
1760516433.8173382,-14.026082276634545,-0.14885830096109356,0.922896367785961,-0.10688552604624033,11.037010502950896,-3.3785941630632057,26.77568079471464
1760516433.8273363,-13.662199750089037,-0.14451945977879782,0.9276183703705031,-0.1307813727048229,10.431045837059186,-0.581723889717734,25.359269645041397
1760516433.8375158,-13.312819061148154,-0.14058943530897205,0.9358204392611204,-0.1514182862634566,10.03060933696317,1.7935331172663815,23.908772577500006
1760516433.8474593,-12.97415462106049,-0.13623625418168248,0.9465812169372129,-0.1676751537182388,9.8455043275078,3.633385723763767,22.500300913434838
1760516433.8576186,-12.64102456292242,-0.1305676365365789,0.9586587212584057,-0.17897990867543698,9.863026632303447,4.8968960646312,21.199075284911103
1760516433.8675246,-12.307065466885796,-0.12268505822349578,0.9707019021365565,-0.18526746276285266,10.054005370033153,5.616093282567668,20.057533700187708
1760516433.877367,-11.965065214974965,-0.1117924476102676,0.9814453407632946,-0.18690431914390673,10.379421964380308,5.8869540217019525,19.114510836532652
1760516433.887338,-11.60752594118399,-0.09736647178126233,0.9898558011926769,-0.18459163962059086,10.796710448364744,5.852481367798403,18.39525746468429
1760516433.8973439,-11.22749330546627,-0.07934696167245883,0.9952215138795324,-0.17926128372695893,11.265069963032236,5.68007824937836,17.91209230660987
1760516433.907324,-10.81956767983409,-0.058278367702735784,0.9971909542669951,-0.1719773255039463,11.749356332788992,5.536194546739755,17.665523161128455
1760516433.9174035,-10.380908349587468,-0.035341077453293145,0.9957725762381652,-0.16384943226814816,12.222329631009575,5.561694446621826,17.645696690716722
1760516433.9273565,-9.911999375767858,-0.012245633306424197,0.9913035057311976,-0.15595803876112538,12.665221278466525,5.85142314407432,17.834005817277937
1760516433.9373674,-9.416977978857304,0.008996073533929713,0.984391963554759,-0.14928892067376742,13.066761501685864,6.440979488603751,18.204617929701904
1760516433.9475937,-8.90342011891426,0.02637431546088633,0.9758407192150652,-0.14467723588206263,13.420984040795684,7.302714725394899,18.725661393038163
1760516433.9574013,-8.381607509546459,0.038190083364534895,0.966563561068763,-0.14276423712115768,13.724295186001662,8.351559114610415,19.35990276484112
1760516433.9673193,-7.863428001629266,0.04329687489881694,0.957506512118763,-0.14397002202590306,13.972431953433821,9.459651332995906,20.06497319303636
1760516433.9773698,-7.361139459131804,0.04122720497231776,0.9495794741663484,-0.1484838734958148,14.15798627414211,10.477260535219468,20.79347498857572
1760516433.9873786,-6.886223100740113,0.03219731993026862,0.9435970601415671,-0.15627248429154286,14.26907786732938,11.256489763588533,21.493486539969716
1760516433.9974155,-6.448477624012485,0.01702110697122938,0.9402236643147558,-0.16710538634467692,14.289495630255844,11.673912773434948,22.109983653633794
1760516434.0073252,-6.055409056035379,-0.0030228023377802055,0.939918745610794,-0.18059457304944584,14.200252518026554,11.648617123613587,22.587487208865774
1760516434.0174255,-5.711898855841968,-0.026337174916904703,0.9428839611303514,-0.19624194487584132,13.982141001350342,11.15299627634297,22.873897284606137
1760516434.0273485,-5.420100785068787,-0.0511503242478744,0.9490217091091352,-0.21348604148606654,13.618674528910764,10.214916652033033,22.925104030832237
1760516434.0373194,-5.179518024145825,-0.07565628630225724,0.9579190350076602,-0.23174043851635603,13.098820047011554,8.911407378719284,22.709693814204893
1760516434.0475364,-4.987229666847837,-0.09815333458070571,0.9688675430084935,-0.2504201031135495,12.419111008597014,7.355511748054836,22.212962097774454
1760516434.0573359,-4.838252343105543,-0.11717934380100979,0.980921272338077,-0.2689569441416608,11.584945055050346,5.679056093498104,21.43951354235239
1760516434.067342,-4.726024178968771,-0.13163368884716628,0.9929859704382957,-0.28680953729440634,10.611009651956163,4.01456628088695,20.413954295851283
1760516434.0773284,-4.64298347558738,-0.14086840722868765,1.003927461787228,-0.30347311169289365,9.520827228028574,2.479346216065585,19.179509591012803
1760516434.0873342,-4.581196801919669,-0.1447332464628266,1.0126839082037353,-0.318493943023186,8.34542067471616,1.1639747644003187,17.794740229330827
1760516434.0973167,-4.5329839159016965,-0.1435688428177358,1.0183671218240617,-0.3314888927570676,7.121137089341308,0.12640380278428145,16.3287882397667
1760516434.1075642,-4.491491364876336,-0.13815233680789982,1.0203418578093566,-0.34216880072751055,5.886772526660307,-0.6083095879700774,14.855715005722232
1760516434.1174347,-4.451178068042702,-0.12960653310681639,1.0182773222820234,-0.35036422766902736,4.680296236205473,-1.043605209555299,13.448530977110421
1760516434.1273465,-4.408190456403207,-0.11928722485098349,1.0121694217279291,-0.35605080374347575,3.535608588660227,-1.2040107934100421,12.173495012175378
1760516434.1373208,-4.3606139598282,-0.10866120006522341,1.002334694350651,-0.3593673803548449,2.479805330563868,-1.1266632392922733,11.085192387737273
1760516434.1473382,-4.308582754057318,-0.09917922467059115,0.9893787170463288,-0.36061578198455635,1.5313309225255505,-0.8535856657221558,10.222774559458154
1760516434.157347,-4.254213845883215,-0.09214117388620394,0.9741447844248007,-0.36023060726096257,0.6992193658984769,-0.4261050867214702,9.607572058176471
1760516434.1673427,-4.201322170216854,-0.0885524182790671,0.9576523426125568,-0.358713508415451,-0.01658611712530468,0.11783703935318039,9.2421105052692
1760516434.1773365,-4.1548875060905095,-0.08898094124482939,0.9410356965491279,-0.35653735841168466,-0.6240120237034076,0.7434120003023323,9.110406643032647
1760516434.1875432,-4.120285835314732,-0.09343642885774249,0.9254888049447497,-0.3540376261643089,-1.1370186740075308,1.4162181618968113,9.179326126931826
1760516434.197474,-4.102357082359098,-0.10129928158664259,0.9122128642828012,-0.35131627876953037,-1.5734967007349203,2.098203937264214,9.400766437046665
1760516434.2073998,-4.104438038779376,-0.11132573614159634,0.9023558621699481,-0.34818447143815706,-1.9532727485608217,2.7434890317989025,9.714483918061113
1760516434.2174635,-4.127522199098394,-0.12174483357291935,0.8969334620701852,-0.34416412982163497,-2.29659651389291,3.2954052349202807,10.051484826342787
1760516434.2273405,-4.169706343521033,-0.130447724949519,0.8967293889121979,-0.33855740812795937,-2.6234166864988904,3.685870745285457,10.338000745158993
1760516434.23743,-4.226051807249214,-0.1352553228263002,0.9021856968671882,-0.33057946910355507,-2.9536071713078864,3.837798398901645,10.50011871528394
1760516434.2473595,-4.2889356137889925,-0.13423795464133934,0.9133021583980867,-0.31953654695909184,-3.308086372148778,3.670683985743335,10.469094310398253
1760516434.2576168,-4.348895061430127,-0.12604791223561454,0.929566655479801,-0.3050203680131044,-3.7105247844170703,3.1089116009384314,10.187224136889194
1760516434.2673404,-4.395881099327806,-0.11021343564643207,0.9499366300393329,-0.2870837135282496,-4.189118661832345,2.0917326660767785,9.613910576039707
1760516434.2773519,-4.420745098647728,-0.08733665719418612,0.972887863111116,-0.2663607230227244,-4.777771597837386,0.5833992555968038,8.731269406760216
1760516434.2873514,-4.416713377628929,-0.05914341658608777,0.9965407241474502,-0.2440986597072532,-5.516002412959445,-1.4183509899874742,7.548388115415231
1760516434.2973282,-4.380576507237331,-0.028351200998436115,1.0188627114004205,-0.22207510599617436,-6.44699954693564,-3.877228599191739,6.103220745161383
1760516434.3075304,-4.3133531766924476,0.0016476396403143463,1.0379282917848405,-0.20238821460263162,-7.613478636120396,-6.718044685878354,4.461167610241835
1760516434.3173935,-4.220284438929372,0.02725097677562728,1.0521966129330353,-0.18713104995992366,-9.051386195600719,-9.831466775640916,2.709667286923496
1760516434.327621,-4.110153300660504,0.04518558562020123,1.0607527519564,-0.17799369510733734,-10.782030524941677,-13.083112799232206,0.9486217836202704
1760516434.3373525,-3.994068852660988,0.0530190842585208,1.0634564456504914,-0.17586966667550652,-12.803853840967848,-16.3252322868997,-0.7228495019115011
1760516434.347358,-3.8839639332172937,0.04954285452375025,1.0609572172080979,-0.1805599002701743,-15.085632615915582,-19.40882411115269,-2.2220475656664056
1760516434.3574078,-3.7911036312444772,0.03495090106272056,1.054565209209431,-0.1906549142895167,-17.563177719822466,-22.19445943640361,-3.4986832826640026
1760516434.367364,-3.7248819152414305,0.010788129477833629,1.0460058052367998,-0.2036360397310625,-20.14139206456488,-24.561179559113885,-4.548629197222057
1760516434.3773901,-3.692106050770293,-0.02030688732806731,1.037119206858343,-0.21618630976903094,-22.70275037401424,-26.414084717977506,-5.422705579608566
1760516434.387356,-3.6968521398987995,-0.05499997864709356,1.029577746947541,-0.22465723939464188,-25.1220149560693,-27.6919259257124,-6.228200138632936
1760516434.3973513,-3.7408450827009183,-0.08971460883238291,1.0246780890534228,-0.22560769411872902,-27.28560260339428,-28.375691947576307,-7.121846887886166
1760516434.4073563,-3.824205861322386,-0.12105549282955015,1.0232323722353613,-0.21631922338138654,-29.112853225734955,-28.49787819780823,-8.294444028605495
1760516434.4174058,-3.9463495325902596,-0.14614059398858925,1.025549224600262,-0.19520042111219582,-30.57581470439518,-28.1503563011783,-9.948822253567236
1760516434.4274416,-4.106819667696543,-0.16281537502738722,1.0314752470427575,-0.1620179429363375,-31.714143765827203,-27.48731386037649,-12.274096903323633
1760516434.4374456,-4.305895547292148,-0.16975618820898036,1.0404631890300122,-0.11792581478128293,-32.642222506964416,-26.719307950082406,-15.419779217098835
1760516434.4474235,-4.544881907657894,-0.1664877645843199,1.0516403885491719,-0.0652995168459229,-33.54641780477687,-26.095408546857886,-19.473297972114484
1760516434.4573772,-4.826065400378146,-0.15334314079579095,1.063863964026194,-0.007411664564951031,-34.671443331217006,-25.87255675239689,-24.443879681654437
1760516434.4675546,-5.152384231121814,-0.13139151453405115,1.0757638158465468,0.05199142121333836,-36.29599168464275,-26.274143259549238,-30.25474378982617
1760516434.4773538,-5.526901634356308,-0.10235569562450121,1.0857884496445427,0.1091412574911575,-38.69915217635092,-27.442844139481142,-36.74440481296055
1760516434.487356,-5.952196905353509,-0.06853365513573613,1.0922775966164864,0.16065792567087847,-42.12050496220736,-29.395367613784487,-43.6767503953851
1760516434.4978385,-6.429788807912786,-0.03272517257131306,1.0935836038207853,0.20386793032028558,-46.718046973110155,-31.988379850975498,-50.7586908416892
1760516434.5073504,-6.959687946676856,0.0018518988625811233,1.0882487046800373,0.23700351968088088,-52.52917090378937,-34.904905095382155,-57.66365985213244
1760516434.5176156,-7.540143041683131,0.03168356564952899,1.0752227196074737,0.2592821809105961,-59.44071868957693,-37.668509735117865,-64.05899064094747
1760516434.5273645,-8.16760798638918,0.053150433810977754,1.0540847152364066,0.2708782357409424,-67.17449658513573,-39.68849229352229,-69.63498391244927
1760516434.5373611,-8.836918692100062,0.0628076460576539,1.0252208795740583,0.2728014154213866,-75.2941327836902,-40.33353964364712,-74.1331987327226
1760516434.547373,-9.541636570969665,0.05775041728549141,0.989912734612511,0.2666985566929423,-83.23707447019106,-39.024977727122476,-77.3711628499224
1760516434.5576937,-10.27449288402807,0.03602941611104596,0.9503024872146716,0.2546010791531114,-90.37135985122168,-35.33544748682347,-79.26044743701173
1760516434.5673811,-11.027857505111912,-0.0029504606053309553,0.909220157514949,0.23865146352432884,-96.07105377799417,-29.076025166628057,-79.81511421137215
1760516434.5773714,-11.794159477775269,-0.05813537398936264,0.8698756186750468,0.22084962826520396,-99.79865098166836,-20.355197499187327,-79.14826737846532
1760516434.5873685,-12.56620628836918,-0.12672146216313132,0.8354389097025706,0.2028602231718599,-101.17952397505691,-9.596693122306254,-77.45609589028786
1760516434.5973694,-13.337379176718903,-0.20430962328087485,0.8085599875389063,0.1859138655208372,-100.0540170080843,2.490506474306861,-74.99116124033544
1760516434.6074152,-14.101711429116854,-0.28532215969243185,0.7909145297089453,0.170817619265205,-96.49705200101093,14.988544004360707,-72.02898803414764
1760516434.6175709,-14.853874645529325,-0.36362284953208396,0.7828887566584827,0.15806045627725548,-90.80192832992816,26.883538320563076,-68.83340929780682
1760516434.6273646,-15.589103822654309,-0.43323812431156816,0.783506334995942,0.14796451292773805,-83.43254890419513,37.19767956262747,-65.62629072919569
1760516434.6373775,-16.303095552589294,-0.4890675265485587,0.7906396933624597,0.1408120621701401,-74.9546576026817,45.11860991729631,-62.56638242014784
1760516434.6473515,-16.991922260982705,-0.527485412307518,0.8014546746828527,0.13689107259521832,-65.96014283047633,50.103483166686914,-59.7403243156846
1760516434.657355,-17.652011977245557,-0.5467533499501629,0.8129593029171062,0.1364464337651285,-56.99808206354357,51.93966571440657,-57.16637054568986
1760516434.6673675,-18.280232202841052,-0.547181311237777,0.8225080491504723,0.139570579115816,-48.52241674841757,50.75329825171415,-54.808634653848706
1760516434.6774452,-18.874084153290703,-0.5310089879862797,0.8281542943120161,0.14608887470103074,-40.8608252395169,46.96805335593622,-52.59753880296414
1760516434.6873684,-19.431973925833066,-0.502029484611758,0.8288110760628411,0.15548920623054863,-34.20458426351303,41.2257613364063,-50.45150372910054
1760516434.697512,-19.953498063629755,-0.4650281988426357,0.8242382628280047,0.166925090679041,-28.616062345333578,34.28588607776779,-48.29573678025437
1760516434.707587,-20.43967124043566,-0.42513868617397454,0.8149068569022483,0.17929818184696594,-24.049013700449663,26.921891532491607,-46.07554471783848
1760516434.7175114,-20.89303197325671,-0.3872185550830972,0.8017985792246045,0.19140427353467235,-20.3765927428719,19.830219709964286,-43.76318083170407
1760516434.7276282,-21.3175831230607,-0.35532983717153843,0.7861902009887901,0.20211047373735236,-17.422438770703685,13.5630203178225,-41.3584954867035
1760516434.7374423,-21.71855276549598,-0.3323805763310452,0.769457016323631,0.21052343842556812,-14.990883658764146,8.490151448173751,-38.8845795990556
1760516434.7474854,-22.101993900575877,-0.31995450889840926,0.7529143828549292,0.2161114074841314,-12.893184288195807,4.790544289302947,-36.38024066597263
1760516434.7574203,-22.474272987954826,-0.3183266257368288,0.7377032760367374,0.21875589660156522,-10.967679173446525,2.468712455576322,-33.89150567034676
1760516434.767358,-22.841518805023945,-0.32663537397729053,0.724716674393906,0.2187284196099432,-9.092846046248175,1.3894166834525687,-31.46423519614529
1760516434.7773695,-23.20910603618133,-0.34316016710776326,0.7145586773843546,0.2166065439693919,-7.193254763478313,1.3223320566944512,-29.139230580410867
1760516434.787569,-23.58123160319468,-0.36564215884645196,0.707527603977378,0.21315510552359038,-5.23923016334642,1.9888593771483023,-26.950119572204432
1760516434.7974021,-23.960616490971894,-0.39159235971526135,0.703617678676955,0.2092000292174464,-3.2415325010608056,3.1046421097680104,-24.923314258301335
1760516434.8074515,-24.34834530091783,-0.41855116960493266,0.7025392742679337,0.20551616614427748,-1.2424761048813244,4.41341148548638,-23.07886125685666
1760516434.8173823,-24.74384541544188,-0.4442862101311614,0.7037609591222521,0.2027410204960496,0.6952318664807161,5.709977393161892,-21.431099626852347
1760516434.8273888,-25.145002977623243,-0.46693100043560976,0.7065747231077665,0.20131703042324237,2.5008082917769356,6.85211646930224,-19.988486375441674
1760516434.837371,-25.548407071134154,-0.48507351969059365,0.7101801326205291,0.2014587505144994,4.107782819497987,7.7625611335563915,-18.752475628023753
1760516434.847371,-25.949704368140058,-0.4978049375828337,0.7137784418832037,0.203138819009719,5.465337653467925,8.423207057382568,-17.715753109962044
1760516434.857453,-26.344036523629818,-0.504738382400507,0.7166666830911197,0.2060878721056649,6.547485064892889,8.864067897927585,-16.860349356897487
1760516434.8674169,-26.726523749776128,-0.5060055950627329,0.7183228855676093,0.20980766555325744,7.35910058809612,9.149466975020458,-16.156196882155232
1760516434.8773947,-27.092748763023657,-0.5022341202159283,0.7184738226097445,0.21360115807521998,7.938084709569176,9.363522255921811,-15.560605853186628
1760516434.8873901,-27.43918354663648,-0.49450026517998474,0.7171357315880924,0.21662500115884945,8.353281484520945,9.596283118961288,-15.018945760088185
1760516434.8973787,-27.76349032012361,-0.4842481128226802,0.7146188049148715,0.21796712272086466,8.698238156003715,9.93117174971707,-14.4665890948441
1760516434.9073799,-28.064627982111777,-0.47316760393484314,0.711490169486989,0.2167457842808714,9.081426924744452,10.433960784419998,-13.831986641468621
1760516434.9173596,-28.342717189945112,-0.46303587725575807,0.7084971161433907,0.21221928368096013,9.614072398209892,11.143494468505606,-13.04067870495772
1760516434.9275124,-28.59866343023133,-0.4555401975663648,0.7064595816496151,0.20389064347031388,10.397085155603685,12.064566606578833,-12.020094008849682
1760516434.937614,-28.833597307573015,-0.45211015555768963,0.7061454639842306,0.1915911294037011,11.508696316744269,13.163526801273756,-10.70504352196913
1760516434.947426,-29.048246448409614,-0.4537872040457582,0.7081439993912012,0.17552918179677027,12.994257935029369,14.367150547648752,-9.043751830565034
1760516434.9573867,-29.242386092521457,-0.4611518227893102,0.7127533267737041,0.15629468248031805,14.859439002007168,15.565112420850625,-7.00403812895517
1760516434.9673755,-29.414512834856772,-0.4743150314574762,0.7199004496742974,0.13481188840318076,17.067766189125656,16.6161280425493,-4.5789408719573
1760516434.977414,-29.561841593206417,-0.49296340893371215,0.7291141709598593,0.11224018363591604,19.543072417155688,17.35751658176537,-1.7908046544568095
1760516434.987386,-29.680644368744684,-0.5164298274701891,0.7395703450017431,0.08983171320377818,22.176857925061395,17.617612589205077,1.3072958645826973
1760516434.997374,-29.766852381348674,-0.5437550509910335,0.7502202467979935,0.06876632942949062,24.839915816247853,17.230218234975826,4.63387054646286
1760516435.0074263,-29.816764098398863,-0.5737153791544063,0.7599972533818912,0.04999178612590735,27.39703481684381,16.050219003605488,8.085809719171346
1760516435.0174341,-29.82766914509372,-0.6048154653801158,0.7680783853064559,0.034098143647956485,29.72330304575867,13.969479038897207,11.549723022071959
1760516435.0273836,-29.798221931642615,-0.6352701724973936,0.774159385794818,0.02125123265865944,31.72042638422694,10.931908299835717,14.91692196475866
1760516435.0373876,-29.728467553821023,-0.6630102769164179,0.7786870504661183,0.011202258770142116,33.331401674191376,6.946094743500565,18.100122131471235
1760516435.0474114,-29.61951121532214,-0.6857388957869354,0.782984285773782,0.0033790231568524426,34.55185893318523,2.0935560795298187,21.049120942211022
1760516435.0573688,-29.47290573772838,-0.7010483330146163,0.7892098044850238,-0.002951361967976214,35.436522278893165,-3.4689819865238376,23.762332965211588
1760516435.067368,-29.28989300002234,-0.7065947018294163,0.800121928301923,-0.008475593122266412,36.09952248162382,-9.513886445719304,26.291321695316118
1760516435.0773692,-29.070666542077046,-0.7003213757614635,0.818660241126073,-0.013623407162973538,36.70757637380707,-15.753161271969393,28.736432466870472
1760516435.0873976,-28.813821155649403,-0.6807125481264773,0.8474050493281334,-0.018396516050779153,37.4653180030907,-21.85457920231195,31.233178549883892
1760516435.097373,-28.51612252787648,-0.6470447618436854,0.8880088959028022,-0.022274892840141346,38.5925939259428,-27.46288980453866,33.930805535856656
1760516435.1073723,-28.172673478675776,-0.5995986595273712,0.9407103270353308,-0.024226603090390184,40.29461099842246,-32.22554968377603,36.966009695061494
1760516435.1173627,-27.777484962173695,-0.5397984035119342,1.0040352719692074,-0.022832200778042707,42.727395306096305,-35.82175390525253,40.43577171806647
1760516435.127648,-27.324391290922925,-0.4702508119224011,1.074764179562074,-0.016516678870414234,45.96270218578351,-37.99238223790166,44.373555357926264
1760516435.1376374,-26.808188891684566,-0.39465365276048997,1.1481961158514253,-0.0038632965815665896,49.95787790830536,-38.567262926634555,48.7327500987505
1760516435.1473956,-26.225833998887257,-0.31754434926925246,1.2186834801291093,0.016034137110496394,54.53681534604825,-37.485396294865694,53.38032767561671
1760516435.1573913,-25.577514880106687,-0.24388299898145116,1.280352910288447,0.04323976050260905,59.38764381611204,-34.803973259506684,58.10236667229482
1760516435.1674006,-24.867424956717795,-0.17850688528762862,1.3278804559682755,0.07673365276911896,64.08088131714699,-30.69356112758449,62.621479626586385
1760516435.1774423,-24.104105605544266,-0.1255401265621989,1.3571734878859931,0.11432325584546539,68.1086589979731,-25.41958573796384,66.62436635735888
1760516435.1873913,-23.30029397037297,-0.08787246865082217,1.3658457461326892,0.15274841323672073,70.9419433513913,-19.313342259348204,69.79599081638789
1760516435.1974235,-22.472286619672495,-0.06682115560248693,1.3534378676899892,0.18798314232840352,72.09915050369804,-12.73796192269895,71.85569899643913
1760516435.2074215,-21.63889683280806,-0.06205134102353599,1.321391249131026,0.2157000437230223,71.2167297960649,-6.055138025615021,72.59033238727096
1760516435.2175796,-20.82012876971506,-0.0717616725734914,1.27280782875768,0.23183412589820657,68.1106522879207,0.40299846693049557,71.88002322411829
1760516435.2276075,-20.035712014969775,-0.09307032437032874,1.2120369444885466,0.23316173763838588,62.817783410431005,6.354648069270006,69.71355385926942
1760516435.2376785,-19.303639020128266,-0.1224938517148136,1.1441433037861448,0.21780150597950576,55.60835499554136,11.581235318650597,66.19164156627585
1760516435.2474174,-18.638832458481158,-0.15640963020250423,1.0743294185750085,0.18555685242193584,46.965275971521805,15.932554179330713,61.51816391697423
1760516435.2574584,-18.052045818162245,-0.19142328115266874,1.0073971998417848,0.13804915368479706,37.53203394232268,19.324399948037737,55.98098877948201
1760516435.2673993,-17.549075292436363,-0.22460715224536532,0.9473239983988332,0.07861945065658826,28.03685786747181,21.72935842949937,49.92532302769942
1760516435.2775843,-17.130339926229848,-0.2536179930463694,0.8970000127750996,0.011999481306983457,19.205065295745328,23.16259686498475,43.72301585982919
1760516435.287408,-16.790870861595444,-0.27672898645549027,0.8581383838374368,-0.05622040286446204,11.673253858834231,23.665958700123053,37.74110437439368
1760516435.2974355,-16.520733538460526,-0.29281772481781865,0.8313378732372854,-0.12026458394200962,5.918158983923336,23.294483741621963,32.31242986791179
1760516435.307503,-16.30587958420043,-0.3013412475877899,0.8162576919853818,-0.1748929100369842,2.2100261451779177,22.108983704793882,27.71067905611816
1760516435.3175867,-16.129380951610912,-0.3023102790199244,0.8118563932374984,-0.21605762881184618,0.5958715276281878,20.17646649299133,24.131730878250465
1760516435.3275013,-15.972940167001603,-0.29625566682787186,0.8166488953863809,-0.24139021590999174,0.9127936065944646,17.577573533428627,21.682577623466695
1760516435.33741,-15.818514786277028,-0.28417004205536384,0.8289437111187838,-0.25043977375838206,2.826554110482681,14.417654876224072,20.378318101319216
1760516435.3473742,-15.649867821629188,-0.2674139857468422,0.8470335902683951,-0.24462983056271784,5.887065165182439,10.836533745629652,20.146951404216978
1760516435.3573902,-15.453874537830131,-0.2475935674664574,0.8693246873792114,-0.22695163246194866,9.59088960444082,7.011975942470647,20.841085751515713
1760516435.3674288,-15.221468405475756,-0.22642877549159457,0.8944004907098668,-0.20145702681257724,13.441372829624118,3.153485705828399,22.25521739993661
1760516435.3773959,-14.948166489135252,-0.20562941041470698,0.9210282346501851,-0.17264309326359314,16.999028447604434,-0.5140895992332002,24.146833054780778
1760516435.3873968,-14.634157547752187,-0.18678282343604757,0.9481275237599195,-0.14482991154241573,19.917552766044377,-3.774405585818732,26.259215081159162
1760516435.3975067,-14.283966239853775,-0.1712494900428759,0.9747275977360866,-0.12162454271443753,21.963703247534568,-6.445681870588866,28.34361444229077
1760516435.407626,-13.905733874804348,-0.16006213179836143,0.9999352865964691,-0.10554297271229593,23.021817696997232,-8.402980977004269,30.178600142762836
1760516435.418041,-13.510184125204145,-0.1538291810135879,1.0229237681735406,-0.0978304873248354,23.085661190344467,-9.591874440926466,31.584944223878715
1760516435.4274206,-13.109370199873332,-0.1526524691673978,1.0429415289687523,-0.09848336749216842,22.241305638133134,-10.031098326426573,32.43518370761234
1760516435.43743,-12.715325813090674,-0.1560794495270394,1.0593356067428852,-0.10643897067331723,20.64481745854586,-9.804513822728692,32.657764823055885
1760516435.4475439,-12.3387597632996,-0.16311423825124916,1.0715822986321102,-0.11987739453456665,18.497913327076198,-9.044891487263222,32.236247573560966
1760516435.457381,-11.98793514268064,-0.17230361616421638,1.0793207876919773,-0.13657168982758608,16.023875843560543,-7.913295391055647,31.204370880407687
1760516435.4674537,-11.667855922456004,-0.18189686214275702,1.0823886850803313,-0.15423268373129964,13.445274311532945,-6.5780548498837765,29.637891952406388
1760516435.477409,-11.37984851960307,-0.19005944630014554,1.0808580598968556,-0.17081018602591086,10.96460945622557,-5.196622603571712,27.644136418357775
1760516435.4874806,-11.12157894240693,-0.1951067958514693,1.0750628562075666,-0.18472442053089627,8.748897176188885,-3.9023028575154077,25.350248137088144
1760516435.4974134,-10.88749328142788,-0.19571987581423939,1.0656009064467407,-0.19500611477876992,6.919216058770117,-2.7962711165868988,22.89122489347021
1760516435.5073721,-10.669617553721832,-0.1911092882056928,1.0532968676978798,-0.20132897749427728,5.546010982871444,-1.944033645391875,20.398849470060615
1760516435.517394,-10.458609214092418,-0.18110470949588978,1.0391251204070513,-0.20393552354158176,4.6502484945410725,-1.3749917416557462,17.992446994542398
1760516435.5274205,-10.244925491596433,-0.1661591953973918,1.024103485903663,-0.2034831458812523,4.209557303261556,-1.0841420718788877,15.77204241924575
1760516435.5373993,-10.019971475415856,-0.1472741233601361,1.00917502498665,-0.20085522763424077,4.167757063287759,-1.035655436390903,13.814116727891086
1760516435.5475972,-9.777110586983287,-0.12586606140658715,0.9950989086888176,-0.1969817933596008,4.4460149083484595,-1.1685216533776874,12.169899571942985
1760516435.5573893,-9.512442636480337,-0.10360123697188713,0.9823729852247838,-0.19270063319265293,4.954177745717066,-1.4043838087308764,10.865991864764714
1760516435.5674386,-9.225264976933612,-0.08221494405546725,0.9712067552672552,-0.18867245649768327,5.6012616955847125,-1.6572392447772533,9.906995486944274
1760516435.5774136,-8.918140554283422,-0.06332474479840863,0.9615521954897345,-0.1853482359650361,6.3043793311687,-1.8441201134108853,9.279661541715923
1760516435.5875635,-8.596527241446948,-0.04824825809363013,0.9531846861566189,-0.1829764238675662,6.99553918231817,-1.8954307326177982,8.957865762080546
1760516435.5977044,-8.267985647770518,-0.03784538422012908,0.9458137946132114,-0.1816336147474047,7.625891079150653,-1.7634763365021655,8.907575693000659
1760516435.6074107,-7.94106327844618,-0.03241105629934943,0.9391983454144256,-0.1812641469050904,8.167203926985282,-1.427914032282126,9.09099163614848
1760516435.61738,-7.624025625020618,-0.03164227748659131,0.9332414713455023,-0.1817197930437495,8.610635903576389,-0.8973480387327742,9.469257828682213
1760516435.6273873,-7.323647844569758,-0.034692823479228,0.9280459229276747,-0.18279657602818297,8.9631357933046,-0.20698398395860124,10.00350539132525
1760516435.6373863,-7.044283008740854,-0.040314038107973016,0.9239163568837078,-0.1842690845767581,9.242058835662679,0.5869970471476744,10.654408992204564
1760516435.6474311,-6.7873824067237045,-0.047064009829495074,0.9213044928215766,-0.18592305997423664,9.46877219540648,1.4150822207711002,11.380813976686815
1760516435.6573963,-6.551564386847511,-0.0535525532533747,0.9207052826936406,-0.18758582546142233,9.662148849369286,2.2025445793083316,12.138236501496069
1760516435.6673794,-6.333221775262173,-0.05867843319030135,0.9225259524834694,-0.18915279288652567,9.832882128547439,2.8766061201415356,12.87809526930966
1760516435.6774569,-6.127544352659969,-0.061811897128227405,0.926961243773649,-0.19060752924554517,9.979471571432,3.371685371797088,13.548368650931874
1760516435.6873977,-5.929739242451882,-0.06288267127556274,0.933911300197475,-0.19203240852051226,10.086524441974683,3.6324448949336894,14.096005887355144
1760516435.6973863,-5.736182827181544,-0.06235076840108662,0.9429676733244698,-0.19360603704359294,10.125704403153417,3.6150402552724823,14.470946072687356
1760516435.707541,-5.54524941389243,-0.06106303534812388,0.9534699933376677,-0.1955831990842847,10.059280759084839,3.287482476828458,14.631147092599798
1760516435.7176657,-5.357639572715179,-0.06002849126265058,0.9646133518912627,-0.19825542565566645,9.845843673248655,2.6302400830689474,14.547714794964413
1760516435.7274983,-5.176158453328278,-0.06016935360175243,0.9755758603386007,-0.20189619673637213,9.44741758771272,1.6380599085663365,14.209121284602622
1760516435.7374,-5.005031411500119,-0.062109835311704914,0.9856370597695869,-0.2067012251503997,8.836980823722964,0.32346501956044493,13.623641367894374
1760516435.7474394,-4.848947285683596,-0.06604962180733592,0.9942650125064101,-0.21273735723964737,8.005293051682528,-1.2784207174982083,12.819489911329136
1760516435.7575345,-4.712061124667706,-0.07174166180866788,1.0011605794564915,-0.21991229602846396,6.965913929028322,-3.104960528219688,11.842601175803098
1760516435.7674294,-4.597162275026379,-0.07856434472082041,1.0062595817598199,-0.22797316108385038,5.757359234718002,-5.062942086805805,10.752404095155793
1760516435.7777278,-4.505138689671211,-0.08565613916010321,1.0097018933551427,-0.23653657711237794,4.441547725898231,-7.029562039321337,9.61620453223019
1760516435.7875354,-4.434780427406905,-0.0920738439572765,1.0117776514890395,-0.2451466901758329,3.0981419772918692,-8.859300724270005,8.502869464250749
1760516435.797949,-4.382896260328503,-0.09694196133079216,1.012858017880855,-0.2533496470342704,1.815131132941569,-10.397445998835218,7.476489412561596
1760516435.8076155,-4.344677024380847,-0.09957149501225948,1.0133174692369888,-0.26076561965701395,0.6769635439719507,-11.499192156921389,6.590664668616219
1760516435.8174975,-4.314223838797195,-0.09953665505684604,1.0134583589705148,-0.26713777787602255,-0.24755921217096594,-12.050983965122532,5.884040741814193
1760516435.8274162,-4.285164132236269,-0.09670853183995422,1.0134522594560234,-0.27234533019189267,-0.9150160852335786,-11.989084704733676,5.377641021850149
1760516435.8374178,-4.2512962173337945,-0.09125451509018007,1.0133112772088695,-0.27638179894372417,-1.3125898897013482,-11.310454166945751,5.0743329946079845
1760516435.847406,-4.207218397602087,-0.08361502372297087,1.012895580716514,-0.2793125135718665,-1.457877042032147,-10.073183742337411,4.960438856100233
1760516435.8574324,-4.148899461750615,-0.07446375170281332,1.0119544181744937,-0.2812309725534609,-1.393780379307868,-8.386779226798089,5.009167427706829
1760516435.867721,-4.074141154794876,-0.06465244018066653,1.0101904900067158,-0.28223074120104863,-1.1799711334468288,-6.395023046984541,5.1852818688397315
1760516435.8776193,-3.982887065115028,-0.05514278022493857,1.007332680554733,-0.2823999760220602,-0.8828170265909926,-4.25532139429121,5.450252377940466
1760516435.8874092,-3.877350214236303,-0.04693212908433796,1.0032001826863755,-0.2818340441727453,-0.5656282860640097,-2.118453058091887,5.767106938335616
1760516435.8973846,-3.7619499169173594,-0.04097879239797073,0.9977438753164833,-0.2806535402645121,-0.28073131625944847,-0.11185001748264244,6.1043194951755355
1760516435.907399,-3.64305470337765,-0.03812690570198206,0.9910594055089622,-0.2790138295001237,-0.06436279793483929,1.6716418563791209,6.438330802382892
1760516435.9173982,-3.5285258311768453,-0.03902724035898132,0.9833770306928353,-0.27709755951004256,0.06520664221349894,3.1787875109283954,6.754581922017059
1760516435.9274495,-3.4270601999436163,-0.04405338340778468,0.975039362803586,-0.27508960383818615,0.10646271049005265,4.395049125666771,7.047158325624265
1760516435.9374487,-3.3473530933886675,-0.053220850196387635,0.9664764880417623,-0.27314052155042257,0.07094121044547698,5.338725566221134,7.317259956303234
1760516435.9474027,-3.2971375442296593,-0.06612418691930134,0.9581814268496434,-0.27132801252773286,-0.022096278590573996,6.051558990777309,7.570755543841213
1760516435.9574406,-3.2821962471693027,-0.08191000399521513,0.9506836747128672,-0.26962649525042887,-0.15161553587717977,6.587404171398897,7.815097161898588
1760516435.96741,-3.305470759529231,-0.09930140398334755,0.9445185903582409,-0.2678937180980393,-0.30045213943459376,7.000556336936816,8.055901484854996
1760516435.977438,-3.3664020365033807,-0.11668251122874394,0.9401943616869822,-0.2658803380761538,-0.45986431383744375,7.33520181613758,8.293559074200145
1760516435.9874053,-3.46062277068851,-0.13224262427457012,0.938161263513848,-0.26326360703593066,-0.6324332627441519,7.6172295021103205,8.520298951133796
1760516435.9973931,-3.5800882204832236,-0.14417003785612903,0.9387862554793281,-0.2597006860186324,-0.8329828466414432,7.849342611498842,8.718183305190687
1760516436.007403,-3.713684498365236,-0.15087729894508825,0.9423306586608332,-0.25489273016857394,-1.087430392090436,8.010043453958088,8.858501534551836
1760516436.0173988,-3.8482968593402433,-0.15123255547215494,0.9489243893760417,-0.24864938066307893,-1.4297223248008715,8.056625233385319,8.902942470535445
1760516436.0274098,-3.970256698489226,-0.14476495756558888,0.9585315562709318,-0.24094440670541856,-1.8972450380218213,7.931806669596462,8.80672813900977
1760516436.0374072,-4.067016297688552,-0.13180682141327854,0.9709098975325483,-0.2319552113803312,-2.5253145518496196,7.573129538678179,8.523592835264287
1760516436.047425,-4.128835068689581,-0.11353554517721723,0.98557618899687,-0.22208021797137908,-3.3415094165189134,6.923770538702076,8.012124247638086
1760516436.057394,-4.150219660137364,-0.09188798083860863,1.0017948943311614,-0.21192829042819503,-4.3606849969136015,5.943077308482007,7.242625001897746
1760516436.06741,-4.13086123084778,-0.06933896597389255,1.01860475058338,-0.20227353385633037,-5.581456344726692,4.615026314007458,6.203398405782434
1760516436.0774133,-4.07586463508288,-0.04856072030126492,1.0348891802262172,-0.1939683952373081,-6.984732584359253,2.9530354584025935,4.905287902380554
1760516436.0874243,-3.9951638752243723,-0.032007293013194195,1.0494846227139196,-0.18781129726302984,-8.53453971333034,1.0002166566302089,3.3834345400916073
1760516436.0975204,-3.902155041997927,-0.021494391182725593,1.0613096336090058,-0.1843761215538031,-10.180977228596136,-1.1748680884969014,1.695536471868408
1760516436.1074343,-3.811733230382057,-0.017864058916462335,1.0694910681138732,-0.18382994950878054,-11.86489282009353,-3.485879518791657,-0.08365474522626934
1760516436.1174297,-3.7380657663879404,-0.02082648600799512,1.0734652356611973,-0.1857850459138538,-13.52386516994532,-5.838084241268993,-1.8713270833955669
1760516436.1274223,-3.6925293567488318,-0.02904478100355503,1.073041576214608,-0.18923804119061283,-15.09929941096785,-8.137671426076801,-3.5882118630470967
1760516436.1375165,-3.6822350708014704,-0.040467118509661594,1.0684290332901698,-0.1926347106403321,-16.544602442985234,-10.299739495977363,-5.17131011740234
1760516436.1475022,-3.7094384556146567,-0.05283179240820889,1.0602330347077698,-0.19406637100129281,-17.83424102508565,-12.254500509471399,-6.585777206323451
1760516436.157404,-3.77191492697751,-0.06421093175436897,1.0494300341766183,-0.19156704252209095,-18.972928527363,-13.951943720195649,-7.833833930410842
1760516436.167427,-3.8641507269063338,-0.0734460615109501,1.037320219129202,-0.18345212286175935,-20.003457447392325,-15.365411765896871,-8.958832703110664
1760516436.1774566,-3.9790328329345686,-0.0803631361254483,1.025452729746661,-0.1686269386406622,-21.011171932643336,-16.494152474001602,-10.043291582272019
1760516436.1875842,-4.109652540709755,-0.0857144418396887,1.0155144374470522,-0.14679983773436608,-22.123058518165422,-17.364107538886948,-11.200669304664801
1760516436.1976616,-4.250860536567669,-0.09085737995122341,1.0091749123428002,-0.11855726614429526,-23.50000361700742,-18.025405677306846,-12.561658605350932
1760516436.2074072,-4.40029997094745,-0.0972351561364049,1.0078891459110284,-0.0852902503666127,-25.321800739627523,-18.544715540271998,-14.256626898068667
1760516436.217414,-4.558770642566644,-0.10576815496209732,1.0126743719521138,-0.04899299588429507,-27.765765836715257,-18.99112833044606,-16.3964433343749
1760516436.2274344,-4.729916242284472,-0.11629025408065809,1.0238901454413007,-0.011976814146423327,-30.98109769123904,-19.415654191333147,-19.054275845288693
1760516436.2374682,-4.919353369174438,-0.1271641095418915,1.0410553296414014,0.023446980071955316,-35.06218564033373,-19.82644953893484,-22.250989807855937
1760516436.2474556,-5.133455646328234,-0.13518401436547559,1.0627337950050073,0.055262017326651744,-40.024727936684464,-20.16398305757705,-25.946486178944628
1760516436.2574158,-5.378055713649782,-0.1358307983520869,1.08651797881667,0.08197483694085823,-45.78862450501904,-20.281879339814036,-30.038670834435045
1760516436.2674375,-5.6573269415078355,-0.12388623763815547,1.1091370734806434,0.10274466917372899,-52.17106036398865,-19.939683164519504,-34.370799720071815
1760516436.2774625,-5.973057810996423,-0.09434837879007513,1.1267107908184206,0.11740112614585534,-58.892034351846505,-18.812998509252385,-38.74679668584335
1760516436.2881992,-6.324444462241883,-0.04351983393772458,1.1351564098959603,0.1263556765890746,-65.5930031606463,-16.524279236481014,-42.95293285921429
1760516436.2975745,-6.708417327032169,0.029919108431523476,1.1307343753575154,0.1304331603756649,-71.86759200388424,-12.694067922467752,-46.783170674678004
1760516436.3074949,-7.120408129155939,0.12407329489552606,1.1106859349969698,0.1306664928276683,-77.30168258350837,-7.008060962035896,-50.06470346765994
1760516436.3176165,-7.555376455043393,0.23343885626643238,1.0738760533882057,0.1281042050604126,-81.5186637303149,0.7092321403535511,-52.67990529385339
1760516436.3274229,-8.008867832186937,0.34909320466792604,1.0213103544512554,0.12367000384859082,-84.22425771156382,10.427170528055793,-54.581145695116135
1760516436.3375914,-8.477876664500377,0.459502757929317,0.9563637447753786,0.11808933775228385,-85.2444060566867,21.862484902171154,-55.79580163323387
1760516436.3474145,-8.961336113344682,0.5518701519605164,0.8845777966094134,0.11187650620225062,-84.54971659796784,34.46652606208338,-56.42026235276547
1760516436.3574753,-9.460140159240696,0.6138595786007628,0.8129811914446314,0.10536982143510701,-82.26133194668083,47.45451401971061,-56.60345380873947
1760516436.3674872,-9.976698982147255,0.6354906806356129,0.7490329854296449,0.09880427271740724,-78.63577017130919,59.87826087241889,-56.52197772982818
1760516436.3774295,-10.514116414645395,0.6109430507221656,0.699407826288123,0.09240672347526438,-74.02988588710133,70.7361014272648,-56.35022873427532
1760516436.3875062,-11.075147186459123,0.5399259763116012,0.6688871080004009,0.08648817085481077,-68.85100603109385,79.10558471238184,-56.23009536561309
1760516436.3974516,-11.661140944134186,0.4281883410400329,0.659596320562143,0.08150216163368018,-63.50081166065319,84.27659958951699,-56.246126471478874
1760516436.4074402,-12.271201058296539,0.2868351592719099,0.6707526043082057,0.07804369881022556,-58.32356303677645,85.85797124825831,-56.4123294645841
1760516436.4174151,-12.901755435130376,0.13048110485449443,0.6989601529018217,0.07677763896779732,-53.568485685559146,83.8336544199972,-56.67447149395198
1760516436.427559,-13.546642320869214,-0.025276537174099546,0.7389429088003115,0.07830892620216387,-49.37228969510053,78.55668810456402,-56.92693487913729
1760516436.4374938,-14.197685539274834,-0.16637067461100888,0.78450161218637,0.08303328896935352,-45.76245050188024,70.68506077634507,-57.03848053401372
1760516436.4474354,-14.845622476815272,-0.28219367217472935,0.8294719189835824,0.09102006225250232,-42.6772741986429,61.076359424686004,-56.87950618561981
1760516436.4574838,-15.481187720365995,-0.3666592402834754,0.8685213445033659,0.10196733548483425,-39.996174306562146,50.663949933217154,-56.34479469661476
1760516436.4674976,-16.096148550437903,-0.41837127405129604,0.8977008801287377,0.11524109599910477,-37.57304058180467,40.337091371344535,-55.36851034587842
1760516436.4774284,-16.684123074382747,-0.4400450417664746,0.9147277113736203,0.1299812760700369,-35.26652773761025,30.842885569467487,-53.930670762449374
1760516436.4874203,-17.241072113720488,-0.4374186413828057,0.9190147793521295,0.14524051791955941,-32.96286788889951,22.72126008139279,-52.05596916248786
1760516436.497529,-17.765426734160425,-0.41792345760071553,0.9114885287544396,0.16011917934584602,-30.588897283350178,16.276993384948856,-49.80674404312848
1760516436.5074246,-18.25788050434274,-0.38936545707899434,0.8942524301906575,0.17386907034315383,-28.11507332039674,11.586447045483526,-47.27226875256679
1760516436.517518,-18.720927853881065,-0.3588170691436184,0.8701613564747356,0.18595218112450768,-25.55008093602489,8.531972454003139,-44.5564958318254
1760516436.5275118,-19.158260106020823,-0.3318459202330439,0.8423712679726006,0.19605400175810708,-22.92988973561717,6.854266113695916,-41.766077913439
1760516436.5375874,-19.574136389882028,-0.3121271992164537,0.8139215457536463,0.20406135879872522,-20.304610630473064,6.212260884677794,-39.000029440204884
1760516436.547622,-19.97282931336713,-0.301414330899386,0.7873951018898722,0.2100202292609126,-17.72620816754227,6.241146461874964,-36.34187490935844
1760516436.5575147,-20.358211048262294,-0.2997883450047748,0.7646855819956627,0.2140881466546867,-15.239234523773273,6.60127642777148,-33.85461067992435
1760516436.5674179,-20.733505331410036,-0.3060784344523374,0.7468843015436092,0.21648997048550053,-12.875544014225195,7.013455250639835,-31.578383370192206
1760516436.5774229,-21.101197130452427,-0.31834722503904106,0.7342845603711187,0.21747991631024197,-10.652747193647865,7.278888770662415,-29.530546459082117
1760516436.5874965,-21.463070936620227,-0.3343558246597143,0.7264879373484616,0.2173104162033697,-8.575301066209486,7.284520313467109,-27.707680295077527
1760516436.5974767,-21.82033875869508,-0.3519516797253679,0.7225856734343953,0.21620841002868832,-6.6368338899710775,6.9962962903171775,-26.089134216128244
1760516436.6074517,-22.173814021842762,-0.36934707547305934,0.7213799274032494,0.21435956452204458,-4.822553661120449,6.443992497865932,-24.641580798570313
1760516436.6174707,-22.524085373860547,-0.3852763437624248,0.7216073949835495,0.21190047498850348,-3.111143485058315,5.701583320488162,-23.323974446567462
1760516436.6275105,-22.871647960008723,-0.3990378256966291,0.7221326642313238,0.20891860176315086,-1.4761166313783878,4.86684045873647,-22.09225912322194
1760516436.6374357,-23.216962026570666,-0.41044226379922866,0.722089005740729,0.20545905099361975,0.11299771728744039,4.043075533799877,-20.903236817182982
1760516436.6474714,-23.56042713647184,-0.4196989277436912,0.720956692526819,0.20153660228623674,1.689125382867697,3.324901253057267,-19.717212042600238
1760516436.6574535,-23.902278728254487,-0.4272721775746989,0.7185801476872589,0.19715202821742303,3.285388573921465,2.7887890626806526,-18.49934370815452
1760516436.667483,-24.242428712912066,-0.43373681516998724,0.715133139934285,0.19231331647126287,4.932044849076062,2.4882505457627975,-17.219966442219924
1760516436.6774287,-24.58028393010805,-0.4396547208901379,0.711045468353717,0.18706192809683062,6.6529011945756515,2.4528200078113818,-15.854368343288948
1760516436.6876564,-24.914586440768705,-0.4454895316531686,0.7069060982630675,0.18150036093727706,8.461745940011738,2.689698670649268,-14.38259547222981
1760516436.6974187,-25.243325477289375,-0.4515692361789585,0.703357620753965,0.1758126561645987,10.359461798484555,3.1868602054262083,-12.789824734229565
1760516436.7074184,-25.563768096381512,-0.4580976487988434,0.7009955395887901,0.1702673873500988,12.33241796669221,3.9165340003804134,-11.067685623784232
1760516436.7174745,-25.87264097634263,-0.4652058375737308,0.7002837313421815,0.1651943777561303,14.352474204122704,4.838238186946504,-9.216574717486912
1760516436.72743,-26.166468070492822,-0.4730252062079816,0.701495606591954,0.16093222384376485,16.378546160652405,5.900885556301082,-7.2485668136374315
1760516436.7375476,-26.44202988672517,-0.48175674408554164,0.7046891575080123,0.15775295395629554,18.359353354278152,7.043866649986539,-5.190156987620902
1760516436.747415,-26.69686986148947,-0.49170989278625993,0.7097217582492164,0.15577933660965682,20.23686472531868,8.197361536854265,-3.0838962905586578
1760516436.7574427,-26.92974880597213,-0.503293345552359,0.716306528048191,0.1549148596277325,21.950117446782286,9.282385930353026,-0.9880340343988133
1760516436.7674396,-27.140950880926194,-0.5169555218325117,0.7241067579422696,0.1548045163271295,23.439402272770767,10.211192848755113,1.026491894326697
1760516436.7774265,-27.332367737744274,-0.5330841849139312,0.7328572810129499,0.1548379910869168,24.651067517227013,10.888631930826113,2.882050993242652
1760516436.787428,-27.507316169416157,-0.5518770844167151,0.7424901960365985,0.15419791227511767,25.543200384743663,11.214976413707086,4.503286193984811
1760516436.7974703,-27.670072299759244,-0.5731947822532272,0.753231334927781,0.15194637472399203,26.092168385136265,11.090627670985253,5.828641539023153
1760516436.8075035,-27.8251372229905,-0.5964127114454171,0.7656331241467673,0.1471359653109554,26.29958934832544,10.422984286844255,6.823528967322187
1760516436.8174286,-27.976291125382133,-0.6203027615086925,0.7805232470562673,0.1389304663745333,26.198916424880395,9.135501075745218,7.493550749583991
1760516436.827506,-28.125543151569442,-0.6429851075355042,0.7988690575436512,0.12672510389200645,25.860540547795555,7.17845783799042,7.8955076546125325
1760516436.8374753,-28.27213100266323,-0.6619869554109951,0.8215746768069919,0.11026188225677565,25.394126043924505,4.540272859350629,8.143469333058684
1760516436.8474417,-28.41175029342864,-0.6744237312453285,0.8492394161053911,0.08973683096135272,24.946852472585903,1.2575965151289097,8.407269992043135
1760516436.8574347,-28.536184054406906,-0.677288381215654,0.8819172079802723,0.06589106503305318,24.696449848479872,-2.5777893607534597,8.901629448696832
1760516436.8674643,-28.63345260910084,-0.6678087653842647,0.9189282379427471,0.04006885715111137,24.838459119908162,-6.816942134189848,9.865640813821772
1760516436.8775485,-28.688522259642,-0.643821078166241,0.9587802314691326,0.014218275714002191,25.567961065211318,-11.257634124256176,11.534271109445976
1760516436.8875997,-28.68451784575987,-0.6041102295633833,0.9992495952131097,-0.009191741550023752,27.05690331585168,-15.654483737265103,14.105307930777712
1760516436.8975863,-28.604303058173784,-0.54868001829929,1.0376462012462035,-0.027356720618727376,29.428908694066447,-19.735123286879993,17.706431930108682
1760516436.9074438,-28.432241565690052,-0.47892775548771255,1.0712386865520351,-0.03742689843049885,32.73396544368819,-23.221649395535497,22.367535556051887
1760516436.917503,-28.155937230421017,-0.39770268536671677,1.0977542730420906,-0.03688229919993933,36.92575367469705,-25.855910982911773,28.00294664324194
1760516436.927466,-27.767765015148147,-0.30922345066144014,1.115809849328057,-0.023948652234691076,41.8447675765269,-27.426244288128473,34.40693119124544
1760516436.937497,-27.26603158550376,-0.2188252683839614,1.1251240487326577,0.0020090192763785523,47.21096933634663,-27.792199685478117,41.26397424039064
1760516436.9474418,-26.65563827791429,-0.13251905360071065,1.1264336460686735,0.04018794561280123,52.63010827679767,-26.90308554145717,48.17318794563897
1760516436.957452,-25.948162154930568,-0.05638196293993433,1.121155580057488,0.08821534540597596,57.61719589644156,-24.806457983623524,54.68413887186498
1760516436.9674296,-25.16132837815929,0.0041501853053118164,1.1109211768626204,0.14223886719078205,61.63822129577916,-21.644376427361404,60.33980023657099
1760516436.9776304,-24.31791579588398,0.04497805239656389,1.097127551626703,0.1972646012784391,64.16728383560513,-17.63781934411296,64.72148855720533
1760516436.9876816,-23.44420657755319,0.06389690717382926,1.0806286457298555,0.24771617141777336,64.752224230603,-13.061981728456974,67.49059773328672
1760516436.997429,-22.56814788636895,0.060904781986846894,1.0616509081390195,0.2881280800351153,63.07903437875719,-8.216458564270658,68.42256484464768
1760516437.0074391,-21.71742803840628,0.038180612696295226,1.039960000440726,0.3138442067942424,59.024580599407685,-3.3946000667588967,67.4295500471414
1760516437.0175328,-20.917672373401743,-0.0002934593453693946,1.0152195450410673,0.32159442428199103,52.68843773000319,1.143973437339968,64.5695610721257
1760516437.0279055,-20.190931897855684,-0.049414224418987,0.9874026699209814,0.3098682909380541,44.39751451977705,5.194336075748609,60.04111182002578
1760516437.037443,-19.55457597921525,-0.10380262067311001,0.957093762653324,0.27906296809451686,34.681216434108336,8.61823689388614,54.16400150223055
1760516437.0474298,-19.020623124677254,-0.15860744582741776,0.9255713850021493,0.2314189937735553,24.219571257025482,11.345799214697205,47.34840088882121
1760516437.0575237,-18.595472555090133,-0.21007567273647457,0.89466034072196,0.17076796234912278,13.771206736446997,13.36709209700019,40.05591132527697
1760516437.0674405,-18.27995530713094,-0.255788884179977,0.8664251438844601,0.10212038063996423,4.091353103561468,14.715378592166719,32.75727545155287
1760516437.0774662,-18.06961761985926,-0.29458122126694836,0.8428131766896235,0.031133442578384594,-4.148575555497176,15.445422146647719,25.891692906702797
1760516437.0875044,-17.95517608196279,-0.3262381881568455,0.8253448759000842,-0.03648704229121707,-10.428944580379284,15.61134514485155,19.8321760898664
1760516437.0976017,-17.923124407889297,-0.35110718684819014,0.8149124355923925,-0.0955861837073004,-14.42890803777733,15.248829186511935,14.860238046133333
1760516437.1074347,-17.956500516604763,-0.36973528399049227,0.8117085204554262,-0.1420921196363913,-16.047475748474003,14.365719342624702,11.151716327932304
1760516437.1174624,-18.03582192711277,-0.3826050117625298,0.8152732767540432,-0.1734138106553563,-15.39770728473775,12.943380831909474,8.773978632071033
1760516437.1275,-18.14016901694083,-0.3899901030890326,0.8246264602663813,-0.1886503690681091,-12.777088692889176,10.948786760728611,7.6933536065473325
1760516437.1375728,-18.248358116011868,-0.39192049746843327,0.838444331483572,-0.18858385665702973,-8.620367002389996,8.354843197681893,7.790570799485103
1760516437.14772,-18.34011997684003,-0.3882333999676301,0.8552462168864705,-0.17546273572271226,-3.442923406061322,5.164479969295941,8.881413500239692
1760516437.1574373,-18.397192463578218,-0.3786851454143666,0.8735663507229696,-0.15261794298039164,2.217135548415702,1.4330168363495326,10.739719241248611
1760516437.1674309,-18.40424553386161,-0.3630975920456265,0.8920957796462364,-0.12397833432715757,7.851349579017831,-2.7165203838257614,13.120217241256825
1760516437.17745,-18.349574486302416,-0.34151055453208057,0.9097842559505888,-0.09356193853607865,13.023095821852612,-7.089171772899546,15.779307307792873
1760516437.1874378,-18.22552136049386,-0.31431178179605657,0.9258949152299781,-0.06501435865103691,17.397235859400087,-11.42684074467807,18.49257637974539
1760516437.1974351,-18.028614652330234,-0.2823210392638703,0.9400083063243361,-0.041249736659152436,20.75669813754366,-15.429585129152192,21.068451143674316
1760516437.2074401,-17.759448504500842,-0.24681250000406627,0.9519788954324435,-0.0242279634724634,23.006642756142213,-18.786522312521022,23.35779469340003
1760516437.2174428,-17.422341322432864,-0.20946542881444505,0.961855254219825,-0.01487870260065161,24.167453246027335,-21.2117376990353,25.25947195396942
1760516437.2274406,-17.02481390013717,-0.17223911139969325,0.969781313945226,-0.013161924409609114,24.358165264387953,-22.479858631949483,26.722020314361465
1760516437.237556,-16.57691803914041,-0.13718043465414675,0.9758982242313442,-0.01823840686368985,23.772382715491702,-22.456303667856798,27.74165995002437
1760516437.2475197,-16.090441854797717,-0.10618977141446583,0.9802655306779768,-0.02871250503629616,22.649314369024687,-21.118305068206777,28.356998834233778
1760516437.257436,-15.578020592058456,-0.08078310737563697,0.9828183865326384,-0.04290296869738769,21.24313326311749,-18.5640921373063,28.64093824894207
1760516437.267433,-15.05218827127691,-0.06189050252530625,0.9833734712684206,-0.05909663623976953,19.79418159274946,-15.00876174656294,28.69046583186553
1760516437.2774854,-14.524417013794448,-0.04972590524009805,0.9816867564372309,-0.07574731087588707,18.505362779500082,-10.766455287155834,28.615190061937923
1760516437.2874937,-14.004212275764296,-0.04375403997425504,0.9775506442972329,-0.09159938416990974,17.526193349994074,-6.219881535630874,28.525544176158427
1760516437.2975042,-13.498359708765008,-0.04276579341344572,0.9709031995732589,-0.10573781111435794,16.9455331462515,-1.7800485698922894,28.52154424372692
1760516437.3075066,-13.010435954049447,-0.04505405661803116,0.9619174119136356,-0.1175826237169378,16.792431261998193,2.159157080918775,28.682881047960784
1760516437.3174605,-12.540683829453279,-0.048662265748826684,0.9510456705267466,-0.12685056759768856,17.043324430940373,5.265745416539556,29.061018239179326
1760516437.327507,-12.086309507725943,-0.05166570202398107,0.9390085994385284,-0.13350147862518275,17.633240690031247,7.307671885272181,29.673867616995302
1760516437.3375351,-11.642197451806428,-0.0524446239753617,0.9267323731615035,-0.13768061368054157,18.468652604093016,8.178694344621993,30.503489892065108
1760516437.3474462,-11.201972687483883,-0.049914513046049325,0.9152506183875273,-0.13966483805777055,19.440025113468185,7.908031488388686,31.497095553443234
1760516437.357457,-10.759279516305652,-0.04368480750224082,0.9055922334163748,-0.13981914068338597,20.43271851723387,6.6519910057785925,32.57137573555914
1760516437.367638,-10.309099696825037,-0.034121805162489915,0.8986734267791945,-0.13856755569567283,21.33557072804514,4.668396261547028,33.61988001204694
1760516437.377666,-9.848913101587476,-0.02230088023018608,0.8952047151338443,-0.1363779417797709,22.04711196074715,2.2775141830333645,34.52281161757318
1760516437.3874671,-9.379519292977763,-0.00985211124901616,0.8956174257657994,-0.13375378683844172,22.479929413061612,-0.18416370502721746,35.15830462797872
1760516437.39745,-8.90538613901497,0.0012771410020841513,0.9000118836529051,-0.13122178226975495,22.564079349093838,-2.409343623192702,35.414078057173406
1760516437.4074736,-8.434456781955932,0.009110489507778171,0.9081299242346853,-0.1293065684231491,22.250403756025467,-4.15697601009871,35.198376314675706
1760516437.4175055,-7.977416656578975,0.01194842178834189,0.9193567499955295,-0.12849347038017614,21.514054881760675,-5.275718965494707,34.44924757213512
1760516437.4275033,-7.54649502706966,0.008655008326422806,0.9327610690225709,-0.1291879681063282,20.35773092469651,-5.711915339461177,33.14137122026396
1760516437.4375615,-7.1539502691872805,-0.0011191262529735692,0.94718460034716,-0.13168085603325175,18.813532687769413,-5.503114457678678,31.289764539805525
1760516437.4475045,-6.810458394314416,-0.01682675488594756,0.9613842892598393,-0.13612400402088615,16.942263861522747,-4.760127430316213,28.94982432781059
1760516437.4575272,-6.523673179521806,-0.03706877737153147,0.9742083435104751,-0.1425197353551409,14.829438849528563,-3.6416532835541906,26.213415831446753
1760516437.467516,-6.297227042783352,-0.05980789199843697,0.984762095822169,-0.15072701919927353,12.578035393912932,-2.3258983368601647,23.201196257681726
1760516437.4776974,-6.130373172157464,-0.08271875226199533,0.9925136536234007,-0.1604852421832085,10.298825888604377,-0.9834765097330822,20.051972001853255
1760516437.487705,-6.0183372887465145,-0.10359607167145352,0.9973106138752839,-0.1714501298699358,8.099670837465226,0.2447336843290017,16.910406976611306
1760516437.4974544,-5.953287784696669,-0.1207215463509318,0.9993136726419788,-0.18323118314462897,6.075347253887012,1.2621439969429509,13.914626142615749
1760516437.5074778,-5.925695853398877,-0.13310601285935403,0.9988804165671793,-0.19542092259294186,4.299334657513397,2.022158624667128,11.185159175010446
1760516437.5174613,-5.925790328271911,-0.14056755725206332,0.9964419382968008,-0.20761298007359433,2.8185725901058065,2.5252701381192666,8.81634778575934
1760516437.5275793,-5.944839619303457,-0.14365969889636868,0.9924068340142045,-0.21941333938911195,1.6516675254239774,2.809215924953985,6.870941488456455
1760516437.5375123,-5.976091611533114,-0.14350077976393968,0.9871098391552121,-0.23045162635437522,0.7905103237312674,2.934918658658782,5.378218078763521
1760516437.5475314,-6.015309794103967,-0.1415603988016656,0.9808047218796371,-0.24039609889203528,0.20482851950835212,2.9713581488387564,4.33557401298011
1760516437.5575836,-6.060912900158702,-0.1394399463741532,0.9736885163155844,-0.24897028006061006,-0.15118613531655992,2.9821704016514823,3.71309762983779
1760516437.567646,-6.113756746303784,-0.13866523541081155,0.965939770334225,-0.25596589437728573,-0.3313437953638743,3.0157972865008422,3.4602161649237533
1760516437.577702,-6.176616459025835,-0.1405022547313067,0.9577571697191611,-0.2612475980534806,-0.39029750319955164,3.0998474747885663,3.5132384378669315
1760516437.587474,-6.253447779171326,-0.14580715486535303,0.9493921086404561,-0.26474804480137304,-0.3778558393569756,3.23939894353643,3.802613647784666
1760516437.5974631,-6.348521358435152,-0.15492009950657995,0.9411737590998444,-0.2664551093469497,-0.33542231163013525,3.418454542328886,4.258985220559815
1760516437.607565,-6.465525212406866,-0.16760780849461687,0.9335253518796751,-0.2663957412356118,-0.29466974616063785,3.6036150398495606,4.817524732551523
1760516437.6175086,-6.606719081695358,-0.1830549776873903,0.9269671006554543,-0.26462225303671727,-0.2780791368254101,3.7491315878815743,5.420446722254462
1760516437.6276624,-6.772209599546786,-0.19990331470950704,0.9220984192784856,-0.2612063686675087,-0.300689734020665,3.802700818779712,6.017931289773506
1760516437.6374931,-6.959404848372417,-0.21633839015452583,0.9195536368147849,-0.25624419880607996,-0.3723698402300199,3.7115459646771827,6.567878118694895
1760516437.647714,-7.162703381024845,-0.23022662775406547,0.9199320800449053,-0.24987200411335772,-0.5000819192235717,3.428412590542308,7.034989559680122
1760516437.6575525,-7.373474197081289,-0.23930534257136302,0.9237120290535307,-0.242288940483605,-0.6898638940159116,2.91710107817818,7.389661001677089
1760516437.667479,-7.580384087518335,-0.241425291614988,0.9311639891323147,-0.23378014758285035,-0.9484508806333825,2.1571250247713385,7.607080017665315
1760516437.6774852,-7.770115051101652,-0.2348352577193541,0.9422795649457458,-0.22473277146714843,-1.2845428176033633,1.1470996325897636,7.666831345350652
1760516437.6874678,-7.92847544313703,-0.218482279339342,0.9567294176973469,-0.21563895071351388,-1.7096892073575878,-0.09344613418531848,7.553182763778432
1760516437.6976292,-8.041842742165027,-0.1922839959696122,0.9738600954644498,-0.20708201863186368,-2.238673066666229,-1.5240174385992364,7.256079848720259
1760516437.7075427,-8.098794705501325,-0.15731728892824617,0.9927355515083405,-0.19970348937028123,-2.889199779429372,-3.084957094504664,6.772702872613453
1760516437.7175112,-8.091708604228062,-0.11586505144948114,1.0122236422982722,-0.1941487085402885,-3.680675214317979,-4.701155740049991,6.1092620533274085
1760516437.7276654,-8.018057988383143,-0.07127495656295309,1.031120763883761,-0.19098993674225123,-4.6319061701550766,-6.287640751517159,5.282574935213812
1760516437.7376466,-7.881135820404787,-0.02761354086941587,1.0483005986910354,-0.19062868630930785,-5.757680108744655,-7.756804943821919,4.320916383930874
1760516437.7474697,-7.689998456157305,0.010855684842948,1.062866420396965,-0.19318509388797964,-7.064390300982656,-9.02666929990741,3.2636626462929565
1760516437.757484,-7.4585579749077,0.040288769951334194,1.0742804444206142,-0.19839099272403204,-8.545173520331122,-10.029135312953562,2.1593657009970735
1760516437.767537,-7.203926381629763,0.05784912076807513,1.0824404235553096,-0.20551296592890486,-10.175397548822753,-10.716847550234261,1.0621055366722745
1760516437.7774963,-6.94428347515476,0.062134861065157844,1.0876780199388636,-0.2133361958290825,-11.90970054371828,-11.067279163333312,0.026280089736627706
1760516437.7874935,-6.696645009959489,0.053351752630903235,1.0906694878895558,-0.22023315865844054,-13.6820027492997,-11.08312445313404,-0.8996349550493258
1760516437.7975273,-6.474920268844425,0.03320748957049426,1.0922746989303944,-0.2243227246098387,-15.409790809990668,-10.788962778510069,-1.6794911213233459
1760516437.8075788,-6.288574781761173,0.004574197964550348,1.0933445764284044,-0.2237020397379125,-17.003362696137717,-10.22514428877387,-2.295010682822516
1760516437.8176162,-6.1420793515749645,-0.02898563585109315,1.0945455443885639,-0.21671504461762323,-18.379636101409744,-9.440571581405218,-2.7495421165169573
1760516437.827478,-6.035162052439936,-0.06371664927986671,1.096237934519085,-0.20221295899912572,-19.478815376615735,-8.486248422376981,-3.0694306833937586
1760516437.837606,-5.963725866897057,-0.09609108638775476,1.0984236388554391,-0.17976294148608132,-20.2810782359459,-7.4110483185478815,-3.302841212614371
1760516437.8475847,-5.921192603226282,-0.12309079125035796,1.1007613989033938,-0.14976806195888426,-20.819856933021086,-6.260227451393894,-3.516274784554692
1760516437.8579464,-5.900001647256658,-0.14233915631421656,1.1026405248486848,-0.11347287647694097,-21.18845866733731,-5.076051411782739,-3.7893160723965167
1760516437.867468,-5.893015487895029,-0.1521121458269399,1.1032988934563892,-0.07284467023904596,-21.537686023793842,-3.898904700441183,-4.208307578421674
1760516437.8774636,-5.8946387006968255,-0.15128007791991255,1.1019636093962273,-0.03034053823321135,-22.06357705444969,-2.766782025085794,-4.859675564065351
1760516437.8874655,-5.901531362994337,-0.13924048694999844,1.0979869666761184,0.011408114079984396,-22.986084617441804,-1.7113908363683399,-5.823546399765255
1760516437.8974843,-5.912885826754919,-0.11589983330022237,1.090952880430018,0.04994438245819916,-24.521151921056536,-0.7502630937677937,-7.168119936605934
1760516437.9075718,-5.93032157995229,-0.08174386172987255,1.0807386849969214,0.08331024082404875,-26.849941147882674,0.12401587192138679,-8.945063171539653
1760516437.9175467,-5.957513032683605,-0.038001534649836015,1.0675274432472461,0.11029290494707664,-30.0896948082988,0.9546923705407523,-11.186032782058996
1760516437.9275935,-5.999685148215235,0.013135264216230486,1.051773430788182,0.1305548852808124,-34.2706960511879,1.8281123238299752,-13.900389965784262
1760516437.937472,-6.063095977603509,0.06830985987851071,1.034129843492044,0.1446300697559561,-39.32302145840815,2.873778867225996,-17.074209152891704
1760516437.9474795,-6.154587875893712,0.12290874156304783,1.0153538976330705,0.15378852506731658,-45.075370568643464,4.254838523950948,-20.670686245349216
1760516437.9575195,-6.281242858225452,0.17116981674875426,0.9962080587716029,0.1597897494834624,-51.266462540825806,6.1486486017076825,-24.631925108558217
1760516437.9674692,-6.450129056755183,0.20656094725704796,0.9773742417708112,0.16455762197187773,-57.56766293866024,8.71942013239816,-28.88185849366906
1760516437.9774938,-6.6680825641950605,0.2224562852480888,0.9593911163680806,0.1698225388223813,-63.613995770168735,12.087107385472962,-33.32988156167781
1760516437.9875062,-6.941447083904444,0.21306718054903748,0.9426193316110281,0.17678899442106488,-69.03972813579671,16.298244985231253,-37.8747743904419
1760516437.9974964,-7.275707720227617,0.17449204015782102,0.9272410048202425,0.18589606688903187,-73.51431821305465,21.304799812199246,-42.40870257941724
1760516438.0074918,-7.6750042304306385,0.1056700202730892,0.9133027602929552,0.19673346791868832,-76.77459695907368,26.955782612377483,-46.821394901898564
1760516438.0178235,-8.1415715785639,0.009003483890573798,0.900803788776713,0.20814822394091204,-78.6495327683772,33.00338287949347,-51.004747939566414
1760516438.0277538,-8.675203089898375,-0.10952738073878751,0.8898099644949294,0.21852857393295522,-79.07481866859874,39.12197719183814,-54.857907152610565
1760516438.037499,-9.272847565005454,-0.24082593350968637,0.8805532665086568,0.22619717589291774,-78.09578106114603,44.936277318177225,-58.292403332571496
1760516438.0474863,-9.928439078221615,-0.37367705026327663,0.8734648827753415,0.2298088009081147,-75.85850261640546,50.054777201739206,-61.23648538824758
1760516438.057489,-10.633028182277338,-0.49616251122518606,0.869100447316744,0.22864900753570147,-72.59030451895927,54.10570768820407,-63.637670204678805
1760516438.0677607,-11.375240797902514,-0.5973056160587389,0.867954407493905,0.22277071073233046,-68.5717824341073,56.77372250018206,-65.46285700549154
1760516438.0777752,-12.142034717090743,-0.6686769244116029,0.870219185419113,0.21296133011886287,-64.10360176666916,57.83540141109112,-66.69611680172453
1760516438.0874999,-12.9196611902575,-0.7056323641755657,0.8755893842354195,0.2005744325648275,-59.4723188300688,57.18961908447339,-67.33525675733544
1760516438.0974853,-13.694693405047943,-0.7078868006656398,0.8832020213692542,0.1872757212078662,-54.920234559377356,54.8761041484588,-67.38891154087432
1760516438.107483,-14.454975170051513,-0.679287694678676,0.891738821876233,0.174756184171825,-50.62399827349677,51.07535165754815,-66.87557718893036
1760516438.1175478,-15.190370928443581,-0.6268841525921023,0.8996443206852005,0.16446772489064787,-46.68503504854041,46.08721140223511,-65.82469393325657
1760516438.1278176,-15.893244568548685,-0.5595663687930233,0.9053824462028559,0.15743306207614843,-43.13233709012641,40.29178938869712,-64.27853069046567
1760516438.1375523,-16.558643154104356,-0.48660527006567056,0.9076663151794903,0.15416155712104032,-39.935601641234285,34.10108892285728,-62.29323022082827
1760516438.1474853,-17.18420654647682,-0.416371620489661,0.9056236255434121,0.15467103460162912,-37.02486071174549,27.911263638026195,-59.938076552793156
1760516438.1575449,-17.76986219856589,-0.35541739511791437,0.8988838563788373,0.15858873178319755,-34.312051951335924,22.063809232886356,-57.29311321441472
1760516438.1674728,-18.317389472187056,-0.3079989617995213,0.8875889007625604,0.16529202272488133,-31.71042948926974,16.820669117977552,-54.445840419389796
1760516438.177483,-18.82994194381273,-0.2760273992198985,0.8723371492840704,0.17405051989928427,-29.148947439449945,12.354366900355412,-51.487600190888536
1760516438.1875696,-19.31159873706123,-0.2593586412216566,0.8540758987913326,0.18414077729898584,-26.580303700624235,8.751055424006877,-48.509801035271714
1760516438.1976073,-19.76698589492009,-0.25629694888154186,0.833961406387116,0.19491918459757543,-23.982842668410743,6.022490260080595,-45.59987241205146
1760516438.2074869,-20.200978363750966,-0.26418112289882123,0.8132094565518431,0.20585331609934787,-21.357705847136547,4.12250820969017,-42.83695371393722
1760516438.2175026,-20.618470323403056,-0.2799437106594929,0.7929587854267506,0.21652156859601152,-18.723264290192986,2.96428667955349,-40.28757571829796
1760516438.2278924,-21.02418928867931,-0.30056708507416385,0.7741641476855898,0.22659321820695616,-16.10886764740654,2.4359504500403366,-38.001718298082544
1760516438.2377067,-21.422529000818937,-0.32339908097378084,0.7575282336307687,0.23579927829326708,-13.549404851865512,2.413463527276958,-36.00963965175567
1760516438.2475166,-21.81738790897848,-0.3463281802348037,0.743475195414244,0.24390313330399715,-11.08135165025905,2.7708123040509722,-34.319918251468685
1760516438.2575312,-22.212019274881612,-0.3678447129946877,0.7321632277845315,0.250679723064894,-8.740192852120368,3.388046678221978,-32.919216210666214
1760516438.2675369,-22.608914747904844,-0.38702311517817756,0.7235279154535568,0.25591062908622575,-6.5586243795137005,4.1577857647219245,-31.774174250875017
1760516438.2774687,-23.009745406477244,-0.4034536137486553,0.7173423039768614,0.25939760296172,-4.564881193969738,4.990470680160864,-30.835462476081982
1760516438.2874932,-23.415371639705178,-0.4171409818922118,0.713277017379554,0.2609899897732592,-2.7807974309086223,5.818211039265499,-30.043455682229467
1760516438.2975535,-23.82591433458574,-0.4283828194889813,0.7109470996572516,0.2606158096665968,-1.219560522711225,6.596786604382879,-29.33455573660463
1760516438.3075004,-24.240865668767913,-0.4376415833648323,0.7099408964526495,0.2583045166764448,0.11658234337108908,7.305400741244559,-28.647061559826273
1760516438.317549,-24.659215539638225,-0.4454291467054638,0.7098361692987929,0.25419164064949124,1.238213439044201,7.9441163366492695,-27.92571370317199
1760516438.3275037,-25.079579461290045,-0.45222449269884,0.7102150008292951,0.24850103180482425,2.1697133156057586,8.529336826127201,-27.12449669188111
1760516438.3374977,-25.5003282114645,-0.45843942119461323,0.710688773730146,0.24150839583502737,2.9488817426724636,9.087997655872792,-26.207793115463083
1760516438.3474824,-25.919728027597156,-0.4644333513336494,0.7109377899713296,0.23349712091029168,3.624985045851458,9.651208180953331,-25.15036714104273
1760516438.357488,-26.336097180906133,-0.47056258824279745,0.7107608359775213,0.2247197084837307,4.255249874049854,10.247985680413905,-23.9367908977799
1760516438.367511,-26.74797308517062,-0.47723964468427016,0.710123247586327,0.2153740561639384,4.900090678845614,10.899565304688133,-22.560832200194415
1760516438.3775036,-27.15427020383501,-0.4849768094123558,0.7091901647074115,0.20559695686868218,5.617633451916689,11.614615095410192,-21.02513147648628
1760516438.3875952,-27.55439791864312,-0.49439218639431715,0.7083329215614363,0.1954728256841729,6.458291515108657,12.385523185247267,-19.34132651733374
1760516438.3974957,-27.948302862887502,-0.5061633394510446,0.708097787019848,0.18505539066507717,7.460143675672979,13.18574590242688,-17.530626071401276
1760516438.4074912,-28.33640652776758,-0.5209244718282193,0.7091278599625297,0.1743998569557072,8.645663268692294,13.968077363142106,-15.624601467292965
1760516438.4175503,-28.719429506417377,-0.5391189044397825,0.7120354046526332,0.16359879115843823,10.02008845250826,14.66373556323932,-13.66564550485405
1760516438.4275365,-29.09812383340677,-0.5608354013205191,0.7172368619390699,0.1528087186507807,11.571535038222716,15.182406708465145,-11.706265241472279
1760516438.4375808,-29.472959636876332,-0.5856661146587875,0.7247828316453845,0.14225263922508335,13.272832754575417,15.413768909127928,-9.806313333343189
1760516438.4475589,-29.843816607512974,-0.6126203236418116,0.7342299222436893,0.13219020325241873,15.084944833645078,15.231348174286296,-8.027539435426895
1760516438.4574993,-30.209713739943638,-0.6401153289897102,0.744599777615407,0.12285968939172301,16.961681598613758,14.499641228283249,-6.425452851273262
1760516438.467654,-30.568588726120506,-0.6660527918939122,0.7544514465644777,0.11440771828582279,18.8552866731052,13.085127901034614,-5.039298049818897
1760516438.4782536,-30.91713032874863,-0.6879803876033426,0.7620665259528339,0.10682848229028002,20.722429078058635,10.871075488791949,-3.881722563455214
1760516438.4875033,-31.250677015151823,-0.703330980606224,0.765724157010851,0.09993332795674092,22.530193051785474,7.775052435108245,-2.9301945288595603
1760516438.497631,-31.563209599034764,-0.7097181973262028,0.7640291932673,0.09336597943943437,24.26173591985702,3.7670947139701454,-2.1222071357512777
1760516438.507523,-31.847467955320262,-0.7052501993972048,0.7562492183234935,0.08666986304398444,25.92125580135516,-1.1141852539232642,-1.3557460839285003
1760516438.5176163,-32.09520623505541,-0.6888137661234599,0.7426126687925806,0.07940219968502203,27.53775003822637,-6.750395493539874,-0.4955259919250206
1760516438.527546,-32.29757365514784,-0.6602860330381195,0.7245215911324067,0.0712772905859093,29.16686729496149,-12.939545394424975,0.615606458788933
1760516438.5379393,-32.445580396868095,-0.6206461764432453,0.7046379703939412,0.06231321767041281,30.890077700410917,-19.401352884655466,2.141635167383082
1760516438.547607,-32.530591368941494,-0.5719736889595178,0.6868103461700128,0.05295441008138721,32.81041731887608,-25.792457937251918,4.2367579891837694
1760516438.5576458,-32.54479060305761,-0.5173297061446532,0.6758179031759807,0.0441461156129565,35.0441746750617,-31.731216716647808,7.029296533176709
1760516438.567693,-32.481573983250314,-0.46052515818833983,0.6769253447404319,0.03734327743256229,37.70809055086196,-36.83056045701746,10.607891141033706
1760516438.5776217,-32.335849926884904,-0.40578709120408246,0.6952666914035202,0.0344429781331445,40.90199562462883,-40.736176364040624,15.011125754682535
1760516438.587897,-32.10424825498402,-0.35734461150172325,0.7351099896512203,0.03763426511151079,44.687425568883825,-43.16604024747324,20.220993740157216
1760516438.5976076,-31.785252597867988,-0.3189697618384142,0.7990913078996061,0.04916233838004781,49.06379375271586,-43.946214423089664,26.15994012264375
1760516438.6074934,-31.379281686338885,-0.29352380851801935,0.8875308050959876,0.07101022999582839,53.945184929501,-43.037112384225466,32.690796538227055
1760516438.617582,-30.88875129559315,-0.2825687932455776,0.9979439603722089,0.10451541630241679,59.142347000203216,-40.544558095462236,39.61892541842939
1760516438.627592,-30.318148596845766,-0.2861008003617476,1.1248420526811242,0.14996210255573314,64.35525760328123,-36.711346565713846,46.69637278028446
1760516438.6374922,-29.674137278341195,-0.30244745637427006,1.2598936796658071,0.20621680818109314,69.18116635821772,-31.887839010658546,53.62867046555407
1760516438.647701,-28.965683052311082,-0.328359961744722,1.3924978761802187,0.2704953833581682,73.14119739291752,-26.484203864065357,60.08575062961586
1760516438.6577249,-28.204154645658498,-0.35932623803532243,1.5107854786699022,0.3383520213221076,75.7256894467713,-20.911579150314097,65.71872281298606
1760516438.6674979,-27.40332997219218,-0.390122350187021,1.6030033746029337,0.40395534483848555,76.45480955549277,-15.523485111312626,70.18363860056492
1760516438.6774967,-26.57923007493733,-0.4155771018020537,1.6591415271370673,0.4606594015313696,74.94716934655902,-10.57048701138112,73.1717754807393
1760516438.6875973,-25.74971584140825,-0.4314411909751916,1.6725445930962357,0.5017991881197542,70.98607420818517,-6.17862249905555,74.4437082763139
1760516438.6975162,-24.933812754015094,-0.4351649817019993,1.6411504320438093,0.5215757206959015,64.57161271709025,-2.3553041541734214,73.8621719628184
1760516438.7075627,-24.150773286996706,-0.4263660433282083,1.5680024460109423,0.5158837796452017,55.947736457390505,0.9818988772072791,71.41743855365749
1760516438.7175076,-23.41893538260232,-0.4068453204123923,1.4608525642482284,0.4829714072596623,45.59691677807604,3.9635846329495417,67.2394796586253
1760516438.727521,-22.754475586584043,-0.3801489876661182,1.330943002477242,0.42385189528371925,34.20035837577527,6.724252972293684,61.59356052762852
1760516438.7375128,-22.170179461207994,-0.35079637006966324,1.1912752798984498,0.342389059876147,22.567984851338718,9.362977700201998,54.85914757628488
1760516438.7475271,-21.674361355516638,-0.3233630549796778,1.054753709690896,0.24498463915642626,11.548077265686013,11.913927972990548,47.494972444385255
1760516438.7576432,-21.27006346266857,-0.30162337695147473,0.9325496958651873,0.13985939935527664,1.930257740335967,14.330286495678818,39.995182981385014
1760516438.7675183,-20.95464803295803,-0.2879243968066969,0.8329300670595481,0.03602206312380415,-5.643326322002482,16.484005298387636,32.8426008953602
1760516438.777555,-20.719862424605527,-0.2828931494248679,0.7606659413899478,-0.05789504359664788,-10.745407978067782,18.18199637322852,26.465195804648687
1760516438.787521,-20.55240480349425,-0.2854930288375421,0.7170157577938597,-0.13472513983187465,-13.200436090277034,19.196730274607575,21.201018103564063
1760516438.7975256,-20.434953809419575,-0.2933693492817558,0.7001810497797426,-0.1895959947688134,-13.0872647788614,19.306436979232714,17.27519163165395
1760516438.807511,-20.347556520149194,-0.30337330833333664,0.7060785200370123,-0.22037356974301808,-10.710018694026985,18.33801174125413,14.790511972808112
1760516438.8175085,-20.269211603017204,-0.31213636440876974,0.7292550959587548,-0.2276762390894304,-6.544343978677178,16.205000607006504,13.731167592040736
1760516438.8275988,-20.179460784266276,-0.31658642044515994,0.76378592117434,-0.21450112029102128,-1.1691811230106255,12.933883320010798,13.977464773457793
1760516438.8376148,-20.05982041791762,-0.31433958160961334,0.8040314004581968,-0.18557200455706982,4.80509209042908,8.673993747013181,15.32840303798526
1760516438.8477364,-19.89493058448996,-0.303942223191828,0.8451796975632673,-0.1465514235764157,10.802449190558201,3.6892864736470643,17.528558105558695
1760516438.857668,-19.673351736847174,-0.28496585703561694,0.8835525181768934,-0.10325500132774802,16.333625966444323,-1.6667598799001244,20.295878415374847
1760516438.8676689,-19.387991026279394,-0.2579754725927496,0.916693231671883,-0.06097577532215273,21.030845757896977,-6.989044695252852,23.3475175932952
1760516438.8776402,-19.036186520171334,-0.22440190259114737,0.9432832748402209,-0.02398576189276134,24.663638167424004,-11.865579999900921,26.42156763856755
1760516438.8878627,-18.619505839266974,-0.18634788522380938,0.9629455260919768,0.004756082209929192,27.13725949126324,-15.922372607981917,29.293409612651725
1760516438.8975036,-18.143321438788433,-0.14635106511384338,0.9759932993017946,0.023691150917544507,28.47721472106145,-18.86225908588279,31.786227401656664
1760516438.907578,-17.616215313586352,-0.1071229973903703,0.9831747798790166,0.03256893591631996,28.804413175959805,-20.492952141404942,33.775918208574524
1760516438.9175768,-17.049250882099834,-0.07128202918823369,0.9854503078142729,0.03221776353071994,28.305598884405732,-20.74163890119413,35.19113165880158
1760516438.9275343,-16.45513708802752,-0.041098338408557755,0.9838259946435922,0.024231876953000366,27.203130025937718,-19.65576762339101,36.00948331671469
1760516438.937642,-15.847307606777916,-0.018271719389833335,0.9792517485151256,0.01063141600064072,25.727245889168476,-17.391701533347987,36.25112174207203
1760516438.947831,-15.238949819079913,-0.003764187433055913,0.9725774165865737,-0.006453307326076963,24.092902631632434,-14.194282262983736,35.97076335590839
1760516438.9575193,-14.642038318661614,0.00229353454456983,0.9645519394908665,-0.025034820060442633,22.482265407570214,-10.370787859532705,35.2490617031943
1760516438.9675372,-14.066446778453408,0.0006091337902408038,0.9558485313082288,-0.043438938405070994,21.033174702896,-6.262393824661209,34.183851889894314
1760516438.9776456,-13.519222821437094,-0.007355563881082843,0.9471008147234213,-0.060393177574147104,19.833432681787492,-2.21549086380235,32.88155536296865
1760516438.987529,-13.004109916342317,-0.01955719568808418,0.9389366589579944,-0.07505034640687316,18.920485903583643,1.445457204592966,31.44892819316452
1760516438.9975119,-12.521387969249583,-0.033619262696457,0.9319970650760707,-0.08697100296846713,18.285849217636297,4.442230967573176,29.985369454138908
1760516439.0075207,-12.06807977985918,-0.04713176143550213,0.9269285305726215,-0.09608236956219365,17.88336208059416,6.563228678123298,28.576106320459893
1760516439.0175312,-11.638532992252388,-0.05796443382401172,0.9243413730104245,-0.10262013955078748,17.640146287054417,7.678780726873434,27.286667355741496
1760516439.0275264,-11.225338909945984,-0.06454793286230824,0.9247350379494649,-0.10705419998467874,17.46900408678054,7.750245387864189,26.159084418225834
1760516439.0375278,-10.820497158865026,-0.06607895332356911,0.9284036996462837,-0.11000223925397191,17.28097699590836,6.831826862744285,25.21018594039799
1760516439.0475438,-10.416687657629849,-0.06261624655295112,0.9353470712453128,-0.11214068161457799,16.996864540123802,5.064473584059717,24.43215634309961
1760516439.05761,-10.00847895087679,-0.05505073413949502,0.9452156891769666,-0.11412480872979301,16.556647591413466,2.661928979514473,23.795285941433033
1760516439.067625,-9.593294114245285,-0.044951314158567714,0.957313232693416,-0.11652827422304075,15.925944575116919,-0.11015448580326506,23.252602444845568
1760516439.077558,-9.17197807268861,-0.03430654094877733,0.9706630134266091,-0.11980806481397177,15.09884835793626,-2.9603234850318625,22.745912066896288
1760516439.0875363,-8.748865333769343,-0.02520097406066748,0.9841280647960686,-0.12429529028168258,14.096788637053555,-5.600241133833406,22.212679721335988
1760516439.097599,-8.331330677875576,-0.01948186559406876,0.9965606729095638,-0.13020522533909243,12.963519452745157,-7.773426865895829,21.593113464814607
1760516439.1075308,-7.928900239876579,-0.018479326216774963,1.0069517487885857,-0.13765415584230553,11.756992259781928,-9.2804305250219,20.836783901123948
1760516439.1176503,-7.552077173955783,-0.02283163923869945,1.014553743839935,-0.14667033138823066,10.53961694542414,-9.997026106244773,19.908135476149752
1760516439.1275344,-7.211069496648607,-0.0324375625196822,1.018959736623802,-0.1571931512503775,9.3688812392832,-9.882734211307183,18.790364575275593
1760516439.1375124,-6.914595629879497,-0.04652425989838675,1.0201309302137702,-0.16906380489253112,8.290139348568234,-8.978621725026162,17.487337185141673
1760516439.1475122,-6.668904692582181,-0.06379926055413854,1.018371522511435,-0.18201539893713478,7.332607984754747,-7.395423261255021,16.023439770512105
1760516439.15776,-6.477103906891405,-0.08265033731152513,1.0142539579198337,-0.19566960407220552,6.508634755682923,-5.294733352148956,14.441450362961628
1760516439.1675107,-6.338843265441622,-0.10136068281504475,1.008503258003795,-0.20954406410734688,5.81556685055103,-2.8667807892218287,12.798675543161023
1760516439.1775253,-6.2503705057847165,-0.11831321191330693,1.0018604790329624,-0.22307411391128493,5.239215380640744,-0.3081478442869833,11.16173561402535
1760516439.1875496,-6.204940295498787,-0.13216697935081395,0.9949580665298629,-0.23565290103245504,4.757926680430373,2.197919630324698,9.600496644832754
1760516439.1976058,-6.1935378426153065,-0.14199701850194205,0.9882413166433455,-0.24669161092824213,4.346507140541334,4.496894953822896,8.181741645003084
1760516439.2075295,-6.20584959906118,-0.14739057758724983,0.9819530674682271,-0.2556940672022357,3.9795660859874387,6.473207075285441,6.963239975960028
1760516439.2175193,-6.231379860382424,-0.14848965787048055,0.9761722326425329,-0.2623308046904663,3.63411931859593,8.05517156948995,5.988886757922214
1760516439.227526,-6.260583696619071,-0.14597034061857522,0.9708784714197659,-0.2664930403606363,3.2914570969427728,9.214931157562106,5.28548886066924
1760516439.237575,-6.285877114650507,-0.14095691782003758,0.9660148892730558,-0.26831052704922975,2.938317255175942,9.964064867627945,4.861539968963478
1760516439.2476199,-6.3023969970672225,-0.13487886216253414,0.9615336740801669,-0.26812719985998196,2.5673715126405083,10.34580373648686,4.707998116898737
1760516439.2575169,-6.308410299745041,-0.12928612192031488,0.9574242489288053,-0.2664394072071395,2.177007363783833,10.425010436283786,4.800755015673439
1760516439.267694,-6.30530805516714,-0.1256417817387281,0.9537312080384266,-0.2638091089227743,1.770421228968288,10.277212507971242,5.104250095210593
1760516439.2775252,-6.29716230766403,-0.12511244559383383,0.9505684397058306,-0.26076789987617655,1.3541321461687537,9.97799546204608,5.575562282835399
1760516439.287521,-6.28987379039133,-0.12837809665773667,0.9481296291772535,-0.25772816217480027,0.93613492517469,9.593944254443064,6.168306797916246
1760516439.2975087,-6.289994370031678,-0.13548512804844862,0.9466887734697434,-0.25491604271058804,0.5239778814432259,9.176068680632067,6.835766079593483
1760516439.307728,-6.30336418175665,-0.14576657631486833,0.9465822406051537,-0.2523379049482866,0.12303463766671645,8.75628533979982,7.532884435859237
1760516439.3175924,-6.3337469927319825,-0.1578499761576914,0.948168211192818,-0.2497877609643336,-0.26485298203791896,8.34710597432822,8.217030496564531
1760516439.3275547,-6.381668374230961,-0.1697654124155035,0.9517673142549108,-0.24689754721989693,-0.6423060259375251,7.944262339903042,8.847730067359556
1760516439.3375268,-6.443654809559346,-0.17915522416396837,0.9575946154547804,-0.24322429072715862,-1.0169470326717038,7.53164113704478,9.38582848363082
1760516439.3475332,-6.512036824647105,-0.18357315156183002,0.965694794537475,-0.23835916680202454,-1.4015944866971433,7.087649322979046,9.792696225071646
1760516439.3575377,-6.575416738942785,-0.18084544632393773,0.9758908692683925,-0.23203643359394976,-1.8141106606934418,6.591990379779237,10.030106255303085
1760516439.367656,-6.619814912570777,-0.169451181586919,0.9877555265859559,-0.22421868093740177,-2.276835049575035,6.031787769006152,10.061275293725684
1760516439.3776295,-6.630403314528482,-0.1488658257436872,1.0006142225705656,-0.21513958289549895,-2.8155140834077126,5.406018933003362,9.853290508824108
1760516439.3875222,-6.593623744602976,-0.11980458466168027,1.0135887814228843,-0.20529408668285654,-3.4576862206675187,4.727323176809249,9.380777619780602
1760516439.3975246,-6.499391668884684,-0.08430509476432742,1.0256858532868507,-0.19537513305283077,-4.230578649867707,4.020465251334629,8.630266092755381
1760516439.4075444,-6.343032564917581,-0.04560641739059785,1.0359244063704431,-0.18616319570452203,-5.158667079303442,3.3171592721053638,7.604354998629037
1760516439.4176028,-6.126606584679555,-0.007812052911144221,1.0434828364083804,-0.17838037721400635,-6.261098256521852,2.6476673552678176,6.324579571475356
1760516439.4275365,-5.859354381998605,0.024636121331976776,1.047835115660197,-0.17252688159079224,-7.549168679334774,2.030565015214387,4.831915459705044
1760516439.4375422,-5.55713134790147,0.04760586093523354,1.0488418098789554,-0.16872627762456036,-9.024042296260095,1.4630810223091724,3.184180086881762
1760516439.4476223,-5.2408654612408485,0.05794538585008073,1.0467678327989105,-0.16661479105662197,-10.674965570796132,0.9150350613873645,1.4501625237191638
1760516439.4575436,-4.934243829317328,0.054062784961459526,1.0422142147142304,-0.16531155835368386,-12.478446165136454,0.3291687877166565,-0.29898961489238596
1760516439.4676747,-4.660972364081806,0.036306245899835846,1.0359734252911128,-0.1634942334226126,-14.399092590846656,-0.3705649520670954,-1.9999514422867268
1760516439.4777393,-4.442031477970892,0.00706662470908617,1.028840621479381,-0.159578502534615,-16.39281771509412,-1.2631681611987322,-3.6073634000223804
1760516439.4875486,-4.293343865911297,-0.02942803931293677,1.0214276234051531,-0.1519711101464148,-18.41269212080621,-2.409787218730938,-5.102216559066213
1760516439.497538,-4.224177787243341,-0.06760354304678748,1.0140269652706237,-0.13934593408458848,-20.41693313409426,-3.83215583095337,-6.497007404975833
1760516439.5075643,-4.236466083074829,-0.10125384962547417,1.006562116753169,-0.1208873565243984,-22.377601281515997,-5.495170497907896,-7.83674591108656
1760516439.517604,-4.325075807596655,-0.12439428609074574,0.9986414715507261,-0.0964532536174616,-24.28790333413956,-7.297943320728412,-9.195625166093283
1760516439.5275466,-4.478941135713391,-0.13215303889414173,0.9897097943475549,-0.06662705766618277,-26.165868711439465,-9.076147397052907,-10.66985159220228
1760516439.5376098,-4.682873977679558,-0.12158479394632979,0.9792657483580748,-0.0326506942554563,-28.052706778219402,-10.61633875429293,-12.36762825001142
1760516439.5475364,-4.919794356782215,-0.09228580764336144,0.9670976871663439,0.003746218258442978,-30.005271220721944,-11.6806674696846,-14.39751410076743
1760516439.5575283,-5.173086135722054,-0.046705495256333475,0.9534878278468508,0.04058576486027546,-32.08347342491689,-12.038432465047181,-16.856378261304172
1760516439.5675416,-5.428786862856676,0.009918545721842436,0.939342323305925,0.07590311272489039,-34.33484136970822,-11.499634152695622,-19.81801927923065
1760516439.5775385,-5.677355640149852,0.07003409818786283,0.9262143025521667,0.1079820658912709,-36.77936000878328,-9.945183870985788,-23.32332587019105
1760516439.587554,-5.914820429979675,0.12463661137664038,0.9161973777784753,0.13552552432756856,-39.3979757987733,-7.348719355758834,-27.37268813232853
1760516439.5975256,-6.143180498335903,0.16443525665642397,0.9116803612821558,0.15773718407922704,-42.12759586081183,-3.7859910804196955,-31.921261165716437
1760516439.6076667,-6.3700253780452165,0.18116958240822995,0.9149713107558112,0.17430985886067563,-44.86417474694643,0.5704729409287278,-36.877641223555806
1760516439.617542,-6.607420544165268,0.16887640623001696,0.9278243588657471,0.18533558818178364,-47.473839535931276,5.471224336316256,-42.106486444816376
1760516439.627605,-6.870194268137733,0.12490203038198638,0.9509421706655791,0.19117110215107075,-49.81031899604947,10.621077474820249,-47.43547410450447
1760516439.6375477,-7.173838128581908,0.05049015316765496,0.9835760401174033,0.1923050694388206,-51.735599669219646,15.715734854048945,-52.66662547410304
1760516439.6475368,-7.532303973156704,-0.049171032894274,1.023374908296678,0.1892740818962921,-53.14005893749729,20.47670695218825,-57.59147242372313
1760516439.6575463,-7.956024548125191,-0.16549766796922072,1.0665988238254127,0.18265597204855338,-53.958471532969504,24.67812921537791,-62.00891216689389
1760516439.667533,-8.450468673548766,-0.28762589727344023,1.108698822410737,0.17313238491901,-54.17914391563033,28.161509896667315,-65.74400593741291
1760516439.6775448,-9.015445881846533,-0.40394383313466203,1.1451252957168847,0.16157310569478053,-53.84469514481057,30.837743550961296,-68.66548139681869
1760516439.6875317,-9.645223335592943,-0.5037543898022342,1.1721361494046851,0.14907751612247985,-53.04437602099895,32.67903146967541,-70.69936731341116
1760516439.6975615,-10.32936109928213,-0.5787178070247214,1.1873777877518392,0.13692707658308373,-51.89917676950874,33.70568494498538,-71.83618323718457
1760516439.7075324,-11.054056889884258,-0.623800286128432,1.1901047639177729,0.12644612078031456,-50.54226145537259,33.973241262452675,-72.12968079806032
1760516439.7175298,-11.803738745695737,-0.6376293961849189,1.1810404050813266,0.1188112824424328,-49.09829661989401,33.563625679279916,-71.6864799579408
1760516439.727535,-12.56264760912049,-0.622300120742647,1.1619866867582875,0.11487049376046697,-47.665707958871316,32.58093435404386,-70.64791229451397
1760516439.7375915,-13.316195137280786,-0.5827417941250959,1.1353271161985103,0.11502414245218485,-46.30548843532729,31.149378618712547,-69.16733597975833
1760516439.747524,-14.0519520078835,-0.5257934219002152,1.103548946553715,0.1191945216019309,-45.038708056578685,29.409795172054498,-67.38731982809881
1760516439.7575302,-14.76020641601795,-0.45916299000037736,1.0688724138274865,0.12688136989446788,-43.85260002361834,27.51239259631744,-65.42101579401682
1760516439.7675264,-15.434114880309869,-0.39044074337889795,1.0330309235429003,0.13727921547720265,-42.712831451406736,25.605765447309476,-63.34094188144625
1760516439.7775652,-16.06953167830415,-0.32629437881040685,0.9972052743502869,0.14941870743012906,-41.578181222331544,23.823985263337867,-61.17673284431248
1760516439.787572,-16.664640238650712,-0.2719206136803302,0.9620838513234992,0.16229314475036621,-40.41371499059638,22.274181677791894,-58.92163117291888
1760516439.7976227,-17.219518548054108,-0.23078005341010369,0.9280028232537579,0.1749447368122679,-39.19947597765197,21.02680022677386,-56.545956541829355
1760516439.8075364,-17.735753824652477,-0.20460120984345884,0.8951152386703467,0.18650613483112474,-37.933230716453295,20.11013858277286,-54.01471328868502
1760516439.817542,-18.216183070579465,-0.19360130644486848,0.8635424071824827,0.19621101340790797,-36.62745107192598,19.51007166450966,-51.305897666224055
1760516439.8277256,-18.66478185841791,-0.19684026173581948,0.8334728984204843,0.20339635371635983,-35.30209596170437,19.175140348072947,-48.42595767141101
1760516439.8376904,-19.086665355941626,-0.21261161724042227,0.8051933925943761,0.20751727380626012,-33.97558210280088,19.026396193633694,-45.41931386578067
1760516439.84765,-19.488118489690745,-0.23878740201576107,0.7790577334462744,0.20818495124298694,-32.656477527475886,18.970643104119123,-42.36987936445415
1760516439.8575802,-19.876549850571774,-0.2730673610894751,0.755417741823936,0.20522421700433816,-31.338011386221346,18.9151770354743,-39.39397114977963
1760516439.8675911,-20.260273492989654,-0.3131228612303584,0.7345458104153662,0.19873567403543926,-29.996662273170447,18.78193484772298,-36.62565649501183
1760516439.8777595,-20.648062686416807,-0.35665872836427004,0.7165751488835601,0.1891415246028337,-28.59506547455133,18.51911765323687,-34.197148728143816
1760516439.8875852,-21.048479735569572,-0.40143338536293055,0.7014721766629924,0.17719509693037197,-27.088498217649743,18.10877487510477,-32.21795455780045
1760516439.8975441,-21.469049739017617,-0.44527683424895276,0.6890420761537138,0.16394053523252103,-25.433461968031448,17.569451329311452,-30.756698248223724
1760516439.907544,-21.915396536871825,-0.4861323810848812,0.6789589143236657,0.15062055944812153,-23.59647553016125,16.953727617579244,-29.828849677546657
1760516439.9175336,-22.39048405309391,-0.5221304291240059,0.6708091530149349,0.13854399181297414,-21.56117206361148,16.3412069275588,-29.39227476404212
1760516439.9275436,-22.89410105585404,-0.5516884668626127,0.6641400622944185,0.12893545054750763,-19.332196646211774,15.828092993292403,-29.351019751778626
1760516439.9376247,-23.422694228116267,-0.5736231860765159,0.6585086181894122,0.12279252441250454,-16.93515277860644,15.514861311915103,-29.566351776134265
1760516439.9475539,-23.969601485802645,-0.5872577697211783,0.6535288797723888,0.12077094536998384,-14.41272451312556,15.493601036045511,-29.873033042549277
1760516439.9576533,-24.525677129514243,-0.5925085825707602,0.6489154361405203,0.12311004070633286,-11.817871966030127,15.836432076050542,-30.098263557204064
1760516439.9677958,-25.08024553625637,-0.5899393651214249,0.6445182870627085,0.1296033335745028,-9.205520735422136,16.586065690961995,-30.080729037432828
