timestamp,angle,linear_acceleration_x,linear_acceleration_y,linear_acceleration_z,angular_velocity_x,angular_velocity_y,angular_velocity_z
1760680302.2187893,-6.739317982973653,-0.1517369737275483,0.9327508755003581,-0.27055964829419493,6.527366629680242,-4.329795341427489,15.040798884979058
1760680302.2287028,-6.708461302823136,-0.16721178550658372,0.9357968989486896,-0.27889707455837703,6.304322000103182,-6.01894913417671,14.801337860116657
1760680302.23878,-6.706729857274494,-0.17923238195949845,0.9406920273514431,-0.28557356241394494,6.009380912543754,-7.516784638353613,14.253361382338543
1760680302.248832,-6.72517506829857,-0.1864365692318804,0.9469808476856655,-0.2904042414156177,5.633885493557192,-8.777269398275658,13.436088181244934
1760680302.2588308,-6.752796276006535,-0.18785128120659292,0.9541806972555287,-0.29331343828076684,5.175552634597493,-9.771921183778986,12.417575564599213
1760680302.2684999,-6.777382351618843,-0.1829856443569543,0.9618422924223543,-0.29430285984305377,4.640416393152905,-10.495070843673524,11.290345797216059
1760680302.2788587,-6.786445215715717,-0.17187149415577754,0.9695835837158747,-0.293420519923744,4.043451698965012,-10.965501362936598,10.164072075978789
1760680302.2888186,-6.768159055993338,-0.15504705350499634,0.9770942977729846,-0.2907449373209148,3.4075443206421325,-11.223660280863685,9.155975033898786
1760680302.2988443,-6.712221090106419,-0.13348868740677106,0.9841184866054304,-0.2863929129001196,2.7608392006071023,-11.32452514442262,8.379868889740672
1760680302.3085914,-6.610564148361436,-0.10850429991025944,0.9904284224077741,-0.28054854283162484,2.1328746142787836,-11.327137697533313,7.9350082401100055
1760680302.3189101,-6.457875697138501,-0.0816072544317794,0.9958037184753734,-0.2735007249294857,1.5501885070049874,-11.282565333966414,7.895963609023542
1760680302.3287766,-6.251904591966284,-0.05438950940089695,1.0000248319413274,-0.2656706745737775,1.0322037478798767,-11.222432221492086,8.304665447046546
1760680302.3388371,-5.993558380449823,-0.028407824840311638,1.002882352969461,-0.2576119374261604,0.5881494876807677,-11.150132902567945,9.165519478294753
1760680302.3486967,-5.686808708875205,-0.005090983820303999,1.0041966865289649,-0.24997281841919278,0.21557902715530045,-11.036434845211943,10.444141720804414
1760680302.359051,-5.338432638654092,0.01432852856172167,1.0038400109127013,-0.24342283025956904,-0.09925718952980585,-10.820490772406721,12.069826818435365
1760680302.3686974,-4.957624761038833,0.028858159709876957,1.001753800426328,-0.23855668759549667,-0.3792727722533349,-10.416440808510075,13.941414776824447
1760680302.3788137,-4.555517774673618,0.03776688390218748,0.9979585464106692,-0.23579708362767016,-0.6530525944420011,-9.724915928250063,15.93584569335111
1760680302.3887532,-4.144645470856105,0.04059039267887155,0.9925554413845515,-0.23531846455308514,-0.9506450532993399,-8.647980720394711,17.918462599506356
1760680302.3987665,-3.7383714564801114,0.037128005128844226,0.9857216791975784,-0.23700889346943207,-1.299362380018415,-7.105484061923169,19.754061034231285
1760680302.4088905,-3.350293736219688,0.0274395759171794,0.9777015180003022,-0.24047859741432054,-1.720242467415913,-5.0505023312152355,21.31774269051138
1760680302.4189508,-2.9936271973490163,0.011847181221142873,0.968794594840665,-0.2451147081239011,-2.225633577150176,-2.481609495846158,22.504728657488595
1760680302.4288683,-2.680567747724219,-0.009059161254590047,0.9593416767774083,-0.2501736436943885,-2.818110200632003,0.5499006789764315,23.238386406772012
1760680302.4388347,-2.421649575676448,-0.03441592409188976,0.9497067792186072,-0.25489596925726143,-3.4906851465555397,3.9390336466032614,23.475853941125255
1760680302.4489136,-2.2251122893971855,-0.06308407815865631,0.9402541950041147,-0.25862371193602035,-4.228101894402472,7.5326882595533915,23.210849053592643
1760680302.458735,-2.0962954781481846,-0.09365261047851921,0.9313203377904082,-0.2608983918149725,-5.008887749358117,11.141282228730503,22.473524026343497
1760680302.4687598,-2.0370829992712993,-0.1244526048283083,0.9231837599137561,-0.26152157796350595,-5.807808451469566,14.555145696241208,21.327505178277057
1760680302.478955,-2.0454372327908943,-0.15359438863691927,0.916041051017146,-0.26056896598216023,-6.598367658266882,17.563973941034643,19.864477144529122
1760680302.4885669,-2.1150933542279677,-0.1790458024931002,0.9099987649281288,-0.2583608437142074,-7.355029684471138,19.977430826334913,18.19680475068842
1760680302.4988859,-2.2355131611424484,-0.19876760720301073,0.9050895252123471,-0.2554014452141951,-8.054918340585926,21.64492271158081,16.4487446603467
1760680302.509036,-2.39221013733255,-0.2109107009390012,0.9013139379247507,-0.2523032483856226,-8.678869756769364,22.472546002006613,14.74682458087803
1760680302.518943,-2.5675362967827278,-0.21406064072457076,0.8987013759458582,-0.24970931389263115,-9.21187938035774,22.435282499039683,13.20999929243991
1760680302.5290325,-2.7419585858259796,-0.20749260171771225,0.897375378159805,-0.24822031854085946,-9.643141154668227,21.58276764920549,11.940241130669802
1760680302.5396776,-2.8957551147620735,-0.19138279602320696,0.897606015570828,-0.24832713107188303,-9.965984747680737,20.037472718825395,11.014255401058351
1760680302.548733,-3.0109541173319774,-0.1669197424511653,0.8998335303473367,-0.250347074636778,-10.178042232066636,17.984938654988323,10.47696788151745
1760680302.5588617,-3.073255201262277,-0.1362739629798074,0.9046539694521518,-0.254362552393925,-10.281902191892042,15.656689954062797,10.33727028785018
1760680302.5688965,-3.0736397300894214,-0.10241204419590212,0.9127652415532679,-0.26016362924985376,-10.286343342287777,13.307469570520134,10.566255626945827
1760680302.5791612,-3.0094049703067918,-0.06877125284212031,0.9248781747962165,-0.267200747751295,-10.208016898456115,11.189270579551982,11.09791563995512
1760680302.5887759,-2.884440346704629,-0.03883760915255745,0.9416016409744341,-0.2745592536999764,-10.073219510950002,9.52513827832462,11.832093019988164
1760680302.5987225,-2.7086896683344817,-0.015690467873209785,0.9633152345068886,-0.2809722904896625,-9.919216249500296,8.48580250987395,12.639416195142921
1760680302.6087816,-2.4968883676091065,-0.001587659086484122,0.9900476254076697,-0.2848902897242596,-9.794477955373612,8.17186572111913,13.36797846183388
1760680302.6187704,-2.266798429441814,0.0023368917579308654,1.0213813306183401,-0.2846208820597374,-9.757230783293195,8.603556199518938,13.851616212306162
1760680302.6288095,-2.037248750883644,-0.0037898658641276417,1.0564027767996664,-0.2785410422720411,-9.871914258358617,9.719065939498847,13.919748064400133
1760680302.6388996,-1.8262965354116765,-0.018627381579596758,1.09371053460521,-0.26536450918309196,-10.203512433807465,11.381405223600156,13.408807910111213
1760680302.6490257,-1.6497539742106293,-0.03983277203208647,1.1314873474783818,-0.24442567309802182,-10.81020047374361,13.392717571211149,12.175267320190837
1760680302.6588929,-1.5202032883865397,-0.06438597908141326,1.1676344471394773,-0.21592296465445857,-11.735203538797231,15.514283545495513,10.1100008231738
1760680302.6688828,-1.4464987682136354,-0.08896848353599268,1.1999581534103483,-0.18105855642261026,-12.999040636117776,17.490103631616908,7.153237962778665
1760680302.6787133,-1.433667910815218,-0.11034515923055874,1.226388127596381,-0.1420224284988643,-14.593334015345661,19.071944216118446,3.308617667614299
1760680302.6886914,-1.483093357320806,-0.1257185562611855,1.2451967055297648,-0.10179661648109861,-16.47713283381296,20.043852038694677,-1.3458868148794665
1760680302.6988163,-1.5928746738929473,-0.1330392325861595,1.2551839926813144,-0.06379273903312635,-18.576333740611496,20.244154959419042,-6.652861612978158
1760680302.7088017,-1.7583096282094686,-0.13125546899565052,1.2557966308254491,-0.03137340698660027,-20.786392438378826,19.58279389083853,-12.378730284108972
1760680302.7189243,-1.97247340096742,-0.12047452890492767,1.247159404365642,-0.00733745544727272,-22.978198332167235,18.051661083748407,-18.22715339692636
1760680302.7288144,-2.226895410531919,-0.10199919602516154,1.2300163523920271,0.006536583000533597,-25.006781367809758,15.725817385192792,-23.8628455633087
1760680302.738583,-2.512332251972134,-0.07820998131647178,1.2055977601686774,0.00979917460399594,-26.722413507113952,12.754325467604792,-28.944287077487402
1760680302.748687,-2.819614534813576,-0.05228674623763747,1.1754446175780202,0.0034256843376364843,-27.983550108662456,9.341005630208652,-33.16191675398892
1760680302.7585368,-3.140512703883445,-0.02779499043150044,1.1412272688513487,-0.010325716918937418,-28.67080643539142,5.717417607526106,-36.27681185880736
1760680302.7688015,-3.4685329898534953,-0.008190579746034142,1.104590348282613,-0.02827302100769172,-28.700750701905474,2.1122601298296773,-38.154027226973874
1760680302.7787387,-3.799531796133781,0.0036851855040920378,1.067045952301862,-0.04682226579772743,-28.037832999968447,-1.277458487274073,-38.78500072084901
1760680302.7886012,-4.132036162771611,0.0060424151480831,1.0299237853327246,-0.06253862407530111,-26.70247532932322,-4.308143375933655,-38.29474580838162
1760680302.798836,-4.467186661542824,-0.0015618204050780802,0.9943714247184768,-0.07267363805249857,-24.77343711755502,-6.900214849227988,-36.93166990658597
1760680302.8088305,-4.8082789080497745,-0.01812908591159962,0.9613835700195248,-0.07555840241346816,-22.383161970262986,-9.035950554415477,-35.04041454291294
1760680302.8189662,-5.159964580657101,-0.04136299798509906,0.9318324843169721,-0.0708024042067365,-19.705858640168547,-10.745783419318721,-33.02074640191741
1760680302.8289003,-5.527264192862502,-0.06805247101680066,0.9064754202972126,-0.0592751401715057,-16.93935562995026,-12.086857553544403,-31.277862895246166
1760680302.8387592,-5.914610373601395,-0.09465113580703224,0.8859253989680665,-0.0428839158836625,-14.28298823871493,-13.119320020826231,-30.171139528989762
1760680302.8489113,-6.3251458863977055,-0.11795783545581155,0.8705853172568787,-0.024192533977843322,-11.9146418248226,-13.886208991624052,-29.96897221309077
1760680302.8589902,-6.760425848594492,-0.13575968705211838,0.8605606798197789,-0.005951020820662212,-9.970394839361578,-14.401803818634086,-30.816648441301147
1760680302.8688571,-7.220538998924128,-0.14728533069525843,0.8555807521987825,0.009377311442031388,-8.529909395519116,-14.651175813688056,-32.72208199694083
1760680302.8789945,-7.704527251809879,-0.15334854273642395,0.8549646481209641,0.020004677462421423,-7.609823132240575,-14.600959268795092,-35.5611698199431
1760680302.8886297,-8.210908393012241,-0.15613771793743172,0.8576611008415967,0.025055016239736726,-7.166004789439025,-14.218676285784513,-39.10118024927753
1760680302.899151,-8.738117032040973,-0.15869834840158253,0.8623691863087435,0.024612890395449772,-7.103903891966854,-13.495810141784485,-43.03766748812354
1760680302.9088247,-9.28474910341145,-0.16423032887140465,0.8677209144973485,0.01959244566948294,-7.29476916957379,-12.468628089901753,-47.03846378484065
1760680302.918567,-9.84958081013066,-0.17535896826211117,0.8724864698521013,0.011474041988867329,-7.594641359289609,-11.230830842972276,-50.78762823733042
1760680302.9290657,-10.431401468848927,-0.19353493751845474,0.8757559623253259,0.0019822144000761362,-7.862945035467596,-9.933612426640408,-54.02285039081614
1760680302.9388106,-11.028739535466144,-0.2186818529351174,0.8770584140216227,-0.007218648545834325,-7.978123338570672,-8.771489385047339,-56.561475712343224
1760680302.948764,-11.63957358073011,-0.24915306597845938,0.876395278768898,-0.014753881121696882,-7.848765197541022,-7.9557196991362025,-58.312624145283806
1760680302.9587767,-12.261111680876041,-0.2819952136954628,0.8741862075816607,-0.019667131682998065,-7.419692517103596,-7.680319905705058,-59.2753359514212
1760680302.9685724,-12.889700786982644,-0.3134576468052176,0.8711432444354119,-0.021451247296829117,-6.673256503646934,-8.087601391909129,-59.5248627135687
1760680302.978796,-13.520897789581758,-0.33964364747649145,0.8681018978398168,-0.020004161110192053,-5.626588951947722,-9.240241130414967,-59.190793504416476
1760680302.9887714,-14.149700669187789,-0.35717820434032144,0.865842056034158,-0.0155391363373265,-4.325832515661285,-11.105321369023015,-58.43146883224759
1760680302.998767,-14.770906536404185,-0.3637714521873126,0.864929760584575,-0.008475862928231529,-2.8384932263607525,-13.553133377401641,-57.40905196317755
1760680303.0088153,-15.379540044984534,-0.3585849319286277,0.8656050382919179,0.0006672033168806887,-1.2450300553024918,-16.370594944113794,-56.268842983196194
1760680303.0188544,-15.971285994330266,-0.3423515674588021,0.8677332884908192,0.011363902378242934,0.36937583971477433,-19.28655792045722,-55.12520133412656
1760680303.028715,-16.54286482916403,-0.3172477129854825,0.8708284159317143,0.02314337015887788,1.9221959957385772,-22.00455585433071,-54.05505662241766
1760680303.038981,-17.09230526409866,-0.2865563048094542,0.8741443679476091,0.03561807568662314,3.3396697537472924,-24.23784249263456,-53.09863887853007
1760680303.0487843,-17.619088469812077,-0.25418896756240217,0.8768186586237998,0.04847585791541907,4.561468201874238,-25.741799732134456,-52.265904285735964
1760680303.0587306,-18.12415791669242,-0.22415071903665293,0.8780401903424551,0.061441591970419214,5.5438604298586,-26.33970062618462,-51.546318858014516
1760680303.068789,-18.609804507906528,-0.20003270341148835,0.8772083467946716,0.074220920454541,6.261435632102089,-25.939137187867434,-50.919327007244675
1760680303.0788655,-19.079446189796474,-0.18460531149382312,0.8740525013122075,0.0864441776884858,6.707507016138422,-24.537933043527772,-50.3630436210576
1760680303.0890014,-19.537324822737435,-0.17955884262862024,0.868689413479666,0.09763089327808658,6.893370778352993,-22.219837515726223,-49.85941414886567
1760680303.0989316,-19.98814280999718,-0.1854084938616833,0.861608352790707,0.10719155560657652,6.846610835495097,-19.14153167561688,-49.39511779842019
1760680303.1088748,-20.436661164337625,-0.20155253792946326,0.8535878569333488,0.11447309202565978,6.608623145851205,-15.513325962271105,-48.95861251744898
1760680303.118773,-20.887282137352827,-0.2264526974614348,0.8455607630128801,0.11884100307273072,6.231485311684798,-11.576354902964432,-48.534691168104274
1760680303.1289525,-21.34364377664267,-0.2578967133573182,0.838452912381683,0.11977988913628959,5.7742395778118105,-7.579108936923208,-48.09851777202917
1760680303.1389644,-21.808258310985213,-0.293302638475108,0.8330246166311331,0.1169895902208192,5.298634162442487,-3.7558439232458283,-47.61120586743348
1760680303.148871,-22.282226509905957,-0.3300259219257717,0.8297422991923928,0.1104572712414726,4.864426628482895,-0.3088536524113991,-47.0185762485805
1760680303.1589735,-22.765052579878887,-0.3656306637457251,0.8287007766319794,0.10049407780856656,4.524515507089377,2.604129246742445,-46.25389865094967
1760680303.1688817,-23.254569777217476,-0.3980900971930175,0.8296056765430382,0.08773392583797188,4.3203953939913955,4.876936489815821,-45.24439459190498
1760680303.178752,-23.74697206640789,-0.42589456745135557,0.8318132643601227,0.07309769416365833,4.278613402958528,6.456687670151271,-43.92033739616018
1760680303.188861,-24.23693992384523,-0.4480674563942866,0.8344150237726086,0.057727788031015394,4.408902484708258,7.341196868655803,-42.224994318045376
1760680303.198804,-24.71785294393377,-0.4641127809066266,0.8363499455943204,0.0428977734678023,4.704417522473245,7.573389285972245,-40.12355735486652
1760680303.208806,-25.182095043983683,-0.4739330070639316,0.8365299336799884,0.029902071087537264,5.14407070376534,7.234037087089231,-37.60957688691323
1760680303.218816,-25.621470596180988,-0.4777561975229958,0.8339708875534317,0.019932609140929848,5.696505783432285,6.433748850059052,-34.70808020175487
1760680303.2290375,-26.027750984352608,-0.4760980119164711,0.827928687702803,0.013952282031153933,6.324921106598736,5.304585574455435,-31.475282032774025
1760680303.238833,-26.393352862911765,-0.4697611955791914,0.8180401222334119,0.012577924267389321,6.991845921975511,3.9911856014195943,-27.99531761173891
1760680303.2485764,-26.71210967164033,-0.45985044797837843,0.8044615399842421,0.015987497738648097,7.663105554573278,2.6410975680630564,-24.37457839141758
1760680303.2587428,-26.980043328649693,-0.44776244007357174,0.7879852976990122,0.02386665969289775,8.310509574753908,1.3942550222457004,-20.734038036015846
1760680303.2687826,-27.195990405572545,-0.43510785583531786,0.77010252060681,0.035407929364588496,8.913154468718133,0.37211454086451756,-17.19965903576817
1760680303.2790668,-27.361910804504134,-0.4235399736606743,0.7529777134145859,0.04937023904107918,9.457551380379611,-0.3322987170385767,-13.890864053297753
1760680303.2889218,-27.482729610656552,-0.41449945905690283,0.7393101470212725,0.06419725656510215,9.937006811047015,-0.6616469060740519,-10.907321559428553
1760680303.2990332,-27.56564312271597,-0.40892557892674236,0.7320769619164244,0.07818075056130266,10.350760764987287,-0.5969598902848221,-8.31492297740285
1760680303.308982,-27.618943473782156,-0.40701348568522205,0.73417818933304,0.0896438097360624,10.703303562571044,-0.15438690975608715,-6.132635631728211
1760680303.3187835,-27.650545508760654,-0.40810166571059386,0.7480281315897928,0.09711219025597005,11.004067611637007,0.6242418417925528,-4.322592964383541
1760680303.3288727,-27.666490116662562,-0.41074823348773687,0.7751544751323125,0.09944396906525492,11.267390470622484,1.6858654858254634,-2.785993520838606
1760680303.3390346,-27.66971958229772,-0.4130059734835463,0.8158706350545839,0.09589935837780066,11.51236277282514,2.983050629624699,-1.3669233839442179
1760680303.348801,-27.659368072762472,-0.41284884037110403,0.8690770131120665,0.0861507733213699,11.761995957032294,4.489657587141296,0.13486675573002005
1760680303.3588223,-27.630702279051725,-0.40865499697301866,0.9322283529228884,0.07024983018790064,12.041146836603671,6.211487237015452,1.9426846065891683
1760680303.368841,-27.575714097166998,-0.3996275525243103,1.0014833207357836,0.04857539220974571,12.372881304052314,8.18877632364763,4.275184665628052
1760680303.3790572,-27.484241984896954,-0.38604025702194666,1.0720298765584255,0.021784547562190337,12.773455393728968,10.488939822973343,7.315769020049139
1760680303.388968,-27.345408820506144,-0.3692333472501067,1.138554930594001,-0.009219218085992673,13.246728440852568,13.189989666898933,11.183737559519276
1760680303.3988645,-27.14913045457004,-0.3513527696925048,1.1958011505981463,-0.04329755470658996,13.779352924313235,16.35710856643461,15.91217053833071
1760680303.4088464,-26.887472202610248,-0.3349067646054012,1.2391326359298798,-0.07908187135387904,14.338230475480028,20.016502857414324,21.436755181785088
1760680303.4187722,-26.555691472568796,-0.3222687410925214,1.2650230708682548,-0.11500283068853864,14.87139194347975,24.131658720942156,27.59780035546542
1760680303.4288168,-26.152875684194424,-0.3152520234503665,1.2713949629455306,-0.14938149292496705,15.312838877902957,28.587324211828985,34.15501685977563
1760680303.4391968,-25.682146835000086,-0.31483041120547733,1.257776572325753,-0.18059609024626774,15.591210678022282,33.18569914696688,40.81217868142378
1760680303.4489381,-25.150453568947732,-0.3210224662448291,1.2252860274165829,-0.2072962296227562,15.641424523395308,37.65725143282238,47.247283196043696
1760680303.4589016,-24.568010324563403,-0.3329273083469733,1.1764771046447022,-0.22860373802644604,15.417580692341401,41.6855574665042,53.143542712142825
1760680303.4685597,-23.94747057183081,-0.3488900479245029,1.1150824958277046,-0.2442382604362354,14.904611180582979,44.9424293063432,58.217242196058734
1760680303.47896,-23.30293503238807,-0.366766727023545,1.045681470510551,-0.25453284960861694,14.125843057322061,47.1273420148044,62.23973076989614
1760680303.4889405,-22.648895716168585,-0.38424362424306285,0.9733139547391219,-0.2603404953305393,13.144197254107743,48.004420821551435,65.05213846741266
1760680303.4986918,-21.99920494609425,-0.39915084473206247,0.903064839761213,-0.2628596787991146,12.05605709523378,47.431020669347774,66.57257616189943
1760680303.5089653,-21.36613976420094,-0.40970902241681506,0.8396467227346411,-0.26342022048793445,10.978477579059998,45.37384888116233,66.79650355086574
1760680303.518841,-20.75961223432188,-0.4146681190569588,0.7870136680189947,-0.26327239908280115,10.031871180262893,41.91109739263347,65.79158220888041
1760680303.5289793,-20.18656094044297,-0.41333125677715266,0.7480419790245822,-0.26341568595208703,9.32125584947879,37.2215794605427,63.68859306032704
1760680303.538943,-19.65055114088893,-0.4054884882563303,0.724314364842162,-0.2644908330860816,8.919433679267033,31.563849047443675,60.669876261423866
1760680303.548619,-19.151608913894385,-0.3913039617678013,0.7160384373486144,-0.26674432126936165,8.855090169582803,25.249341207613227,56.95636052643551
1760680303.5588124,-18.68631345136287,-0.37120228266406546,0.7221170952900756,-0.2700616688205426,9.107893090381722,18.61367737418688,52.79379500137588
1760680303.568854,-18.24816599538578,-0.3457888381414149,0.7403670486239716,-0.27405707012613706,9.611425660991237,11.989702109469254,48.438477669247156
1760680303.5790443,-17.828239670414014,-0.3158200953691867,0.7678554951243373,-0.27819938428720636,10.263424905748801,5.684890136647246,44.14268312295759
1760680303.5889645,-17.416089998069342,-0.28221993818127916,0.8012998896957062,-0.2819477315925678,10.941525221974285,-0.03531345141407179,40.140089663063605
1760680303.598895,-17.00087240430895,-0.24612195269717646,0.8374607263976611,-0.284866645210465,11.521740533858782,-4.957782420752723,36.631692608021226
1760680303.6086502,-16.572574517347498,-0.20890779416392094,0.8734610767679069,-0.2866953889379207,11.896446988879926,-8.926231328364818,33.772905949636
1760680303.6193218,-16.123233997423757,-0.172209607239328,0.9069909840440693,-0.28736028068109487,11.988788723337018,-11.841327731001416,31.66277328520861
1760680303.6288192,-15.647985990508698,-0.13785043228738234,0.9363896525374712,-0.2869377973787964,11.761237118643946,-13.658048602082806,30.33639575249542
1760680303.6390328,-15.145778934215324,-0.10771024834069177,0.9606276892154083,-0.28559073005560837,11.217304904678679,-14.381720883660886,29.761790414386372
1760680303.648979,-14.619623273214389,-0.08352501682418637,0.979225215532881,-0.28350334925305015,10.396792006454794,-14.06357162949792,29.84234784218694
1760680303.6588433,-14.076298244422143,-0.06664773490143114,0.9921403981913586,-0.2808351013313708,9.366054236290795,-12.795855238355236,30.42575104070355
1760680303.668974,-13.525529747618954,-0.057817939614450344,0.999654124205663,-0.2777009344172716,8.20542979759275,-10.706017797201099,31.31954266482828
1760680303.6789796,-12.97874807758893,-0.0569928959209655,1.002266157205419,-0.27417507701815597,6.996108578422549,-7.9491061695809595,32.3124775467094
1760680303.6889508,-12.447612054098935,-0.06328571513019944,1.0006082496965834,-0.27030717349892125,5.808471914010136,-4.697799796724852,33.199528687758615
1760680303.698848,-11.9425246211495,-0.07503430320630276,0.9953713878113799,-0.2661368135732946,4.693389678767933,-1.1299802953226865,33.80723856531251
1760680303.708791,-11.471359481211884,-0.08999879493445812,0.987240548566368,-0.2616959853518657,3.6772786000519138,2.585478212290396,34.01539233067078
1760680303.7188559,-11.038581277433607,-0.10566436444813494,0.9768343195289199,-0.2569993833734723,2.7610565942509324,6.303182480295375,33.77101780149756
1760680303.7288127,-10.644888306849772,-0.11961297153105442,0.9646570997361364,-0.25203599720682357,1.922600673691758,9.913728972261666,33.09162844660579
1760680303.7391138,-10.287438737973256,-0.12991325002803952,0.9510804919656575,-0.24678192596505708,1.1219803275211684,13.35165848308359,32.05642425636498
1760680303.7491355,-9.96063232565048,-0.13545895428630417,0.9363693406668544,-0.24124548740700824,0.3085812684542738,16.59654313318953,30.78663282590275
1760680303.758639,-9.657315168041844,-0.1361773703698971,0.9207558828588696,-0.2355360095602104,-0.5707808658134982,19.666028560779928,29.418741328436408
1760680303.7688482,-9.370181698829025,-0.13304754902600793,0.9045503186597084,-0.22993178118287225,-1.56360119929929,22.60153431203076,28.076241150538472
1760680303.7785866,-9.093100804928174,-0.1279134790108742,0.888265530669369,-0.22491946040019825,-2.704093270074889,25.44934051204604,26.846030674525736
1760680303.7890515,-8.822114486937735,-0.12313082827010695,0.8727292618217444,-0.22118425248964602,-4.007107611943038,28.241155033773428,25.764594867228418
1760680303.7986615,-8.555942761924506,-0.12112542014841803,0.8591571013349859,-0.21954120818949766,-5.464425680350173,30.978427873807558,24.81677053357036
1760680303.8090036,-8.295944088193984,-0.12395241683658269,0.8491638391785317,-0.22080919041276148,-7.044170779600436,33.62363442240769,23.946908220698745
1760680303.8188357,-8.045585506274653,-0.13292721286671286,0.8446981721236436,-0.22563897641198144,-8.693729768528481,36.09991456524424,23.07929681831655
1760680303.8289557,-7.809548276805852,-0.14836722229644358,0.8478925184586839,-0.23431681260075782,-10.346045386835192,38.2985092545361,22.14254689392904
1760680303.838788,-7.592634267169837,-0.16945833539361016,0.8608255762136952,-0.2465768182440951,-11.928566482872743,40.09204974428623,21.091796169776757
1760680303.848927,-7.398656044685482,-0.1942536270585706,0.8852082449919045,-0.2614683087571831,-13.373695455933454,41.35127100561205,19.923342819692124
1760680303.8590133,-7.229494086153346,-0.21981985698086168,0.9220290399708428,-0.27732860304390555,-14.629326506045905,41.9629312659629,18.678387153834024
1760680303.8688202,-7.084483297303432,-0.24254671496441765,0.9712232986925707,-0.29189738790374975,-15.668001674969162,41.84704351065351,17.43529603309516
1760680303.8788798,-6.960241980947718,-0.25860622932125615,1.0314432409585814,-0.30257487873412153,-16.493272787902143,40.97157940330534,16.29240651140431
1760680303.888998,-6.850981987475431,-0.26450596725311726,1.0999947427497112,-0.3067875266077921,-17.14203234732041,39.36273935307194,15.345278839269547
1760680303.8987734,-6.749254244687511,-0.2576483541288967,1.1729763885344666,-0.3023981153382547,-17.681896669925663,37.1090623517023,14.663222140270951
1760680303.9086523,-6.647010236104193,-0.23680221156757905,1.2456154666236596,-0.28808633344195306,-18.203255371109787,34.35819562484838,14.269786563035295
1760680303.919088,-6.536813637702351,-0.2024036920385448,1.312752151669903,-0.26362922043562553,-18.806404709964823,31.30592283681166,14.130835199332925
1760680303.9288967,-6.413023773954078,-0.15662736737917435,1.3693895091968524,-0.2300280378223862,-19.585204067185256,28.17795880275787,14.15207040955789
1760680303.9386296,-6.272791097948031,-0.10320653194661845,1.4112171417469046,-0.18945668092616566,-20.609677524853943,25.206041303775027,14.185962960265607
1760680303.9490113,-6.116745785879672,-0.047029316268061006,1.4350335814250328,-0.145037634903123,-21.910571128160747,22.600882286997724,14.046385504023648
1760680303.9589443,-5.949312772072132,0.00642086578553372,1.4390250405193767,-0.10047555832592421,-23.468836238488407,20.525367213322234,13.528184953185205
1760680303.9686806,-5.778639292278624,0.05168934889372167,1.4228889280630346,-0.05959429966256978,-25.212327584380112,19.071826520397003,12.428555163389385
1760680303.9787436,-5.616164994513604,0.08394928367686408,1.3878098654082862,-0.0258346379129577,-27.02083302145632,18.247126474775325,10.56734058527439
1760680303.9886963,-5.475894711317049,0.09950642494726036,1.3363050085270727,-0.0017802670438946684,-28.739123433899756,17.968615877449047,7.8040973346612255
1760680303.9987516,-5.373450601582571,0.09616592792016355,1.2719613599183464,0.011213497473313346,-30.19629776880367,18.072523353289178,4.050559289140501
1760680304.0088496,-5.324987522943178,0.07343965936296229,1.199094538777599,0.013216533726310329,-31.22856602944951,18.334322523842836,-0.722104557744022
1760680304.0188878,-5.3460564375774435,0.03259055514567174,1.1223640793142757,0.0056941702061206545,-31.701960983685204,18.49829248862574,-6.481216752905114
1760680304.0288782,-5.450497019641966,-0.023476276472397473,1.0463814219306113,-0.008761586602510052,-31.531403136900646,18.311659758509848,-13.13507332918415
1760680304.0388548,-5.649434244588107,-0.09046236095973105,0.9753430479339537,-0.026898859389171092,-30.69307502902459,17.557911086160914,-20.538803476354513
1760680304.048766,-5.950446725933808,-0.16305741350284272,0.9127142111463019,-0.04537843003872294,-29.22809911148843,16.08433494934502,-28.502106832227874
1760680304.0587537,-6.356967585053562,-0.2354516198937263,0.8609823033339526,-0.061330359908163885,-27.236890318690307,13.820276876825995,-36.79752240408651
1760680304.0687585,-6.867969809261303,-0.30196495469639906,0.8214998972900787,-0.0727784480117062,-24.865072741823898,10.784281591962412,-45.16862612430573
1760680304.0787706,-7.477973186318892,-0.35774318376549985,0.7944454120416845,-0.07885413719194082,-22.28327349607091,7.079629124636679,-53.33864234944669
1760680304.088991,-8.17738541374664,-0.39941787758899405,0.7789273463183402,-0.07977649132393913,-19.664151761737873,2.878701517774691,-61.020868110224065
1760680304.0986392,-8.953157572708221,-0.42558764898918094,0.773230034218688,-0.07662816239111168,-17.160436844423646,-1.6024295271632112,-67.93257687670261
1760680304.1089458,-9.789700470686173,-0.4369810945961489,0.7751553639059139,-0.07099595733125387,-14.887427082526383,-6.136487334290476,-73.81347197849514
1760680304.1188235,-10.66997907214412,-0.4362216180087363,0.7823865715667874,-0.06456398865099577,-12.912433835320344,-10.520292075743352,-78.44833798448673
1760680304.1290426,-11.576680301896024,-0.42721553020950587,0.7928044498623342,-0.058747112648693776,-11.252316944071625,-14.607344293301086,-81.69161968867861
1760680304.1390452,-12.493339297862816,-0.41429097900922596,0.8047121689984038,-0.054434341016653155,-9.878867659900092,-18.33171284403103,-83.48987854913402
1760680304.148692,-13.405316388102158,-0.4012866123532592,0.8169519648217509,-0.05188103841133809,-8.730564519677065,-21.718010715798577,-83.89713868981129
1760680304.1587381,-14.300541598189012,-0.39080156871180166,0.8289163684024757,-0.05075233972613673,-7.7282828847670455,-24.87422785263022,-83.07844794683511
1760680304.168936,-15.169976835192372,-0.38377162200482207,0.840470708967279,-0.05028659181112652,-6.792010881963326,-27.96714859246148,-81.29858112111089
1760680304.1790268,-16.007778801480008,-0.37944869181114216,0.8518141452353135,-0.049524235231683374,-5.8556357129404715,-31.18355512924068,-78.89550238540139
1760680304.1887226,-16.81117597943356,-0.3757609025171541,0.8633104951794419,-0.047539237665611106,-4.877439026921229,-34.6836943980206,-76.24150700880142
1760680304.1990206,-17.58010299527033,-0.3699452177581392,0.8753158305340807,-0.04361876394321846,-3.8449521554875274,-38.55567919540693,-73.69802471945773
1760680304.2087512,-18.316664191874327,-0.3592946176835848,0.8880222897944772,-0.0373605475910545,-2.774020431001701,-42.77989739240267,-71.57187287620775
1760680304.2187173,-19.024518267999817,-0.3418562510716404,0.901334050396471,-0.028688470717672512,-1.7030188214720257,-47.2109196543634,-70.08061925057895
1760680304.228785,-19.70827871044622,-0.31694871222269694,0.9147921430753365,-0.0178115766029102,-0.6839087990099885,-51.5812023879237,-69.33267811992198
1760680304.2387908,-20.373005889332727,-0.2854154637808046,0.9275640206902214,-0.005159815462743733,0.22789797280473578,-55.526859684257495,-69.3245169485531
1760680304.248863,-21.023829670946405,-0.24958199898229433,0.9385074309994063,0.008677694734825981,0.9830881334382049,-58.631850228732304,-69.95388124196738
1760680304.2592654,-21.665698281614393,-0.2129341824591243,0.9463061867126389,0.023000152579675866,1.5461291906646173,-60.48385644842867,-71.04509639208874
1760680304.2689397,-22.303214973865487,-0.17958335083514362,0.9496603697990649,0.03702945676339991,1.9004127564204747,-60.73332297883401,-72.38078057420518
1760680304.2788403,-22.940509093170597,-0.15362141098766927,0.9474999058714249,0.0499411663134944,2.050705178721145,-59.14666897752293,-73.73389238225491
1760680304.2888188,-23.581094295496126,-0.13848664594651183,0.9391832880293252,0.0609042128704602,2.023110532237122,-55.6455776457957,-74.89487399412756
1760680304.298894,-24.227688302654233,-0.13645464287212034,0.9246446538684162,0.06913786799349442,1.862950109429319,-50.326405041848616,-75.6904316998574
1760680304.3088388,-24.881995814585693,-0.14833896642186417,0.9044605028136905,0.07398744391592656,1.6310125539660836,-43.45688045131034,-75.99274204576197
1760680304.3188782,-25.54447942510766,-0.17343701109391665,0.8798185855044627,0.07501282886947881,1.3985551095499351,-35.45088152671588,-75.7200347748626
1760680304.328936,-26.214156615485052,-0.20970004039370277,0.8523845911514738,0.072076702239044,1.2413336189776245,-26.825432916494755,-74.83107528092503
1760680304.3390656,-26.888461972313767,-0.25406050481308884,0.8240786291488025,0.0654127342692552,1.2329366148421848,-18.146507701575477,-73.31671454885588
1760680304.3488905,-27.563203706786926,-0.3028287833215038,0.7967934037242617,0.055651673743307734,1.437854598810502,-9.971328885960718,-71.19134548400126
1760680304.3589299,-28.2326264432631,-0.3520800245317067,0.7721049154674576,0.04378832147516445,1.904963402743063,-2.7946160447425803,-68.48605059467852
1760680304.3690333,-28.88957413406433,-0.3979824642237337,0.751036755746539,0.031084433556137325,2.6623002010410497,2.9952307035051113,-65.24389828958078
1760680304.3790228,-29.525733313744986,-0.43705568131837275,0.7339343413879582,0.018918191431561975,3.7140320769508803,7.146240587098506,-61.516736531565556
1760680304.389072,-30.13193114632123,-0.46637514425422344,0.720484080422301,0.00860626762969938,5.040294429954615,9.55787044084352,-57.36229567311985
1760680304.3990006,-30.6984662040117,-0.4837505739672912,0.7098785426121784,0.0012354118714872568,6.600126140249616,10.281437495982148,-52.840538829150816
1760680304.4087114,-31.215461191172267,-0.48790037433963046,0.7010927047487557,-0.0024579562679543595,8.337141308439945,9.507807160337846,-48.0088403487072
1760680304.4190302,-31.67324056907875,-0.47862612053219,0.6932115399752622,-0.002132467251016034,10.186986666964852,7.5447563048850785,-42.91647086633241
1760680304.4288871,-32.06274482399771,-0.45696623997322283,0.6857426426843063,0.0021947813059025323,12.08517335494237,4.786529684320398,-37.59973823489597
1760680304.438922,-32.375991116753944,-0.42528612719161973,0.6788550354186463,0.01024473434549569,13.97366250079987,1.677963283283101,-32.07966350066157
1760680304.4490268,-32.6065751160287,-0.3872507010084025,0.6734981475454889,0.02159018254666473,15.804726580494004,-1.3245546594563071,-26.363960262853585
1760680304.4589338,-32.75018351939179,-0.34762835932673425,0.6713695631870167,0.03573902327843931,17.5411457431093,-3.7928796151248374,-20.454216871398472
1760680304.4687,-32.80505928707749,-0.3118953016326393,0.6747185997857847,0.05215341094819146,19.152674081458922,-5.364888621697508,-14.357727537605587
1760680304.478693,-32.77234370471549,-0.2856477352731847,0.6859973507265403,0.07019854679630909,20.609753916720962,-5.777078397033774,-8.101799818904615
1760680304.488664,-32.656220548336485,-0.27388014783963943,0.7073998751658688,0.08904300384396165,21.876397611851857,-4.88872284746009,-1.7471224637457716
1760680304.498901,-32.46380959098776,-0.28023435803816105,0.7403579279887483,0.10755135944445991,22.90470354957876,-2.694739913890369,4.60362457793113
1760680304.5088847,-32.20479244981314,-0.30634790082581265,0.7850805119925455,0.12421614826704133,23.63341633947376,0.6746059185030927,10.805123355679749
1760680304.5189116,-31.890791983875236,-0.35142303722299284,0.840229066643625,0.1371712478232043,23.992224649717166,4.96761066406442,16.678485493954586
1760680304.5290098,-31.53455815578628,-0.4121065760582146,0.9028088978509888,0.14431497215667055,23.912224214533783,9.837451624573706,22.029840377192848
1760680304.5390127,-31.149035403123488,-0.48273014520571494,0.9683326941637009,0.14354929807755235,23.34141688842255,14.878182419819169,26.67615818523375
1760680304.5488594,-30.74640038858562,-0.5559183504941025,1.0312764207073777,0.13311227699128866,22.26261126243957,19.6665215039181,30.47411817084898
1760680304.5586863,-30.337166464606202,-0.6235243427442569,1.0858014463404975,0.11194744182926872,20.70995741849114,23.804975495833173,33.346510089524685
1760680304.5686243,-29.92945222405331,-0.6777893617592322,1.1266570801007316,0.08002757328732256,18.779816141975594,26.961732998042116,35.3003271298611
1760680304.57908,-29.528502897550094,-0.712545622433898,1.150108464211868,0.038545294886906285,16.631896949247086,28.902918913772158,36.4317077379166
1760680304.5890098,-29.136529906859337,-0.7242165495288363,1.154677735262918,-0.010093035146330712,14.477781510456733,29.513208862914425,36.91533842210112
1760680304.5990548,-28.752892668498454,-0.7123633555216411,1.1414814986777446,-0.0624889348526566,12.556250635055148,28.801832394486205,36.97950749377673
1760680304.6091263,-28.37459252116444,-0.6796197764685001,1.1140279943256501,-0.11465997894896365,11.098153476259242,26.893052059384758,36.871725070647805
1760680304.618896,-27.996995507442694,-0.6310303296646,1.0774922550767934,-0.1625689736094699,10.287145798960712,24.003117727819788,36.822323227704864
1760680304.6289895,-27.614666326807058,-0.5729854951524682,1.037655007796645,-0.20268660559035442,10.225065214590117,20.40846386880455,37.01365621425541
1760680304.6390388,-27.22219068909067,-0.5120466255906438,0.9997957145672433,-0.23249035302511747,10.910640534709598,16.411317514720768,37.560378817823555
1760680304.6488633,-26.81488428489869,-0.45394133405239684,0.9678302098154351,-0.2508062612041913,12.237293282948194,12.30836385151815,38.502834265803926
1760680304.6589816,-26.389320454803478,-0.40291180260260484,0.9438850897415837,-0.2579244478647951,14.010916200230335,8.366109861147708,39.812307306943154
1760680304.6691246,-25.94364280523266,-0.36146743155334465,0.928346767087116,-0.25546551017954716,15.983374853821257,4.804114214167373,41.40483044887289
1760680304.6789024,-25.477657839249115,-0.33048117735463045,0.9202735944571998,-0.24603071581554437,17.893727348996116,1.785316393220188,43.15958441047829
1760680304.688856,-24.99272534495512,-0.30950599236990645,0.9179705639152178,-0.23271457993990657,19.507904607881404,-0.5881433846433799,44.93833281835843
1760680304.698984,-24.491480732523954,-0.2971769209671181,0.9195243341473528,-0.21858189844167233,20.649044668396897,-2.2750157405223193,46.603250857527826
1760680304.7091098,-23.977434023953865,-0.29159162096482927,0.9231684454303114,-0.20621074344738896,21.21403494508271,-3.2915902242454846,48.03152321246724
1760680304.719108,-23.454496690789423,-0.29060939454006157,0.9274512391643446,-0.19738117963306348,21.175713795144212,-3.704840729862283,49.125937386881525
1760680304.7305932,-22.92649266429017,-0.29205876040770984,0.9312618315693483,-0.19295112429199265,20.573358681220903,-3.621785303193993,49.821297598540205
1760680304.7388299,-22.396714587860895,-0.29388068496840763,0.9338006302201071,-0.19291486879315028,19.495839202468627,-3.17516649268401,50.086882384989316
1760680304.748956,-21.867588098063496,-0.29424874541436724,0.9345609069745803,-0.19659991275362662,18.06204534494778,-2.5064040953279467,49.92545744167825
1760680304.758688,-21.34049992814309,-0.2916972934863412,0.9333426358016188,-0.20293580268037953,16.402288627450424,-1.7477220498578376,49.369580177089865
1760680304.7687037,-20.815825284169478,-0.2852622859689467,0.9302794000676504,-0.2107279383549707,14.642927792052665,-1.006005639956821,48.47607534897429
1760680304.7788413,-20.293156754263638,-0.2746110975738664,0.9258413464256531,-0.21888433564021836,12.895073004033462,-0.3510071928565111,47.319576657252846
1760680304.7890654,-19.771696849079632,-0.2601202616990305,0.9207833599612765,-0.2265653352570419,11.247237181677272,0.19010601372527267,45.98589774600941
1760680304.7986968,-19.250737958785287,-0.24286002057329265,0.9160293076890396,-0.23324813140717626,9.761333905367628,0.6310482407420314,44.565750637413515
1760680304.8090565,-18.73012683297614,-0.2244613446979227,0.9125086003733338,-0.23871566599709096,8.4713716092297,1.0181796284397946,43.14904306755214
1760680304.8189895,-18.210605107720617,-0.2068694370893042,0.9109793419544362,-0.24299113580055576,7.384363571880293,1.4176844146907042,41.81973759128912
1760680304.8303828,-17.69393931662638,-0.1920193805746334,0.9118765546069718,-0.24624469528670034,6.483162743556601,1.9009770917564595,40.65110614312563
1760680304.8401496,-17.182801416603805,-0.18149465660598227,0.9152158936106618,-0.24869822773634434,5.731013072248644,2.531348696217696,39.701203871907865
1760680304.8490078,-16.68042109744945,-0.17623891949855708,0.9205696667067897,-0.2505485377349646,5.077547647334233,3.3543662258950717,39.00853093571712
1760680304.858963,-16.190085109105716,-0.1763822082396374,0.927118516155259,-0.25192122511102444,4.465796956266579,4.393505840389305,38.588126989734846
1760680304.869262,-15.714592523663512,-0.18121882077625381,0.9337704820884742,-0.2528590456841259,3.839588356601496,5.651231124967983,38.42866785301574
1760680304.8787324,-15.255784234137034,-0.18934340349367398,0.9393289496187803,-0.25334095061037065,3.1506081957076417,7.11453910763419,38.491365756412534
1760680304.888699,-14.814251433175857,-0.1989209630024123,0.9426822590948385,-0.25332176483026086,2.3643840421355167,8.763116932689954,38.71147061466661
1760680304.8992453,-14.389292936839832,-0.20803936727855163,0.9429818226541774,-0.2527784543658233,1.4644917483073479,10.577786126322817,39.00287374478273
1760680304.9087646,-13.979139363882723,-0.21507407815601484,0.9397750245526679,-0.25174841729534086,0.4543800075076798,12.546895583223607,39.265786080617595
1760680304.9190679,-13.58140494174737,-0.21899117084293393,0.9330669193091894,-0.25034906469928603,-0.6436250968424317,14.668775941884553,39.39683473783469
1760680304.9290545,-13.193680882146234,-0.21952976284232792,0.9233008300150866,-0.24877544695578235,-1.7922492176025118,16.949257377206255,39.30036621151351
1760680304.9388306,-12.814158835025621,-0.21723339660815025,0.9112673710017054,-0.24728091858939197,-2.9457470423182937,19.394435580222666,38.89942893193401
1760680304.9486701,-12.442169836930391,-0.21333034142054752,0.8979669530506157,-0.24615066658154852,-4.057961118552771,22.000081925364604,38.14492952332239
1760680304.9590936,-12.078536964274877,-0.20948623934963392,0.8844579098038335,-0.24567703500568397,-5.090526893227416,24.74005049978423,37.021798722755804
1760680304.9691458,-11.725661809642386,-0.20746745566494088,0.8717207156823943,-0.24614045473888832,-6.0196270397447895,27.556550665652132,35.55154604548796
1760680304.9791627,-11.387295093282203,-0.20876491945850895,0.8605607848692117,-0.24779383732390842,-6.83992464255931,30.355155106584427,33.791150178115494
1760680304.9890509,-11.067985451694128,-0.21424130578765976,0.8515612867166067,-0.2508443947776452,-7.5648591934095215,33.0068777801981,31.828645732894955
1760680304.998948,-10.772262133773276,-0.2238770440002698,0.8450865336755491,-0.2554274427859089,-8.223226244500385,35.35856937529702,29.775917160951828
1760680305.0087178,-10.503681570821715,-0.2366921248956018,0.8413287376452285,-0.26157295544065107,-8.852713934904754,37.25124906101925,27.759114617825936
1760680305.0190747,-10.263932778035675,-0.2508953949739767,0.8403867372038174,-0.26917390408842146,-9.491690204895814,38.543953317833754,25.906920467835345
1760680305.028801,-10.052218630429815,-0.2642520801245576,0.8423609544860492,-0.27796806147360964,-10.170915867553452,39.13865859973059,24.336878286259704
1760680305.0390031,-9.865086588046747,-0.2745810759094808,0.8474415950541683,-0.28753761373618836,-10.906922602704533,39.00059042325332,23.14038315799678
1760680305.048771,-9.696782955859964,-0.28023860684188096,0.8559618985099419,-0.2973186564092918,-11.698492759591838,38.16855784519553,22.36772425153137
1760680305.0587332,-9.540083314512557,-0.28044706800519437,0.8683933041606761,-0.3066066401178999,-12.527049141039134,36.75207555105751,22.015444167261315
1760680305.068844,-9.387443983958049,-0.2753841541288732,0.8852752830325342,-0.3145510990480341,-13.36097270034664,34.91531358123688,22.018744977388856
1760680305.078755,-9.232251858089812,-0.26602840718563486,0.907091495799305,-0.3201493421997246,-14.163117615386708,32.851179572967624,22.251364522630507
1760680305.088961,-9.069937353222345,-0.2538288119137672,0.9341186603853118,-0.32226221563967705,-14.900204536415634,30.751066874344357,22.534246562585103
1760680305.0987582,-8.898754795389678,-0.24030375997852635,0.9662823585477447,-0.31967600583112427,-15.552378417687011,28.77652464353072,22.65275560991737
1760680305.1086795,-8.720108471073377,-0.22667447308103683,1.0030533808359507,-0.31122265907189817,-16.121061392919586,27.038370198628527,22.380601833726793
1760680305.1190114,-8.538390602114115,-0.2136135881480724,1.0434081554681167,-0.29595215981250583,-16.63339000057484,25.586898470892592,21.50742384086884
1760680305.129057,-8.360383558425152,-0.20115598006314378,1.0858608070701452,-0.2733326298640779,-17.14202417056485,24.414309147155365,19.86633286091831
1760680305.1390667,-8.194347348660212,-0.1887813763087085,1.1285594446999192,-0.2434393401685938,-17.71985898555466,23.46782876320947,17.357673383631052
1760680305.1489844,-8.048952257904842,-0.17563959576251353,1.169429488033517,-0.20708689506829098,-18.44999815354065,22.669858636035077,13.965688065467786
1760680305.159088,-7.932223622757442,-0.1608580982930902,1.206341077688859,-0.1658632929371542,-19.41213377653013,21.94033157171925,9.765540385280113
1760680305.168959,-7.850650412659411,-0.14385915723111994,1.237274764742038,-0.12204150884912215,-20.667148224649587,21.216519378847433,4.919154787921107
1760680305.1791947,-7.808582855057509,-0.1246239178852493,1.260462591078005,-0.07836950785478669,-22.24223143806755,20.46661258528299,-0.34044762955988034
1760680305.1890125,-7.808011504910383,-0.10386417430954159,1.2744922218983585,-0.0377654938632642,-24.11898241026705,19.6950079174898,-5.735220741275661
1760680305.1988623,-7.848776802007968,-0.08308485458376608,1.278374225130363,-0.0029648382837567434,-26.226758062535243,18.9388756055988,-10.975926585401337
1760680305.2088854,-7.929197452040385,-0.06453114252670984,1.271578460859073,0.023824839960461423,-28.442943780122896,18.25692533765685,-15.799624086563854
1760680305.2190468,-8.047029182982648,-0.05101517775020489,1.254044977950164,0.04120428396210332,-30.600901863660727,17.71226224229149,-20.005677294809843
1760680305.2289696,-8.200587064347822,-0.04561730158663492,1.2261750246579932,0.048753532818000496,-32.50519815266652,17.351889098884108,-23.48485389445182
1760680305.2387166,-8.389806473254684,-0.051266096173229886,1.188810858170042,0.047067464739919886,-33.95246661131548,17.185910066751067,-26.236669412974145
1760680305.2489183,-8.616999492149334,-0.07022617806800392,1.1432137529772617,0.03765280789424525,-34.75517955520067,17.16992576150655,-28.371561389250402
1760680305.2607388,-8.887096861803984,-0.10356037510837934,1.0910441599267011,0.02270217336075501,-34.7649147931868,17.194395909314945,-30.096581383866305
1760680305.2687562,-9.207253061353034,-0.1506716777515024,1.034338286327502,0.004775189759843276,-33.891647245032644,17.084580739707093,-31.68579130996236
1760680305.2786925,-9.585824430159843,-0.20905296434656373,0.9754660322417948,-0.013567721237326809,-32.116162955563034,16.613668250449084,-33.43905700301211
1760680305.2886615,-10.030882122220474,-0.27436089462115026,0.9170500786747601,-0.030117209893891,-29.49374547546512,15.52961242544045,-35.634989224164855
1760680305.2986927,-10.548550756591373,-0.3408721430997027,0.8618278666127865,-0.043284420021074424,-26.148607904480226,13.593202644096698,-38.484978390424594
1760680305.308986,-11.141522502141445,-0.40228107105638217,0.8124500023336612,-0.052234829212576175,-22.259954234720396,10.621648677548587,-42.09535590070713
1760680305.3187826,-11.808057156219933,-0.45269143604047574,0.7712304583112162,-0.05686896446550838,-18.041860662410908,6.529556243173655,-46.44366525672359
1760680305.328658,-12.541654213713903,-0.4875883455141283,0.739888922617571,-0.05767393411797777,-13.720112030012194,1.3585158685871073,-51.373047167183366
1760680305.3389535,-13.331421830228507,-0.504577511399712,0.7193412472543721,-0.055498753121599236,-9.509427880418498,-4.711995569044995,-56.606202452913664
1760680305.3490224,-14.163025033024672,-0.5037363396722643,0.7095907960562524,-0.05131311016039648,-5.5940533577142135,-11.376357356126771,-61.77765783054329
1760680305.3589664,-15.02000590500935,-0.48750801580979886,0.7097520399948866,-0.045996675277704166,-2.113689357512813,-18.236687595240664,-66.48040462347176
1760680305.3690927,-15.885241809023805,-0.460166258758692,0.7182062107936633,-0.040186711257214076,0.8443587230176237,-24.853826411026606,-70.32071278547933
1760680305.3788762,-16.742336625998824,-0.4269711059729636,0.7328577059536461,-0.03419783075643296,3.2467452164437387,-30.80678500154813,-72.97341034860221
1760680305.388688,-17.576803271467103,-0.3932050546412341,0.7514389301819006,-0.028021820882458675,5.109748199884746,-35.75006259134058,-74.22946306741679
1760680305.3989236,-18.376965434559867,-0.3633025613995848,0.7718066020688639,-0.021409581756288588,6.489763281806647,-39.45827895832047,-74.02844186210649
1760680305.4087136,-19.13456003910804,-0.3402537363077987,0.7921830595008116,-0.014022347700579028,7.469883525765969,-41.84979595561009,-72.4704420806025
1760680305.4188566,-19.84504967443048,-0.3253813871478889,0.8113128697219669,-0.005616139474357274,8.14452667697723,-42.98520100403593,-69.80505221839765
1760680305.428787,-20.50765906637432,-0.31848380581874147,0.8285192763415241,0.0037963274929290283,8.604594887596601,-43.041876534575636,-66.39864685705224
1760680305.438794,-21.125143865396875,-0.3182419820439474,0.8436566547161649,0.013863774317672573,8.925602657578727,-42.27102511579149,-62.6849525827709
1760680305.4488242,-21.703299237183234,-0.3227429625543288,0.856970292471549,0.0239290080588457,9.160485259578401,-40.94698309265782,-59.10672237909334
1760680305.4586818,-22.25023029844298,-0.3299792781437532,0.8688941990618326,0.033169539032722975,9.337644630563743,-39.319448058205005,-56.05777245221726
1760680305.4689837,-22.775436180182265,-0.3382296816581166,0.8798328441667981,0.040798928516875554,9.463623205053835,-37.57736876285756,-53.8343047090275
1760680305.4793065,-23.288794781063388,-0.34628156887084205,0.8899751336476849,0.046260987416916435,9.528990989839782,-35.82962667585001,-52.60253181499972
1760680305.489118,-23.799562342255644,-0.3535007224277723,0.8991782012320866,0.04935648424916377,9.515740723842562,-34.10353918771159,-52.38658907576504
1760680305.4991112,-24.31550972765018,-0.3597825860392602,0.906940714957976,0.05027027707821616,9.404632403157285,-32.358679566786684,-53.077151439258444
1760680305.5089288,-24.84230133354689,-0.3654315979786921,0.9124664130594082,0.04950058824451354,9.181335096883107,-30.51115465162048,-54.457750781547176
1760680305.519126,-25.383184720533055,-0.3710125114420837,0.9148018879296949,0.04771900921519045,8.840724382761938,-28.462505335180428,-56.243139898185674
1760680305.5289807,-25.939005988987528,-0.37720355927843785,0.9130196624632523,0.045604212483118196,8.389184914271024,-26.127658726876057,-58.1226086609462
1760680305.539528,-26.508508865153196,-0.38466484819401303,0.9064094641222931,0.04369377582690352,7.84513684978189,-23.457520778333343,-59.8010828563656
1760680305.5493226,-27.088828556868137,-0.39392646954460747,0.89463928357062,0.04228849649250644,7.238200234287454,-20.453437431808744,-61.032022292482054
1760680305.5590243,-27.67606677291572,-0.40530134434741094,0.8778547343071178,0.0414253875130011,6.607449488893226,-17.172476604262645,-61.638275852622876
1760680305.5689404,-28.265836748537147,-0.4188307358905783,0.8566987084702337,0.040915527532257245,5.999139807515047,-13.724000080202597,-61.5196912771893
1760680305.5788128,-28.853692248770653,-0.43426821647592334,0.8322493967912209,0.04042839286694897,5.464157338685713,-10.259145542305076,-60.64883718700209
1760680305.5888233,-29.435391140456765,-0.45109972582486485,0.8058901232349006,0.03959890078507604,5.055307193825679,-6.95554094559409,-59.05807804335607
1760680305.5992806,-30.006980430545887,-0.46858803659054465,0.7791366377866606,0.038135319462379025,4.824458232838084,-3.999770579456081,-56.822066584315536
1760680305.6088967,-30.56471886756963,-0.4858252140969191,0.7534535788357466,0.03591089829073549,4.819535111282611,-1.5698253410107852,-54.039484890682616
1760680305.6188636,-31.104874571416413,-0.5017794238929194,0.7300900676749876,0.03302627139624067,5.081373709131509,0.18086781062555146,-50.81690020870458
1760680305.6289256,-31.623450737679285,-0.5153317742551448,0.7099571530331735,0.029833003890524932,5.640511772126558,1.137016911746571,-47.256344652163975
1760680305.6387415,-32.1159032312628,-0.5253113035005805,0.6935621758723582,0.026912325651130387,6.51406189765247,1.2324735929493094,-43.44705615472393
1760680305.6488836,-32.57691881386017,-0.5305476431451406,0.6810098041486841,0.02500825908523223,7.702907546136905,0.4588293883685671,-39.460970393399904
1760680305.6591442,-33.00031989390491,-0.5299665405220656,0.6720741976457699,0.024921185638073363,9.189565369400006,-1.1283726288553646,-35.35112947680815
1760680305.6690087,-33.37914822521776,-0.5227465281859406,0.6663376480198826,0.027375362910578814,10.937138658192843,-3.406247545672434,-31.152146852115077
1760680305.679047,-33.705953022965616,-0.5085314260366892,0.6633774598478759,0.03288006880857865,12.889786641620558,-6.185007391663519,-26.88209843585007
1760680305.6888309,-33.97327036096284,-0.4876609181541187,0.6629681989854683,0.04160727272631028,14.97498526931019,-9.213626945609,-22.545498229737692
1760680305.6989608,-34.17424043128982,-0.46135809841604447,0.6652561112688149,0.0533084670623027,17.107550387470706,-12.192107227319937,-18.137197777409945
1760680305.7087197,-34.303279762515245,-0.43181052727514646,0.6708611872223368,0.06728931715291045,19.195026443457824,-14.791158491996194,-13.647059352700904
1760680305.7191074,-34.35671246741544,-0.402096842776995,0.680871561953131,0.08245224173515306,21.143753117858633,-16.679085213146728,-9.065137842449035
1760680305.7290149,-34.333265770985534,-0.3759351184716096,0.6967124682603206,0.09740392089706101,22.864811874416368,-17.554253257129375,-4.386959781003361
1760680305.7389836,-34.23434742788968,-0.35725801911499244,0.719893726366853,0.11061047626419947,24.279154628627328,-17.17998322989637,0.38162576625630423
1760680305.7490041,-34.064046981538254,-0.3496541854467315,0.7516623576703372,0.12057305144814648,25.321494704630908,-15.417388943655908,5.2206128930802125
1760680305.7589617,-33.82884087077108,-0.3557532021500935,0.7926083428176075,0.12599333917004696,25.942915070221762,-12.250957467371894,10.093603267759795
1760680305.769177,-33.53703022627529,-0.37666363953417076,0.8422899754596833,0.12590144547403645,26.11250869598849,-7.801864274097253,14.947631558849238
1760680305.7791293,-33.197989835918875,-0.4115860358672329,0.8989577109188707,0.11972691737342107,25.818604291733017,-2.325292118754269,19.715258641879995
1760680305.788877,-32.82134307958672,-0.45770575828827587,0.9594576432170638,0.1073079154966172,25.070178945101468,3.809701754667752,24.318793444763614
1760680305.798819,-32.416189028937566,-0.5104263974092624,1.0193830613106407,0.08884990311118422,23.89887956441586,10.156347988917735,28.67616147872244
1760680305.808963,-31.990490928089297,-0.563942516071804,1.0735103611340346,0.0648568883169943,22.361641253766532,16.238115268853313,32.707699742865614
1760680305.8189418,-31.550695464061118,-0.6120808392137541,1.1165011045916713,0.0360610835200048,20.54321421899531,21.602060858796374,36.34308471972677
1760680305.829111,-31.101600851014318,-0.6492706917157922,1.1437788737881118,0.003372843840682975,18.557110521327818,25.870006316825965,39.52766865744498
1760680305.838993,-30.64644174756543,-0.6714525369783092,1.1524136693885807,-0.03213531283095889,16.542844071264078,28.779757753131612,42.227635083810796
1760680305.8488286,-30.187122164766482,-0.6767197508656783,1.1417974249489717,-0.06921149692706811,14.657312672171084,30.20951605141183,44.43353772241947
1760680305.859803,-29.724511878137847,-0.6655336996300898,1.1139061941571764,-0.10639895809977173,13.059227078435747,30.1811191739646,46.1619320525812
1760680305.868898,-29.25872934919144,-0.640457007571935,1.0730361743581671,-0.14205028906953018,11.887736945334984,28.84200919609996,47.454913838515864
1760680305.8790164,-28.789359557630057,-0.605483056855974,1.0250511975517633,-0.17442913778905586,11.239173044596612,26.430860922941317,48.37744488067895
1760680305.8891091,-28.315588443832652,-0.5651483616407375,0.9763282275560172,-0.2019124043980701,11.147755616188345,23.235581355728847,49.0124487423004
1760680305.899093,-27.836267127894498,-0.5236578249891215,0.9326691980988546,-0.22325330170985974,11.575966802282935,19.553151135820382,49.45387430649227
1760680305.9088705,-27.349942390135194,-0.4842243346174841,0.8984332577344383,-0.23782758668133602,12.41788380611999,15.658487544023513,49.79821228662464
1760680305.9189053,-26.854901063930413,-0.4487431416626928,0.8760518403762013,-0.24578155543254834,13.515162503625431,11.785616955463365,50.13518674966751
1760680305.9289918,-26.349272204903116,-0.4178175715744656,0.8659653400153349,-0.24802823429086296,14.682026564231148,8.120647456297517,50.53847882459994
1760680305.9390557,-25.83121277086657,-0.3910588670417433,0.8669098636209726,-0.24608312556549408,15.733629636938247,4.8034075582006395,51.057422383382246
1760680305.948963,-25.299175698018185,-0.3675280422751091,0.8764158405454363,-0.24177774614201117,16.511900455292782,1.933551029944036,51.710662526040196
1760680305.9588974,-24.752231561177584,-0.3461818103912813,0.8913683559110275,-0.2369238980420569,16.90424614772884,-0.42270928780748374,52.482716083994774
1760680305.968729,-24.19039276622962,-0.32621611900319963,0.9085137892311328,-0.23301250425452452,16.852681134146785,-2.2277812159711856,53.32414825526254
1760680305.9790013,-23.614876759445078,-0.3072495422425127,0.9248545507659519,-0.231014809032919,16.353328119821363,-3.4707234652554053,54.15569935093839
1760680305.9888165,-23.028245544378517,-0.28933961757170323,0.9379246893102086,-0.23131905502283281,15.448172996302326,-4.16761674631639,54.87623947781331
1760680305.9991994,-22.434374512535197,-0.27286758324683436,0.9459653412761045,-0.2337966671812358,14.21207547530269,-4.362732881374499,55.37396112547912
1760680306.0091152,-21.83823179780941,-0.25835156298993883,0.9480191268637831,-0.2379606037419106,12.738263536317405,-4.128481927934403,55.53976759458678
1760680306.019031,-21.245483550801637,-0.24625100262416413,0.9439488848258611,-0.24316154797771342,11.12503758170342,-3.562265849677381,55.28140949254379
1760680306.0289876,-20.66197301090166,-0.23681160066229046,0.934374811737441,-0.2487672779949058,9.465472536348233,-2.7790910253113776,54.53663506294439
1760680306.039002,-20.09314658603958,-0.22998125718041396,0.9205260409068067,-0.25428507928508653,7.840832429443881,-1.8999113947111195,53.28354645498356
1760680306.0488403,-19.543515434256168,-0.22541107048073855,0.9040184847703912,-0.2594101981649934,6.317451775957009,-1.0369229678954948,51.54654901200695
1760680306.05905,-19.016243090764664,-0.2225400955625858,0.8865918485420641,-0.26400646692301016,4.94617707012242,-0.2781119385975805,49.396742428491486
1760680306.069093,-18.512934313014398,-0.22074432116656523,0.8698535247151882,-0.2680414132485832,3.763195805722017,0.3260013592822537,46.946289664565
1760680306.0789945,-18.03366633771754,-0.21951068298064924,0.8550777190029312,-0.2715046201660538,2.79118684402289,0.7704921419956147,44.33713722082746
1760680306.0890994,-17.57725687090061,-0.21858507950683265,0.8430941347433165,-0.2743360245242532,2.0400785495749676,1.0968546871017215,41.72533573948478
1760680306.0989478,-17.141714911493704,-0.2180482067525247,0.8342773983948542,-0.276383327470536,1.5071396147297158,1.3857168293738542,39.26297437385523
1760680306.1091013,-16.72478335427963,-0.2182939841936387,0.8286237361902463,-0.27739761180910477,1.17652958337291,1.742330485792867,37.080235479658064
1760680306.118991,-16.324464634400663,-0.21991280174208383,0.8258820575224114,-0.277065782642546,1.0187373657089556,2.2773084430593653,35.270182660534296
1760680306.1287706,-15.939424595673941,-0.2235056334716851,0.8256972673974663,-0.2750695097283592,0.9905001845133055,3.086174158775917,33.87859471327414
1760680306.138885,-15.569192183408896,-0.2294702212445671,0.8277257016189858,-0.27115459541467124,1.0357914575824159,4.231640156236468,32.90050536056622
1760680306.149136,-15.214108978587907,-0.23780712068076368,0.8316943391684984,-0.26519330173353506,1.0882957820589563,5.732077791918433,32.28418016316908
1760680306.1589506,-14.875030422603293,-0.2479942159057987,0.8373939537040509,-0.25722589210343444,1.0755181639189189,7.558535909515769,31.942139902996885
1760680306.1690319,-14.552837335445819,-0.25897461764404117,0.8446185575323493,-0.24747590372089928,0.9243941816014742,9.6411363833127,31.76762779913845
1760680306.1790698,-14.247873014489176,-0.26929006067700056,0.8530850240887132,-0.23634366587108685,0.5680197069889049,11.883896839014596,31.653767685895478
1760680306.189022,-13.959458335375354,-0.2773612555015467,0.8623795032218114,-0.2243898166091418,-0.047118610155900215,14.185151167087076,31.511816704178987
1760680306.1990273,-13.685632764059775,-0.2818672953285128,0.8719700722421034,-0.21232007170757367,-0.9542775629196932,16.459049118751317,31.284728867123235
1760680306.2088273,-13.423216109930896,-0.28212691647566723,0.8812945981324154,-0.20097207860888047,-2.1610193372488493,18.6526924099658,30.953028805379
1760680306.2190354,-13.168200422369706,-0.27836397308322425,0.8898950148605637,-0.19129053954141859,-3.6462763731515624,20.753994345430918,30.5317552179528
1760680306.229091,-12.916391090708307,-0.2717622935043925,0.8975497592953585,-0.18426956881442405,-5.360714496958012,22.787602223758313,30.059520212207836
1760680306.2391202,-12.664146710859361,-0.26427275941815753,0.9043642547338846,-0.18084808322718673,-7.230656206376263,24.799600173769715,29.58278033636322
1760680306.2491221,-12.409040243060248,-0.25820751924408086,0.9108015606644251,-0.18176078781409002,-9.165205170720018,26.83496461992699,29.139491657663456
1760680306.2589257,-12.150290106992589,-0.2557180290918399,0.9176544066490105,-0.18736504496197934,-11.065673712959251,28.91373205313597,28.74606806932956
1760680306.2689471,-11.888877617049523,-0.258282801708671,0.925969224556126,-0.19747579242506522,-12.836056153691406,31.012097585221973,28.39019484082114
1760680306.2791479,-11.627348077134846,-0.2663208261794722,0.9369341086458155,-0.21124447219005774,-14.393169566810602,33.053392129207246,28.030218292750206
1760680306.289107,-11.36936165873277,-0.2790104678542349,0.9517399652080983,-0.22711560713454565,-15.675231999328117,34.91160249059049,27.600228188309963
1760680306.2992728,-11.119104589041617,-0.2943479610889199,0.9714220400470601,-0.2428887084245384,-16.648026227846103,36.4273677890076,27.018989306497286
1760680306.308792,-10.880686260918589,-0.309431805237389,0.9966914352474537,-0.25590270099087453,-17.3082608956363,37.43372652373279,26.200643727425458
1760680306.3191116,-10.657632634298071,-0.32091343139022804,1.0277741463108527,-0.26334208342568516,-17.68410111720613,37.78677353850746,25.065421323303372
1760680306.3288715,-10.452547785035366,-0.32552145744496175,1.0642845980609863,-0.26263841962435025,-17.832980344290252,37.39523823778308,23.549152407296337
1760680306.3389912,-10.266969518220755,-0.32056087232588487,1.1051639608763264,-0.25191217222864465,-17.836763026325826,36.24309316413715,21.610875650433226
1760680306.348786,-10.10140830778964,-0.3043119968230705,1.1487047099435572,-0.23037623568185828,-17.79427460224479,34.40063905141742,19.23812655694546
1760680306.359462,-9.955539613784813,-0.2762918982350137,1.1926633024137407,-0.1986126205745272,-17.811339122540836,32.02177044685176,16.44960365997625
1760680306.3691854,-9.828515176390027,-0.23737261723522804,1.2344415893133822,-0.15864486112433326,-17.988837410429987,29.327764309041527,13.294946112979176
1760680306.3792496,-9.719360995529584,-0.18976585752633987,1.2713048223041932,-0.11376276873601714,-18.409821172500127,26.580311288083035,9.851393814855802
1760680306.388928,-9.627431146740715,-0.13688556660929993,1.3006036156719625,-0.06810690065559212,-19.127185223258177,24.048088679554752,6.217191433045069
1760680306.3993723,-9.55288377134097,-0.0830970999432883,1.319975999708761,-0.026074677918040187,-20.153628417958817,21.971758941722186,2.501822443367946
1760680306.4087543,-9.497137979726999,-0.0333618495381997,1.3275184125694766,0.00834656631231997,-21.45554968566587,20.532021985287688,-1.1864053199472095
1760680306.41917,-9.463259172139823,0.007208662581648139,1.321925600132468,0.03219417888243296,-22.952152415664777,19.824541086328587,-4.7542741680808716
1760680306.4292269,-9.456207984721198,0.033866311382917055,1.302604226020116,0.043974768273501615,-24.52043665853803,19.844475463318144,-8.137244302925433
1760680306.4391,-9.482879790674362,0.04277199348768747,1.2697620246285426,0.0438538056622904,-26.00602857785502,20.482231254318446,-11.310386632476474
1760680306.4489324,-9.551865102999377,0.03152155961029935,1.2244661812026894,0.03355512985483341,-27.23901912699092,21.531050916382686,-14.294245677050268
1760680306.4591906,-9.672883803940316,-0.0004163248312141074,1.1686561479724968,0.015992798018897244,-28.05323165564182,22.70619844892842,-17.153669369915022
1760680306.4690113,-9.85589088184166,-0.05142899329130913,1.105091466994784,-0.005287496842623321,-28.30667286587388,23.6746089010172,-19.988591790715716
1760680306.4790664,-10.109914191721325,-0.11773047340376035,1.0372159263102005,-0.026739797088353633,-27.900440271702585,24.09278396790296,-22.91706847647685
1760680306.4888394,-10.441755230178046,-0.19362810716144502,0.9689258112057658,-0.04538945781232255,-26.793217425154875,23.64941559813417,-26.052392048561444
1760680306.4991798,-10.85474726784501,-0.2721002650879657,0.9042439168462768,-0.05922991574192254,-25.008849564505127,22.10790792883662,-29.477662611753523
1760680306.5089638,-11.347801875347502,-0.3456453742175082,0.8469238121162078,-0.06737785581955362,-22.63543180295523,19.342983359044403,-33.22242041781643
1760680306.5192387,-11.914962695335442,-0.4072968119287949,0.8000362271851365,-0.0699853036616373,-19.81575610689001,15.365282968263783,-37.24639625384787
1760680306.5291986,-12.545611898334647,-0.45163886832494843,0.7656103426183657,-0.0679682583366428,-16.73054280777381,10.328668306388826,-41.434687070793366
1760680306.5390356,-13.225350954454514,-0.47563103807196955,0.7444053303021732,-0.06264885651313024,-13.577185184079209,4.5170129781741055,-45.60667526741807
1760680306.5489538,-13.937435632104744,-0.47906699685640897,0.7358665324675621,-0.05541220988696035,-10.54736529459231,-1.6894848489175847,-49.538225272836414
1760680306.5589998,-14.664526811339789,-0.46455873211419874,0.7382815163141039,-0.04745300452384604,-7.806717498925135,-7.864570522133925,-52.993844079070804
1760680306.5691102,-15.390459448266226,-0.43703190160545236,0.749107059542081,-0.03964363521621177,-5.478929509587417,-13.595269879666722,-55.763280191339234
1760680306.5790105,-16.101746879060755,-0.40282396319165537,0.7654025143350223,-0.03251217528812576,-3.6356807641101243,-18.54041783709985,-57.695937723429786
1760680306.5889893,-16.788613593357212,-0.36856393112094016,0.7842864607004802,-0.026290591497695116,-2.292950461590124,-22.478117720154387,-58.72672672656528
1760680306.5991116,-17.44545594096548,-0.34005753127082794,0.8033343740411633,-0.020990037195496126,-1.4135832293903485,-25.333657660084477,-58.888531571501105
1760680306.6090403,-18.070737177912314,-0.32139370711512233,0.820852514114946,-0.01647629478553056,-0.9155103502591284,-27.182997801497358,-58.30905784468076
1760680306.6189666,-18.666410989194947,-0.3144313245467401,0.8359917330008122,-0.012537899475163185,-0.6845837014632287,-28.2315398283808,-57.192832712166116
1760680306.6291444,-19.237024322550898,-0.3187322518549288,0.8486976855477885,-0.00894695265540773,-0.5905230059246495,-28.772481761762883,-55.79183927435891
1760680306.6390555,-19.788670170862307,-0.3319028664861195,0.8595241526168774,-0.005507687958261085,-0.504029662093024,-29.132659183988615,-54.37004567083525
1760680306.6487665,-20.327946484974547,-0.3502220626498971,0.8693577843178755,-0.002082530654321998,-0.3128445404874288,-29.61565415809431,-53.16769854596095
1760680306.659044,-20.86104103614504,-0.36939584309979395,0.8791125387843385,0.001410204017649142,0.0653568027057244,-30.451790409694336,-52.37079337852327
1760680306.6689517,-21.393020376820775,-0.3852912227400615,0.8894515020514148,0.005020088550608238,0.6747639581571193,-31.76259087774438,-52.089883515535014
1760680306.6789622,-21.927365976877635,-0.39454687548119494,0.9005849498809183,0.008791503105429224,1.5186151780873727,-33.544006404785485,-52.35065761919723
1760680306.6887674,-22.46577457510667,-0.3950072631374705,0.9121773323286269,0.012773949140230095,2.5616314061008287,-35.669171156030295,-53.09681907182681
1760680306.6990423,-23.008218186166136,-0.38596194871705836,0.9233735058106426,0.01700654174906311,3.736953928997352,-37.90845389188089,-54.20403161762661
1760680306.7088246,-23.553236744474003,-0.3681894698811776,0.9329304862201563,0.021484234411717047,4.95646210297821,-39.96263454023341,-55.50227122210033
1760680306.7194126,-24.09841202111639,-0.3438147850924127,0.9394222170903838,0.02612605263876917,6.123152075940498,-41.50417439965222,-56.80296403559422
1760680306.7291014,-24.640948984706984,-0.31600188631364584,0.9414765733745444,0.030765891463773946,7.144169958508063,-42.22144773771515,-57.92683436858117
1760680306.7388792,-25.1782759343706,-0.2885214963650974,0.9380058674553996,0.03517422958541775,7.943064782683229,-41.861047386781486,-58.72845631378252
1760680306.7491543,-25.70857220677863,-0.26525131495734444,0.9283994430947052,0.0391028853287817,8.469863143240726,-40.26364108590949,-59.114121797398944
1760680306.7592564,-26.231143827284647,-0.24967485010705198,0.9126544287134574,0.04233469026286588,8.707724413191746,-37.389383386679654,-59.05075989154489
1760680306.769057,-26.74659146898736,-0.2444421349821082,0.8914272525101467,0.044720164103461,8.675280481784512,-33.32973965684559,-58.56509216254484
1760680306.7790287,-27.256747222071994,-0.2510453377201477,0.865996471471037,0.046191439520366875,8.424317805071142,-28.30384649049804,-57.73373114536368
1760680306.7889965,-27.76439128129787,-0.26964814141689586,0.8381388040157088,0.046754017670344164,8.033138765372415,-22.639184733402818,-56.66626935586523
1760680306.7990994,-28.272790796449012,-0.299089197216799,0.8099330920567227,0.046464903717900775,7.59656751827556,-16.73825965799447,-55.48435229326155
1760680306.8090525,-28.785125967384566,-0.3370553969599258,0.7835168275750094,0.04540931905449488,7.213977599366287,-11.034976969023495,-54.30013608724583
1760680306.8192313,-29.303880082393604,-0.3803930796285963,0.7608248952313279,0.043686673796502117,6.976858873666545,-5.94615569920259,-53.19735583238433
1760680306.8289814,-29.8302696031075,-0.42550166457448957,0.7433421735329641,0.04141009689621063,6.957366595946617,-1.824700485229971,-52.2175525534513
1760680306.8388834,-30.36377891880401,-0.4687423565569861,0.73190245901402,0.038715683625316334,7.199110432682775,1.0790125071132561,-51.35300069868019
1760680306.8493257,-30.901846060173714,-0.5068000164933436,0.7265651383531478,0.03577264755649697,7.71123085565361,2.6421595673170715,-50.546754673492906
1760680306.8591578,-31.439725846150573,-0.5369582583489676,0.7265960143266081,0.032786483270768295,8.466592089818729,2.877768252747751,-49.69918837117505
1760680306.8688776,-31.97053977843773,-0.5572766889476127,0.7305674549806873,0.029992472190170313,9.40463428337781,1.9259938204372689,-48.67959957313489
1760680306.8789818,-32.485509074507156,-0.5666821302371213,0.7365745091344577,0.027642322475709864,10.438975022898635,0.03084911279175138,-47.34100119731849
1760680306.889227,-32.97435806787928,-0.5649961507545398,0.7425406465508997,0.025989477865507753,11.469187850850576,-2.493055831445525,-45.536154183050506
1760680306.8988092,-33.42586835271742,-0.5529207961272389,0.7465667730453699,0.02527860679190059,12.39539672765655,-5.298242634308408,-43.133165534570935
1760680306.9091074,-33.82855778449936,-0.5319967297037482,0.7472675457554327,0.0257427377725517,13.133596661680983,-8.041287259933682,-40.02947241696198
1760680306.9192145,-34.17145095243159,-0.5045357861743762,0.7440415830646283,0.02760681714548284,13.629145636518293,-10.414830656532924,-36.1635897752442
1760680306.9289165,-34.44489725317524,-0.4735166711540059,0.7372331444564996,0.031089466049847712,13.865851588814959,-12.17212026932011,-31.524393496627063
1760680306.9388652,-34.64137852052203,-0.4424232347044446,0.7281575639934977,0.036389590387335226,13.868634958023788,-13.142957446799151,-26.157761253850744
1760680306.949199,-34.75623215848635,-0.41500424373860373,0.7189789501412728,0.04364641036634811,13.698883787515447,-13.240980622438581,-20.170080356273562
1760680306.9590688,-34.78820280635332,-0.39494450729518893,0.7124461499063097,0.05287095105351407,13.443120433286156,-12.462863235024125,-13.727630856823943
1760680306.9692144,-34.73973266286787,-0.3854586611585892,0.7115115074695966,0.06385955028633129,13.197082584171348,-10.880369992125829,-7.050461466682839
1760680306.979338,-34.616914404573585,-0.38884636479312984,0.7188756995065899,0.07611081334410463,13.048383510260251,-8.62648781610942,-0.3994242542044179
1760680306.9892054,-34.42906458283431,-0.40607405620389075,0.7365191082113891,0.08877438420417345,13.061279110415104,-5.877201549921727,5.944247479424858
1760680306.9988065,-34.187926989722044,-0.4364655218524415,0.7652920615054636,0.10066046488488284,13.266645200603698,-2.830953923614663,11.706054647156607
1760680307.0092607,-33.90657582027592,-0.47758422521525445,0.8046378973297946,0.11032948908197925,13.659148618362357,0.31175545652968645,16.64952563688015
1760680307.0189822,-33.5981442885169,-0.5253712993184189,0.8525113801628115,0.11626092151853049,14.202012670401887,3.366095053627558,20.60750118202443
1760680307.0291855,-33.27454196932845,-0.574565254039706,0.9055313652841027,0.11707414911719036,14.838082107381052,6.175860186024606,23.50811494381836
1760680307.039038,-32.94533386866597,-0.6193764411716588,0.959372649969919,0.1117519623374446,15.504495726739316,8.620558697538794,25.390060769839938
1760680307.0489483,-32.616933487936855,-0.6543276403563697,1.0093585186172283,0.09980787518859029,16.14751176921547,10.616841362126706,26.402913911976253
1760680307.0589209,-32.292214790430435,-0.6751138324896164,1.0511656235332048,0.08135163354583624,16.73404647133901,12.11576293181224,26.79070971647246
1760680307.0691137,-31.970581982805687,-0.6793002552754835,1.0815071426501603,0.0570445478528124,17.257235746060864,13.098061422751332,26.860240564222106
1760680307.0793464,-31.648463368543744,-0.666693102103031,1.098638087076015,0.027980344216164896,17.734658742969923,13.569448796386254,26.938845922410486
1760680307.0889168,-31.32013212504469,-0.6392919003386361,1.1025503629155016,-0.004453515326814513,18.19955811182029,13.556979541812048,27.32892608781445
1760680307.0988123,-30.978717776070255,-0.6008452304997425,1.0948036539532702,-0.03869961940588861,18.687191881546532,13.106527019481371,28.267222999693974
1760680307.1089764,-30.617263346024266,-0.5561354473259483,1.0780493781407148,-0.07314348211907916,19.219969690372256,12.28083028901013,29.895776080022703
1760680307.118998,-30.229698004008664,-0.5101707077522136,1.0553997585805894,-0.10623889286096065,19.795701030306354,11.157522688501937,32.24872210176389
1760680307.1289566,-29.811621677600886,-0.4674529886596697,1.0298280543974456,-0.1366550622550907,20.38261429445426,9.826642526405132,35.2556105158577
1760680307.1388378,-29.36083064540082,-0.4314399595475253,1.0037490098077841,-0.1634239017405443,20.92281548789823,8.387106742441254,38.758657994330655
1760680307.1491988,-28.8775506153318,-0.404254198132866,0.9788445272073826,-0.18604440667954697,21.343251091307543,6.941628986550871,42.53920205560272
1760680307.1591978,-28.364382242550157,-0.3866331368384426,0.9561072325946848,-0.20450408899002573,21.5710178356671,5.589831573016433,46.347921811380324
1760680307.1690862,-27.825996032030208,-0.37806942927346204,0.9360102608665464,-0.21920210006621954,21.54878167792368,4.419887710647515,49.93400344162985
1760680307.1792386,-27.26863441320967,-0.37707168737631047,0.9186967293097266,-0.2307917962076363,21.24638927185943,3.499736662023959,53.06979214855472
1760680307.1890957,-26.699488215387724,-0.3814777355997911,0.9041145774244181,-0.2399869990748482,20.666218568166904,2.8694206867992036,55.56902897010934
1760680307.1990442,-26.126015164156296,-0.3887685949514007,0.8920774109360396,-0.2473859740215521,19.841781467664624,2.53615667516111,57.29815325954495
1760680307.208932,-25.555263068105322,-0.39635327673078335,0.8822792783890054,-0.2533582003580946,18.830845587529478,2.473354383922599,58.181177935106035
1760680307.219198,-24.993253610984294,-0.40181376250772605,0.8743110552751092,-0.258016615336314,17.705398468416846,2.624097917763697,58.19926656436993
1760680307.228942,-24.444475848178612,-0.40310926192310526,0.8677151802581808,-0.26127120421464883,16.540985765444574,2.9088429580034236,57.38641342520955
1760680307.2389977,-23.911531577158243,-0.3987390039163226,0.8620851108971042,-0.26293760794669196,15.407449010367472,3.2364176123028727,55.822639444546674
1760680307.2490757,-23.394966943902677,-0.3878597566219515,0.8571845058342783,-0.262862935283103,14.362197460339948,3.5169345207457368,53.625921958748556
1760680307.258855,-22.89331493492012,-0.37035289256246684,0.8530441210391615,-0.2610317657427587,13.446262453123607,3.674957235366399,50.9437033736393
1760680307.2704732,-22.403360202324667,-0.3468360987490717,0.849996643430051,-0.25762563827257795,12.68277663274224,3.661217076314048,47.94434742403303
1760680307.2789142,-21.92061890304262,-0.31861563086748407,0.8486272869696598,-0.25302413022678666,12.07725545596586,3.461317700712664,44.80846550771892
1760680307.289133,-21.440000575208284,-0.28757719808089205,0.8496438275881196,-0.24775064053945917,11.619036240126265,3.1001410319159155,41.719746815012016
1760680307.2991374,-20.95658820154251,-0.2560183091366419,0.853695434096879,-0.24237897579746595,11.283328268579847,2.6410484753132004,38.85487560174469
1760680307.3091824,-20.466442585919577,-0.22643127631385224,0.8611859402275083,-0.2374263927745698,11.033488338868647,2.1794829380884466,36.37235649619738
1760680307.3192766,-19.967316737178788,-0.20125199237502747,0.8721281136653998,-0.23326269746170814,10.82335229463378,1.8312833379805475,34.40059050676298
1760680307.3290133,-19.45916343744387,-0.1825946784007396,0.8860720524882748,-0.23006097342050577,10.59969913596655,1.7169219616734956,33.02622707725594
1760680307.3389308,-18.944340983880238,-0.17199869989989203,0.9021196702385593,-0.2278031082118423,10.305123834750134,1.9437988135313349,32.284418322144305
1760680307.3490226,-18.42747043851247,-0.17022064361394795,0.9190164553633094,-0.22633574623433814,9.88165626034092,2.589373248330217,32.152867643744194
1760680307.3589916,-17.914965047591654,-0.17710911910085805,0.9352978919189068,-0.22545609179650578,9.275336282138705,3.68800570142483,32.55135775060844
1760680307.3692338,-17.414318933879493,-0.19159447720375167,0.9494635245313966,-0.22499854551441742,8.441655250691943,5.223821451178254,33.34777499773531
1760680307.378822,-16.933283757470488,-0.21180745691402444,0.9601537702423849,-0.2248950208916741,7.35137963920252,7.130816842746295,34.37064742894133
1760680307.3888557,-16.4790654354981,-0.23531399121494584,0.9663077386188358,-0.2251919828856421,5.995907242459598,9.300111549505601,35.42709320894392
1760680307.3989031,-16.05764302509936,-0.2594276167644784,0.9672815336642072,-0.22602147334993355,4.391104313359267,11.593074233053393,36.32407964740796
1760680307.4088752,-15.673265792176947,-0.2815448700116499,0.9629081518252874,-0.22753697887903623,2.578625124401513,13.858268064455718,36.89023306787295
1760680307.4190617,-15.328140889777908,-0.2994471216185855,0.953487279106651,-0.22983431161070111,0.6240353333199864,15.949825586937433,36.995248208849006
1760680307.4289474,-15.022295519978805,-0.31152445658859806,0.9397078078101565,-0.23288103206193475,-1.3884131599757399,17.74486776248713,36.56425585339644
1760680307.4392154,-14.753588567708201,-0.3168990958771994,0.922523035086383,-0.23647529662044822,-3.3638802711417077,19.1578104744701,35.58524352014583
1760680307.4492886,-14.517854860700794,-0.3154498148643922,0.9030106130581865,-0.24024743024908515,-5.2068459204017055,20.149809073538766,34.1086279275844
1760680307.4589844,-14.309182161659304,-0.3077571688685943,0.8822515949559367,-0.24370733767243288,-6.831380311226603,20.732191430099576,32.239177595385854
1760680307.4688582,-14.120335161681794,-0.29499757284849315,0.8612551866514888,-0.2463308785656078,-8.17025706340897,20.963498204694346,30.121533855390734
1760680307.479073,-13.9433406246169,-0.2788115683143042,0.8409407700462734,-0.2476702206825345,-9.181637682858483,20.94057215321889,27.921439067747464
1760680307.4888835,-13.770225637843541,-0.2611599580855245,0.8221707737613324,-0.24746725295271527,-9.852530990448033,20.78486282420188,25.80531659963925
1760680307.4989996,-13.593855690490242,-0.24416578293306146,0.8058124776507324,-0.24574556217086693,-10.198797791497903,20.62563278015077,23.920983573391943
1760680307.5090568,-13.408760411490741,-0.229928449576921,0.7927985145514154,-0.24285638132536955,-10.2619972930611,20.58206263186368,22.382031777175357
1760680307.5200315,-13.211784349579007,-0.2202979512898073,0.7841563594237252,-0.23945924331285978,-10.103758695785602,20.746433661310423,21.257842810048686
1760680307.5290432,-13.002388315398516,-0.21661702989439266,0.7809852533873691,-0.23642996618093365,-9.798559377230788,21.170672696241468,20.57035087491048
1760680307.5390654,-12.782478905957966,-0.21947322625664095,0.7843727082717894,-0.2347055164779407,-9.425814700485112,21.858482865063593,20.29757431382782
1760680307.5491145,-12.555764262985518,-0.2285363842416318,0.7952600272844509,-0.23509304203017398,-9.062109067047087,22.764808122905364,20.382725399317863
1760680307.5590317,-12.326789335356679,-0.242565093577298,0.8142837709585712,-0.2380835608325659,-8.774316857509424,23.803244160486344,20.746608349283996
1760680307.569194,-12.099920173952121,-0.2596234314091973,0.841631144791994,-0.24371349905372158,-8.614322443287218,24.86026388807533,21.300341918626838
1760680307.5792742,-11.878551889655153,-0.27746422412321964,0.8769447002901625,-0.2515050096358704,-8.616003407730759,25.813335700397552,21.9555077396285
1760680307.5892146,-11.664703734495463,-0.2939573513852128,0.9192951357942174,-0.26049168677114104,-8.794966865692185,26.549047967287134,22.629768096175326
1760680307.5993428,-11.459008552757323,-0.3074226011790963,0.9672197136494367,-0.26931224634373996,-9.151133819856872,26.977746161018686,23.247594476747327
1760680307.609593,-11.260985127402902,-0.31677163528255636,1.0188096690475008,-0.2763441174864858,-9.673705451855536,27.042678434175563,23.737425345518744
1760680307.619258,-11.06943726931604,-0.3214422686522487,1.0718281813111254,-0.27985539203446635,-10.347496210880351,26.72343412758676,24.027674670150144
1760680307.6293168,-10.882844091813487,-0.3211859747516119,1.123848011024085,-0.2781697069280241,-11.159245318122366,26.034822682344988,24.044152688071673
1760680307.6389205,-10.69966294567656,-0.31581713527477967,1.172406593726361,-0.26985098834801613,-12.102399411906488,25.022940099947053,23.710691383596004
1760680307.6503203,-10.518529614368886,-0.3050341511015856,1.215177607995273,-0.2539126629424448,-13.179036457445783,23.760023372066133,22.95351270053425
1760680307.6602788,-10.338389278255313,-0.28838690435754866,1.2501496410637227,-0.23003784915630354,-14.39810862605012,22.33904889336996,21.708658040974775
1760680307.6692317,-10.158618622370005,-0.2654145619287298,1.2757911788991818,-0.1987723318251138,-15.76998632330139,20.86822822692081,19.930958307859058
1760680307.6790302,-9.979202598203779,-0.2359275379410875,1.2911749652534315,-0.16163440467896992,-17.298231860136504,19.46488817468803,17.60265710641826
1760680307.6892042,-9.801009272403906,-0.20036429190805874,1.29603643251315,-0.12108616949617351,-18.970369058100136,18.24789072755383,14.739847940841646
1760680307.6990943,-9.626167467208818,-0.16012455575406387,1.2907492728426675,-0.08033279584605345,-20.749885096736993,17.32786270956041,11.395252878595263
1760680307.7091427,-9.45850392119381,-0.11777309825113831,1.2762156204992612,-0.04295295886825095,-22.571631410772085,16.79506336985312,7.65643589004177
1760680307.7191327,-9.30395169711723,-0.07702603750454066,1.2536873078349242,-0.012403808657023419,-24.342164945322,16.705569863422195,3.639158190499828
1760680307.7301168,-9.170812214864094,-0.04247299542267787,1.224553806945815,0.008521612223305478,-25.94553621374586,17.067338214169467,-0.5238557864459377
1760680307.7389998,-9.06974945505114,-0.019043764982966505,1.1901459418137503,0.01818330735160731,-27.253851792450288,17.828328689675452,-4.697922251547153
1760680307.7491941,-9.013420056360033,-0.011283316559286041,1.1516068286289578,0.01642313602816387,-28.140940859018993,18.869108691970286,-8.763687553350515
1760680307.7591994,-9.01569386369585,-0.022542998531360953,1.109868297898408,0.0046473452175721,-28.496932887333045,20.002174725688207,-12.634408543969153
1760680307.7692847,-9.090488328081177,-0.05422577831913122,1.0657415191790107,-0.014376013780866044,-28.241627684826334,20.97981086654384,-16.270150091198303
1760680307.7790565,-9.250317247259813,-0.10523803359630157,1.0200918198526543,-0.036979879890650796,-27.33505250799691,21.511726667476356,-19.685458879753966
1760680307.7891939,-9.504728011511167,-0.17179250297591095,0.9740340827203856,-0.05923436979876718,-25.78420171490445,21.29285962548798,-22.947534493593952
1760680307.7995515,-9.858857461950699,-0.24766517251787176,0.9290704253538971,-0.07762582201663393,-23.645354937079407,20.040249458113767,-26.163394941227047
1760680307.8094325,-10.3123582912177,-0.32492719241641405,0.887101885693956,-0.08963318009359779,-21.021563818453004,17.53561133765327,-29.456832462028736
1760680307.8192484,-10.858921425506983,-0.39506216533053184,0.8502784054049257,-0.094076330640428,-18.05512475318499,13.667553845440661,-32.938569866629265
1760680307.8291557,-11.486538914534036,-0.4502716899859248,0.8206996488404105,-0.09116627459604267,-14.915356961476617,8.465352682833084,-36.675257660436145
1760680307.8395505,-12.17852316206292,-0.48471065556527676,0.8000304515933567,-0.08226530465946261,-11.782789144084669,2.1159948006692426,-40.664058757870045
1760680307.849106,-12.915146962876232,-0.49540600398440926,0.7891304380601317,-0.06944229347340428,-8.83164962451909,-5.041582090526472,-44.81905139135637
1760680307.8592324,-13.675639407963557,-0.4826903382920744,0.7878020290581366,-0.05495609124878191,-6.212983111421367,-12.546962278486184,-48.97354365024051
1760680307.8693185,-14.440210400713461,-0.45008752684733605,0.7947324750724621,-0.04080172593907432,-4.040598543073315,-19.87039084129026,-52.89913223417931
1760680307.8794615,-15.19179720749165,-0.403685466050204,0.8076551648551417,-0.02841252078292873,-2.3815033159131818,-26.479083843650315,-56.33873540480581
1760680307.8890617,-15.91731022943548,-0.35110953262532546,0.8237003632508417,-0.018547780459702855,-1.2517518952717257,-31.907278847290257,-59.04775318060679
1760680307.8992753,-16.60826748472952,-0.30027266075616116,0.8398610521978215,-0.011338922591376642,-0.617913187551856,-35.818682113207984,-60.835699318485965
1760680307.9094098,-17.260818821745843,-0.25812132696967255,0.8534760835636657,-0.006437891854573958,-0.40371603650932003,-38.051047316269326,-61.600483256739125
1760680307.9191072,-17.875251706028155,-0.22960491261935848,0.8626347407385738,-0.00321263852301809,-0.5008970462530776,-38.6353515469752,-61.348929342843334
1760680307.92928,-18.4551285211673,-0.21705395558999396,0.8664309803432878,-0.0009497279257397135,-0.7828754979090506,-37.786058343998064,-60.19973943512445
1760680307.9392111,-19.00622715485438,-0.22006328291777538,0.8650320024398879,0.0009645725487212798,-1.119640741857066,-35.86383156709882,-58.36840001708338
1760680307.9492033,-19.53544728910072,-0.2358629761640234,0.8595626487735102,0.002911172604189614,-1.3921759136724197,-33.317013311491955,-56.136864594126614
1760680307.9589643,-20.049815183233562,-0.2600590497934353,0.8518376710485099,0.004977365720533733,-1.5048668938259158,-30.61210270639942,-53.81354733792299
1760680307.9692624,-20.555681798936916,-0.2875662199539309,0.8439965293937485,0.0069807218729244485,-1.3946477695253707,-28.165320449995026,-51.690709127506665
1760680307.97924,-21.05817102702954,-0.3135459572217348,0.8381087126924385,0.008568058573091463,-1.0360641161726667,-26.286620603556255,-50.006429751583624
1760680307.9889727,-21.56089835527198,-0.33419074680701183,0.8358187020613999,0.009357796667003064,-0.4419075911415032,-25.144520667385912,-48.917105060846396
1760680307.998944,-22.065943916938505,-0.3472399698112192,0.8380874518644391,0.009083320773391752,0.34047669467702385,-24.75576913435381,-48.484141958937144
1760680308.0092156,-22.574029279678772,-0.3521641995759442,0.8450649836906914,0.007700358907803289,1.2366925461415925,-24.999235093534683,-48.67577414094917
1760680308.01923,-23.084822890357966,-0.35001345259298144,0.8561026916926928,0.00543771796526608,2.1556945846853988,-25.649398365181593,-49.3822607359396
1760680308.0288374,-23.597293654870413,-0.3429880465810215,0.8698897831135471,0.0027873491975047276,3.001845708243479,-26.422031059543336,-50.44064934130831
1760680308.0389514,-24.11004643869846,-0.3338441718484548,0.8846791051086853,0.00043932788783866873,3.6871786177034487,-27.02336800017128,-51.66408869563821
1760680308.049236,-24.621598704839222,-0.32527312551485577,0.8985559040700921,-0.0008287985240836148,4.1423752453431675,-27.194335781265615,-52.87046635828783
1760680308.059318,-25.130582882545674,-0.3193861822883057,0.909701536682706,-0.0002946229583130243,4.325128204041929,-26.74316220977236,-53.905854767072626
1760680308.0694213,-25.635877510516444,-0.3174012956066981,0.9166129029889895,0.002555768929142993,4.224875198961265,-25.56257995717318,-54.65966072158664
1760680308.0793874,-26.136680316762686,-0.3195735965081744,0.9182525437299067,0.0078931798593341,3.8633720053896896,-23.631232827587556,-55.07016893008863
1760680308.089199,-26.632538833569882,-0.3253508752882016,0.914118034813492,0.01546220832492397,3.2911368850620106,-21.002011219598145,-55.12098145765176
1760680308.0992174,-27.123349050094717,-0.33368283439464497,0.9042312526281708,0.024575477287500366,2.5803837454150123,-17.782196195413754,-54.83032889682024
1760680308.1092231,-27.60932125885669,-0.3433841983848627,0.889060216330293,0.03419295753286145,1.8155781708331713,-14.11105640919098,-54.236120947683794
1760680308.1197104,-28.09089950661092,-0.35345413629464567,0.8693979410667586,0.04307225235105671,1.0831118062672125,-10.139890673714769,-53.37985192017166
1760680308.1292737,-28.568613772187298,-0.36328255202883714,0.8462302812268899,0.04996061872735532,0.4617138578519621,-6.017814423032293,-52.29218225766856
1760680308.1390817,-29.04284700821836,-0.37271365977968823,0.8206249434578808,0.05379647310967134,0.015045814023614346,-1.8844308485982173,-50.98236185814026
1760680308.1490462,-29.513513387761865,-0.3819752185538369,0.7936658613227622,0.053893262511054155,-0.21254158866805983,2.1315383859188373,-49.43283411103705
1760680308.1590524,-29.97966701426967,-0.39151025797283134,0.7664422833877987,0.050084040404036266,-0.1967846913632459,5.910114927905256,-47.599516283099256
1760680308.1692543,-30.439087326763122,-0.40176510530518067,0.7400843606048435,0.04280698264203269,0.06875617202433496,9.337533766850548,-45.41748911786912
1760680308.1791523,-30.88791266065867,-0.4129935236299842,0.7158228757275945,0.033112915381279376,0.5769487300176462,12.306120518553818,-42.811185925302446
1760680308.1891568,-31.32041056458749,-0.4251322053146041,0.6950445358503614,0.022580476671146238,1.3119173834037423,14.718249874183241,-39.70765876316139
1760680308.1990867,-31.728975745786244,-0.43778652969391013,0.679315464965073,0.013135105867971494,2.2530374283508188,16.49452960749626,-36.051130584745884
1760680308.209176,-32.10442724733837,-0.4503356338388373,0.6703498280084346,0.00678381958946538,3.377046451177013,17.584875448148953,-31.816845529107304
1760680308.2191448,-32.43663148879943,-0.46212576302169067,0.6699051687164157,0.005296255300825017,4.65784130292742,17.98005581453909,-27.02222753150024
1760680308.2292862,-32.71541023295798,-0.4726843538922596,0.6795938516643807,0.009879894089220694,6.064255182718006,17.720772722819863,-21.733552510937017
1760680308.2393482,-32.93161676667257,-0.4818736973899141,0.700615959403275,0.02090801930457023,7.556801309061578,16.901472187587302,-16.066723858505693
1760680308.249309,-33.07820337523901,-0.4899227993675218,0.7334436319456976,0.03775715187137586,9.084866146728409,15.66684150962313,-10.18132170279792
1760680308.2589982,-33.15108279211779,-0.4973222928840102,0.7775141514981347,0.05879442651275689,10.585956422864523,14.200252047564264,-4.2678980351490345
1760680308.2692382,-33.14961876842478,-0.5046204775126586,0.8310094646662742,0.0815280686155598,11.988228405753294,12.704999282384302,1.4704939630232885
1760680308.2793324,-33.076659571604246,-0.5121964381343705,0.8908035258971727,0.10290262820135831,13.216692045123207,11.380728136676048,6.840414634359613
1760680308.2889493,-32.93812671101887,-0.5200920977211174,0.952639196408629,0.11969203209945027,14.202414803386896,10.398570823888589,11.680657267196006
1760680308.2992558,-32.742254729441136,-0.527956816538324,1.0115535675675313,0.12892442148383054,14.89309226961491,9.879022678486665,15.881710008645229
1760680308.3093653,-32.49862278639296,-0.5351127450206368,1.0625121045121035,0.12826919290380553,15.262799146827254,9.876312534954582,19.398721698435818
1760680308.3192601,-32.217125709418596,-0.5407124567114479,1.1011498341798045,0.11633069101267189,15.318690086146463,10.371968745114689,22.25579230023094
1760680308.3293703,-31.907017880259705,-0.5439446178594337,1.1244674105814825,0.09281761411568638,15.102809114468748,11.278555290385505,24.54095602540157
1760680308.3390017,-31.57613913228263,-0.5442382813902406,1.1313131127160954,0.058579156443376745,14.687896777268897,12.45252849201523,26.39265483519534
