timestamp,angle,linear_acceleration_x,linear_acceleration_y,linear_acceleration_z,angular_velocity_x,angular_velocity_y,angular_velocity_z
1760514864.2795935,-4.517062236078124,-0.0590235380929761,0.9174597446091999,-0.37341748925172735,10.72549702542512,6.856688909437518,13.850916601771441
1760514864.2897027,-4.3582332918405,-0.059713467139441825,0.9151609439639142,-0.37498958090631757,10.28929640792474,5.1053316603263585,13.675565245864695
1760514864.2999213,-4.2142616467694705,-0.059563962827708455,0.9113307935537202,-0.37613370457063416,9.70239166487836,3.0225240545063907,13.360035476368592
1760514864.3096302,-4.08627533456822,-0.05867544782136802,0.9061945314922758,-0.3771520706126552,8.962328378878306,0.7358695207890098,12.896832271035569
1760514864.319661,-3.9754960576440164,-0.05732569119541424,0.9002481726129297,-0.3784889734141022,8.086149131608739,-1.5933714980884217,12.288327032696184
1760514864.3296316,-3.883209782445839,-0.055942463671884844,0.8941923772258872,-0.3806758381594464,7.110856585060604,-3.7850780957219055,11.54713977080322
1760514864.339634,-3.810702671090344,-0.05505156151556058,0.8888091776511765,-0.3842500854384049,6.09053363195499,-5.658499296728311,10.69557652934981
1760514864.3496704,-3.7591739899479455,-0.055203316666443805,0.8848014025306237,-0.389660498760899,5.089965224746229,-7.052442836441762,9.764182293337733
1760514864.3595989,-3.7296344290183407,-0.056884289407147945,0.882632692844691,-0.39717583193948686,4.175337670805862,-7.845403853360401,8.789616356703064
1760514864.3697345,-3.7227891734061513,-0.06042582768102682,0.8824182399102175,-0.4068159037869553,3.40350259751151,-7.9729297577830875,7.8121699106187705
1760514864.3795993,-3.7388971222538148,-0.06592711582724554,0.8839069311964913,-0.41832244315326383,2.812099636691635,-7.438996806239255,6.87326642449955
1760514864.3896563,-3.777600611095297,-0.07321291422639566,0.8865588750204672,-0.4311771967752745,2.413034718187602,-6.318442391510927,6.013192971466984
1760514864.399874,-3.8377355308574597,-0.08183952099840618,0.8896820740019893,-0.4446608681415884,2.1910592638928073,-4.7489905552749505,5.269149880680076
1760514864.4099295,-3.9171509375777167,-0.09114807919687642,0.8925792878067621,-0.45793724595049057,2.107727420254963,-2.9137558605570892,4.673558320397878
1760514864.419869,-4.012581303320787,-0.1003521332236858,0.894671123540858,-0.4701464333027309,2.109545183121559,-1.0172816298497878,4.252486750719512
1760514864.429715,-4.119620933883174,-0.10864278632130242,0.8955806252921443,-0.48049518130651536,2.1382676978264064,0.7406876870176277,4.024064321366321
1760514864.4398005,-4.232847172984832,-0.11529675241049243,0.8951747005175008,-0.4883353746018681,2.1411616458453007,2.1895404688350144,3.99684022790846
1760514864.449618,-4.34612327407789,-0.11977464549178753,0.8935623908667536,-0.4932225526379496,2.0794178615847403,3.2069607237867164,4.168200129605092
1760514864.4595969,-4.453082336147306,-0.12179792602386784,0.8910551484731518,-0.49494758122182997,1.9335280793720657,3.7309009672264115,4.523111556369697
1760514864.4696884,-4.5477552389123215,-0.12139436682980098,0.8881000307509171,-0.49353858658079897,1.7051390670496491,3.7636006551362606,5.0335742545864885
1760514864.4796145,-4.625266737895872,-0.11890446960195959,0.8852002373284437,-0.48923627256420327,1.415523855113079,3.367920255411984,5.659151164819204
1760514864.4896467,-4.682494491677452,-0.1149451095822922,0.8828372559917561,-0.48245076612257454,1.1012742383348697,2.657015157735995,6.34884162954214
1760514864.4996736,-4.718574129032642,-0.11033182065749132,0.8814060524016705,-0.4737100830674911,0.8080973066664254,1.7788687340308267,7.0443551222362135
1760514864.509646,-4.735144107238682,-0.10596707529961012,0.8811708826100877,-0.4636093399354634,0.5837121904545511,0.897492179040937,7.684596172756467
1760514864.5197914,-4.736256308804786,-0.10270757089693382,0.8822454331540939,-0.45276713563418514,0.4708226392648342,0.17274113445886619,8.210936626338233
1760514864.5296023,-4.72792638627895,-0.1012277277374577,0.8845975485318254,-0.44179206111062747,0.5010131174595651,-0.25925863419904155,8.572686244002307
1760514864.5396647,-4.717353350351387,-0.10189858099811,0.8880759137437886,-0.431258909554462,0.6902109969476146,-0.3031310817033789,8.732108237260949
1760514864.5496562,-4.711892091162742,-0.10470077442152013,0.8924535080984406,-0.42169173112445413,1.0361139254239071,0.08306954737747566,8.668361218321124
1760514864.5596092,-4.717908046962962,-0.10918755772897006,0.897480063666706,-0.41354993069785295,1.5177343396770888,0.8809892315786589,8.379863815799785
1760514864.5696867,-4.739673897002027,-0.11450860664395465,0.9029331719847711,-0.4072141182090833,2.096980909263815,2.011903786432537,7.884747990526857
1760514864.5796914,-4.778477539080593,-0.11949780298029251,0.908656113730137,-0.4029700542446427,2.7219861669879486,3.3438002493143597,7.219266662843009
1760514864.5896204,-4.83209319458307,-0.12281811935082698,0.9145716394303789,-0.4009912864874737,3.331708329801634,4.7052213126507265,6.434232152518342
1760514864.5996625,-4.8947238441606356,-0.12314676992790011,0.9206656607633467,-0.40132334542489834,3.8611980714496967,5.90469234262461,5.589775776367239
1760514864.609639,-4.957462152768763,-0.1193769475199482,0.9269421811411865,-0.403874176746428,4.246846515234442,6.7537776127951625,4.748929301959781
1760514864.6196449,-5.0092493127751805,-0.11080957532335974,0.933358955548633,-0.40841627977893025,4.430936473107232,7.091155566167416,3.970715532986823
1760514864.6296077,-5.038242336349008,-0.09730773994764678,0.9397606734048186,-0.4146047517513908,4.3649203259261515,6.804683436189531,3.3035558319842657
1760514864.6396184,-5.033432053907084,-0.07938650010938471,0.9458311249247965,-0.4220110084419269,4.011055122943016,5.848350674933772,2.7798099989076492
1760514864.6496196,-4.986292439237445,-0.058213183268489656,0.9510855249850028,-0.430164515028394,3.342332822925645,4.2513726118272235,2.412136711418368
1760514864.6596437,-4.892203106621651,-0.03550210443177579,0.9549169981508965,-0.43858705014469623,2.341022629969849,2.1174965314339267,2.1921086966161245
1760514864.6696563,-4.751394055136235,-0.013305933029586535,0.9566969958669089,-0.4468011225615718,0.9965329902325486,-0.3861071151681383,2.091162395455727
1760514864.6798756,-4.569230537130755,0.006268577819600072,0.9559110567631667,-0.4543016021735604,-0.6964173097939255,-3.049317705199598,2.06356373292734
1760514864.6896493,-4.355777666703364,0.021369236010271107,0.9522959501487882,-0.46049776448993146,-2.7383314518153363,-5.646094362527541,2.0507364232292433
1760514864.699721,-4.124723661791527,0.030670222609697664,0.9459408047757942,-0.46465390979486887,-5.123583293574089,-7.963868524342062,1.9861569984146576
1760514864.7097363,-3.8918534564197182,0.03355523069305324,0.937326873575452,-0.4658686333779885,-7.83730708222926,-9.83049943533471,1.800147085114864
1760514864.7197018,-3.673323974948756,0.030182903719666667,0.9273009490422526,-0.463127967079782,-10.851395442533315,-11.134370920779407,1.424241722863533
1760514864.7296512,-3.4839995644262256,0.021429135643199284,0.9169934327468543,-0.4554461076315926,-14.120940571964606,-11.834521954465467,0.795214712490524
1760514864.739664,-3.3360766769578776,0.008717875532716609,0.9076974211867408,-0.4420755420599479,-17.582473765331088,-11.959706217663454,-0.14091048791247943
1760514864.7496257,-3.2381710140827216,-0.006233751663118029,0.9007240225229571,-0.42273647322384283,-21.154944888695532,-11.597542639317144,-1.4245748647301333
1760514864.7596505,-3.19495853989097,-0.021713217466544667,0.8972479001040351,-0.39779630039682584,-24.7437117385427,-10.87686610326531,-3.078145284371031
1760514864.7696164,-3.207360055887456,-0.036294538048202325,0.8981576832254612,-0.36833387763470643,-28.247142730455902,-9.94743897904659,-5.101597605999406
1760514864.7796707,-3.2731603469075563,-0.04904294514716903,0.9039277264582509,-0.33605188649383155,-31.5649918318379,-8.961071754276146,-7.469307487581885
1760514864.7896287,-3.3878870913871144,-0.05959822720118221,0.914529773572538,-0.3030436037444352,-34.6075350445799,-8.057108072597988,-10.129032931957912
1760514864.7997365,-3.545758122851796,-0.06812386581487365,0.9294028957381312,-0.2714603334192848,-37.30447799579925,-7.353623059403617,-13.004044324796958
1760514864.8097126,-3.740534088326994,-0.07514200698043709,0.947495100434625,-0.24314994944362928,-39.61275043118415,-6.9440567838019165,-15.998897323735633
1760514864.819662,-3.9661716869817427,-0.08130141265031847,0.9673805872937565,-0.2193431685430658,-41.5224369457797,-6.897751797364306,-19.008647162584566
1760514864.8296604,-4.217242219067652,-0.08714196188717392,0.9874440819988632,-0.20045478313386356,-43.060236612621196,-7.262244346441919,-21.930523127047564
1760514864.839665,-4.489141801834905,-0.09291897633472437,1.0061084158354243,-0.1860429540298066,-44.29000870628178,-8.065251147457971,-24.676401247205295
1760514864.8497763,-4.778157543683663,-0.09853219775703285,1.0220660310987857,-0.17493376902364435,-45.310170447859605,-9.314976566747113,-27.18402171251131
1760514864.8597488,-5.08146299267158,-0.10357489625343691,1.0344659321764056,-0.16548011149062974,-46.24796227525133,-10.998367058739655,-29.424933208069742
1760514864.8697052,-5.397101723947722,-0.10748777235576033,1.0430121946815134,-0.15589531671294557,-47.25082804754851,-13.07792455877753,-31.40762339445685
1760514864.879743,-5.7239899356912,-0.10977572920011659,1.0479511077485357,-0.14459045279488408,-48.47529949073864,-15.488368008998629,-33.175100274848305
1760514864.8896983,-6.061937120982863,-0.110227757163205,1.0499547403647345,-0.13045003812303257,-50.07383270853907,-18.134671074202306,-34.797140014893365
1760514864.8996387,-6.4116568553205795,-0.10907720797471573,1.049935425661142,-0.11300048627154542,-52.180130155766975,-20.892862911674978,-36.35831698998044
1760514864.9096503,-6.774724775012602,-0.10705502133179785,1.0488371891994357,-0.09245170898343097,-54.893717997653354,-23.614608178549446,-37.94362935492093
1760514864.919633,-7.153442409037845,-0.10531748392370453,1.047446166217975,-0.06961756259619198,-58.26496014308544,-26.136078632997695,-39.62395124214753
1760514864.9297864,-7.550583349584878,-0.10526257564974607,1.0462507434228803,-0.045739824026765005,-62.28216325641166,-28.290973538535734,-41.44364395161198
1760514864.9398398,-7.969026875769747,-0.10827519510185811,1.0453706729750323,-0.022251860128183414,-66.86276433585228,-29.926689266462667,-43.412399157843026
1760514864.9496775,-8.411314941726618,-0.1154557451305051,1.0445631028962155,-0.0005237663277148625,-71.85060783229585,-30.921649246549322,-45.50272822300158
1760514864.9598,-8.87919228337797,-0.1273869893284226,1.0432999676293293,0.01836792892719486,-77.02091280545292,-31.200950036993902,-47.653477875311424
1760514864.9697826,-9.37319921547986,-0.1439830047186291,1.0408974602091523,0.03380611886523427,-82.09369900249263,-30.74712329666051,-49.77849376998557
1760514864.979695,-9.892379828492437,-0.16444667137047206,1.036669918574692,0.04570387020285464,-86.7552614542394,-29.60321603936596,-51.77837871554201
1760514864.9896607,-10.434148129911321,-0.18734439860206356,1.0300791346811093,0.05446564044635438,-90.68593766114967,-27.866598881637103,-53.552616005770616
1760514864.9999127,-10.994329496765273,-0.21079270805218778,1.020851996861743,0.06084670521856713,-93.5911741136489,-25.673801832872037,-55.00948006124107
1760514865.0098753,-11.567373248728892,-0.2327400642066915,1.009042755148544,0.06574203988425847,-95.23200760972021,-23.178926103924613,-56.0721511955439
1760514865.0197265,-12.146717970731299,-0.25131288851959743,0.9950258632044819,0.0699535993941352,-95.45063850887416,-20.530090891738006,-56.680914436758684
1760514865.0297685,-12.725281646492412,-0.26517283026609856,0.9794242295621263,0.07399132638154017,-94.18689299701089,-17.849032319677995,-56.7926448151027
1760514865.039913,-13.296037998636073,-0.27381095516109655,0.9629973822957874,0.07795644329548067,-91.48234678693547,-15.217974630632606,-56.3794138393411
1760514865.0496242,-13.852625982420346,-0.27770148891076807,0.9465213887413186,0.08153594367869572,-87.47101536638378,-12.675811369831756,-55.42779739445589
1760514865.0596642,-14.389924592887851,-0.27826427609228355,0.9306849479607346,0.08410817877972095,-82.35849807675986,-10.223451548619108,-53.93959286654958
1760514865.0696924,-14.904517042896675,-0.27763281990359673,0.9160137825734703,0.0849306266080773,-76.3941531591145,-7.836459100688272,-51.93369535296993
1760514865.079697,-15.394972245788702,-0.2782724537689067,0.9028272286037652,0.08336369327375748,-69.84208475938333,-5.481895268514277,-49.4482529725279
1760514865.0896995,-15.861888196810611,-0.2825237487957404,0.8912267333895194,0.07908253197648635,-62.95614217984276,-3.1355669371691564,-46.542011622379015
1760514865.0996273,-16.307669056313074,-0.2921556370018765,0.8811121740770111,0.07223694716013544,-55.96233961311556,-0.7958453629934207,-43.29386875109097
1760514865.1096568,-16.736042858080545,-0.30800655214796513,0.8722182665792351,0.06353034677106328,-49.04987422219204,1.5090196440713857,-39.799998597912925
1760514865.1196394,-17.1513672041196,-0.329776905823902,0.8641625959286398,0.054199879545390225,-42.36985714552043,3.7217052342308574,-36.16844849498648
1760514865.1296325,-17.557811690600595,-0.35601467051485,0.8565001993679069,0.045892685655813455,-36.03942149985839,5.764553305497849,-32.51174958845063
1760514865.1396897,-17.958540513949792,-0.3843069141866017,0.8487846887418006,0.04044859812694701,-30.148296155400907,7.554377290433897,-28.938660281031844
1760514865.149685,-18.35503663680054,-0.41165484312272727,0.8406378123736242,0.03961649971837566,-24.765226145079083,9.020311701333291,-25.54646357539537
1760514865.1596887,-18.746700769861945,-0.4349728765246368,0.83182386048313,0.04474848355788847,-19.942520680676697,10.121197592847299,-22.415148786266922
1760514865.1697946,-19.130820821389147,-0.45162068353097107,0.8223118318980952,0.056532197106484945,-15.718135827632642,10.859138424496185,-19.60436076250056
1760514865.1796362,-19.502945968071465,-0.45986108673317866,0.8122948554899323,0.07483091546544969,-12.115679744980984,11.286446020602549,-17.15335637827514
1760514865.1899948,-19.85762618560667,-0.45914824094231926,0.8021405924166743,0.09868601947100075,-9.143288947358071,11.504116750189187,-15.083555400119455
1760514865.199894,-20.189406773696266,-0.45019334245601456,0.7922780217472862,0.126486850534906,-6.79234590850475,11.651295538756285,-13.402764405284373
1760514865.2098851,-20.49391195535954,-0.4348133885476153,0.7830653928626172,0.15625053817269932,-5.0366059666155945,11.886938306041829,-12.10987753464907
1760514865.2197387,-20.768824461130215,-0.415614667151485,0.7746966987288977,0.18592246659384334,-3.8318249141726577,12.366732782838758,-11.19883511488578
1760514865.229732,-21.014577009349953,-0.395582145633782,0.7671805747585289,0.2136236070961276,-3.1157679486629455,13.219600373820821,-10.660846951664412
1760514865.2398126,-21.234618328214054,-0.37764563002400453,0.7603885064650096,0.23781045304819165,-2.808562492253883,14.528260749410821,-10.484358955761593
1760514865.2497032,-21.435194438726665,-0.3642858183971767,0.7541427812587459,0.2573463006134396,-2.8135135265851745,16.317379582501466,-10.652891638611845
1760514865.2596502,-21.624678608916227,-0.357232292027995,0.7483065025855343,0.2714991388457681,-3.0185918422021305,18.55107330310611,-11.141524441431107
1760514865.2696378,-21.812567224234982,-0.3572898550621765,0.7428447214945807,0.2798869537518686,-3.2988716194410035,21.13946665834629,-11.913216286480042
1760514865.2797017,-22.00831378728372,-0.36430975769788365,0.7378406041508022,0.28239251846789304,-3.5202855453834863,23.952101771741855,-12.916201704695954
1760514865.2896454,-22.22018978253635,-0.3773004690651902,0.7334669890666956,0.2790695951674279,-3.545121826941604,26.83479042546348,-14.083395283605997
1760514865.2996926,-22.454339808091543,-0.3946512141204351,0.729926818206575,0.2700612465496629,-3.2395706965011493,29.626291929623495,-15.334205429340766
1760514865.3098469,-22.7141482656207,-0.4144242399711379,0.7273832764171861,0.25554754078049163,-2.483246934890178,32.171920586060715,-16.57857491291376
1760514865.3196964,-22.99997192011849,-0.4346639958304606,0.7259018297443981,0.23573274112246784,-1.1800150220593608,34.332463727369635,-17.72258186695619
1760514865.329648,-23.309233325355123,-0.4536750562205589,0.7254222302181834,0.21087157147799604,0.7312009623099461,35.988183558356496,-18.67463972885171
1760514865.3396842,-23.636823343878046,-0.47023136453465936,0.7257691989326754,0.18132388202305622,3.267416269171864,37.03887906111231,-19.35124431577032
1760514865.3497252,-23.975727036254654,-0.48369159429166964,0.7266977079718385,0.14762051315662886,6.3963324026706845,37.40186210258829,-19.681308203596664
1760514865.3598292,-24.317764902920207,-0.4940080584261186,0.7279576534596106,0.11052100769089246,10.036512059924723,37.01017759545677,-19.60838467450612
1760514865.3697057,-24.65433315982093,-0.5016311009745731,0.7293591609953846,0.07104503982682125,14.064005809219502,35.81336087081937,-19.090518958132527
1760514865.3796957,-24.977035143925228,-0.507326181953044,0.7308252597806626,0.03046320332905138,18.325481376057276,33.782397068240414,-18.098035093603126
1760514865.3896616,-25.278120408555708,-0.5119342566306293,0.7324280172877417,-0.00976137650963922,22.65676349567673,30.919370067613908,-16.610126267308193
1760514865.399745,-25.550686191463438,-0.5161171796547753,0.7344100070450669,-0.04808066331340603,26.904573273974655,27.27069883733851,-14.611436150377964
1760514865.4096568,-25.788644975990852,-0.5201386535475073,0.7371924821472916,-0.08300604677982519,30.94835491237498,22.9411180771346,-12.089743454254807
1760514865.4199529,-25.98651442062391,-0.5237330210504836,0.7413684826026415,-0.11326222393513254,34.71855187970298,18.10421319801402,-9.035454388038486
1760514865.429977,-26.139127495125372,-0.5261020962158701,0.7476782880935042,-0.13791423081232893,38.207695796230894,13.00508843223422,-5.443101233704356
1760514865.4396684,-26.241376348475555,-0.5260530865349661,0.756967262886,-0.15643474915142058,41.47137527957037,7.951984407891007,-1.3146494627942187
1760514865.4496527,-26.288087202462012,-0.5222551337220035,0.7701290051706519,-0.16869492282277668,44.61766427137067,3.2959706046960746,3.3358147507900986
1760514865.459755,-26.27408120678141,-0.513558396206739,0.7880361039298245,-0.17488316212718485,47.78574424187747,-0.5996240003297163,8.476574912685695
1760514865.4697497,-26.194422834011856,-0.49929930706670017,0.8114572268796596,-0.17537494804942913,51.11671476686288,-3.3963082935488584,14.05261409108413
1760514865.4796853,-26.04481131050754,-0.4795180316787602,0.8409577435326157,-0.17058940460528707,54.72124915872529,-4.819056429379647,19.980548672407938
1760514865.489651,-25.82204446938301,-0.45503903935664997,0.8767856591887445,-0.16087503467174347,58.6493501805959,-4.691115126856909,26.145009104910432
1760514865.4996524,-25.52448044850668,-0.4274007265670984,0.9187533231436635,-0.14646527910442736,62.86700250815987,-2.960131782197022,32.39730880489297
1760514865.50967,-25.152434855439964,-0.39864984821736377,0.9661320080917569,-0.12753064192603888,67.2433819497206,0.28817498662269025,38.55713339515671
1760514865.5196476,-24.708470544961255,-0.3710345770075693,1.0175767006896492,-0.10432786460343421,71.5509214385164,4.831234574698172,44.41780720623787
1760514865.5297592,-24.197556920902592,-0.34664130938197074,1.0710937437698005,-0.0774151931048233,75.47921260292759,10.326716061422976,49.75547126474932
1760514865.539698,-23.627092939883642,-0.32703318504692497,1.124060828884084,-0.04787723369578265,78.66241065286263,16.34477623784077,54.34215733185651
1760514865.549734,-23.006802829120467,-0.31296197072247206,1.173312686987454,-0.017490561996218092,80.7183077850252,22.412547639498946,57.96218659364512
1760514865.5599315,-22.348524842052612,-0.30422715170780007,1.2153135973172733,0.0112364944029104,81.29543216215336,28.065379183829577,60.43062609410007
1760514865.569756,-21.665917628027163,-0.29973484385535903,1.2464387195232376,0.03519889016287612,80.12261627888954,32.89718643174295,61.61190061800198
1760514865.5797055,-20.974102767775832,-0.29776456701726894,1.2633695990269889,0.051018497558610605,77.05399699928857,36.601649147015124,61.43626728845293
1760514865.5897505,-20.289246532622965,-0.2963960397487618,1.2635709987857453,0.05552057713855694,72.1020145469246,38.997585458401474,59.911793208381255
1760514865.5997167,-19.628064618901643,-0.29399853184812663,1.2457673646802203,0.04627863608142361,65.45209029559079,40.03521121381149,57.12976143243877
1760514865.6098578,-19.007217605358278,-0.28965789395319025,1.210306758167608,0.022116423180339226,57.45519259502227,39.78387292021045,53.26212764760375
1760514865.6196976,-18.442557503705036,-0.2834201405885389,1.1593128167745563,-0.01653770362783879,48.59787467016073,38.40508221415471,48.55077869421488
1760514865.629698,-17.948192526180986,-0.2762680539556895,1.096574969404451,-0.06751672993640032,39.45288240147969,36.1168532992724,43.28969546855555
1760514865.6396565,-17.535367297734005,-0.269817176034385,1.027185934125042,-0.1270355032276752,30.61656060717264,33.15635730591035,37.80223887037278
1760514865.649733,-17.21121795810423,-0.26580656163535193,0.9569826076247462,-0.19006685490888742,22.641680742339652,29.74758050728473,32.416233316524135
1760514865.6596887,-16.977550987161262,-0.2655347076864517,0.8918758054632646,-0.25094124943756435,15.975553041439857,26.078954657834224,27.439259550720436
1760514865.669725,-16.82988288767915,-0.2694140558297668,0.8371668104035438,-0.3040959736351485,10.912852922689757,22.2932564630402,23.135945174538197
1760514865.6796508,-16.757022361349904,-0.2767756647335889,0.7969463834362772,-0.3448552481938425,7.570222593627106,18.489286690066084,19.70855085740281
1760514865.6896567,-16.74144310496823,-0.2859714596426502,0.7736562268594815,-0.37009703044814796,5.885806928730155,14.732665560051842,17.282051926429766
1760514865.6997106,-16.760574627450016,-0.29473203888748534,0.7678665672289438,-0.37867517874648393,5.642445784460994,11.071760996036806,15.895075614464698
1760514865.7097185,-16.788949833243837,-0.30067195485017334,0.7782925501803741,-0.37151723817781235,6.509360638244516,7.5542027897253154,15.49811099893469
1760514865.719705,-16.800939182394462,-0.3018057656692896,0.8020420125814929,-0.35138933348814927,8.094599649654674,4.239600635534271,15.960058335415631
1760514865.7297072,-16.77363933717696,-0.29694990455674997,0.8350587848619925,-0.3223865547590471,9.99956379883957,1.2051079302732506,17.08332239692384
1760514865.7397022,-16.689427846409572,-0.28592939404436374,0.8726984089538538,-0.2892537091740882,11.867565267520966,-1.457655432024829,18.626371700415472
1760514865.7496567,-16.537762720178105,-0.26956649931161514,0.9103503874560059,-0.256661950071901,13.420227428179281,-3.6534801374868593,20.331264379898773
1760514865.7596579,-16.315968376250588,-0.2494811733529265,0.9440101729381218,-0.22856320060312207,14.478149463773777,-5.299283881172122,21.952499973622288
1760514865.7697046,-16.028952999613097,-0.22776870432061533,0.9707125389086595,-0.20772106069530774,14.965127094727714,-6.340447592108813,23.283082173360818
1760514865.7796693,-15.687991542661978,-0.20663412207044238,0.9887678402199481,-0.19547937254063158,14.897858059055393,-6.763538403610956,24.17406789985502
1760514865.7896667,-15.308843266073684,-0.1880560312466463,0.99778594984585,-0.1917835750105998,14.365042100938059,-6.602376114864266,24.545073203864348
1760514865.7996511,-14.909535503971783,-0.17353049690504815,0.998514216548545,-0.19542276724559088,13.500826718926797,-5.936318428130387,24.38490020462021
1760514865.809645,-14.50814136968609,-0.1639192794794492,0.9925439491666015,-0.20442181985699884,12.457569836012695,-4.881600699339753,23.743193122131444
1760514865.819766,-14.120826806922418,-0.1594049260713453,0.9819520660615859,-0.21649254225565945,11.38202627956104,-3.5779838671888284,22.715415675890167
1760514865.829842,-13.760362053846537,-0.15954010295238824,0.9689428968877727,-0.22945511575806676,10.397642315697865,-2.173544584093756,21.424224930551663
1760514865.8396525,-13.435201546096204,-0.1633688697538797,0.9555426246871225,-0.24156180726209253,9.594069175626739,-0.8101966809806964,20.000434459839852
1760514865.84971,-13.149148977308291,-0.1695927132476507,0.9433796847896156,-0.25168505166314864,9.023628483843389,0.38827958629668213,18.566292517112835
1760514865.8597522,-12.901551923978158,-0.17675384675163833,0.9335640303994313,-0.2593626381376412,8.703481203492164,1.3249133763851633,17.222944318705576
1760514865.8697262,-12.687919902549483,-0.18341162147523019,0.9266608864015,-0.2647189759411812,8.621727951922686,1.9349420846390586,16.04295344117456
1760514865.879715,-12.500833043079709,-0.18829358422842107,0.9227423476139048,-0.26830024577369127,8.745561880196682,2.188382638299022,15.067844558933363
1760514865.889735,-12.331004256326946,-0.19040963791678,0.9214930946401267,-0.27087009773393006,9.029807156937611,2.0902869911851076,14.309931117400433
1760514865.8997667,-12.168371451735917,-0.18912468880539254,0.9223440575584151,-0.27321079882555455,9.424589129456699,1.6790079188983715,13.757261093098897
1760514865.909738,-12.003120745254693,-0.18419047495967672,0.9246091636168443,-0.2759647375526844,9.881382896214133,1.0225351213835092,13.380354119008578
1760514865.9196742,-11.826568231457768,-0.17573995067382753,0.9276043511040738,-0.27953681483687765,10.357170652136368,0.2127858489828824,13.139479322801044
1760514865.9297984,-11.631850721849537,-0.16424831472582538,0.930734183048826,-0.28406300315700667,10.816817584862012,-0.6422317956277389,12.991470603480707
1760514865.939705,-11.414393076695463,-0.15046511414808447,0.9335393512788838,-0.2894369827055045,11.234002712889495,-1.4282079013424338,12.895410356633295
1760514865.9496455,-11.172132842904833,-0.13532287181461758,0.9357072268983028,-0.29537733926786935,11.591117198777939,-2.035707041395642,12.816845413822197
1760514865.9596903,-10.905495220356517,-0.11982966472222746,0.9370552701929986,-0.3015136553824554,11.878507167463761,-2.371770639464824,12.730461897294083
1760514865.969711,-10.617127089426976,-0.10495592974098002,0.9375011777535582,-0.30747112474965826,12.093342335431348,-2.370688535351811,12.621313287228617
1760514865.9797199,-10.311420288592592,-0.0915286108689836,0.9370332032398181,-0.3129386986891071,12.238287435344368,-2.002563376493055,12.484783105293316
1760514865.9896674,-9.9938793133134,-0.08014683826796479,0.9356901626068881,-0.31771283520786786,12.320083066826783,-1.2783992306638108,12.325499978752546
1760514865.9998353,-9.670410908561635,-0.071131235510746,0.9335550359311092,-0.32171560728510823,12.348123571765264,-0.250791864921774,12.155433337836024
1760514866.0096552,-9.34662574326837,-0.06451364754253447,0.9307602713903429,-0.32499111732857405,12.333133377889583,0.9901646639408916,11.991400453873487
1760514866.0196886,-9.027240471184546,-0.06006665663397439,0.927498043587571,-0.3276871319540344,12.2860480021036,2.325513213044528,11.852222480265148
1760514866.0296817,-8.715650040628805,-0.05736438167686996,0.9240261646145757,-0.33002909600935154,12.217169617070283,3.6197785172565045,11.75578189755373
1760514866.0397472,-8.413708138614705,-0.05586015738687347,0.9206611446840188,-0.3322917228259437,12.135595320725022,4.735740869710977,11.7162468101032
1760514866.0497067,-8.121718342410242,-0.054965826693084946,0.9177537864100976,-0.33477091897570127,12.048846647541879,5.550080832733279,11.741720975491416
1760514866.0599098,-7.838614033280775,-0.054122971160209386,0.915648212286764,-0.33775755219476694,11.962600110427681,5.968192160541025,11.832539096926576
1760514866.0697932,-7.5622982702911665,-0.05286495580488168,0.9146307036428243,-0.3415147724039742,11.880441033927454,5.936410471547554,11.98036118630172
1760514866.0799665,-7.290116895486212,-0.05087297806690586,0.9148787064625425,-0.3462610536190954,11.803610994719817,5.450001515311592,12.168150253847859
1760514866.089683,-7.01943271240917,-0.0480255958818328,0.9164216631879422,-0.35216030160882145,11.730755233755612,4.555598290010244,12.371056459740855
1760514866.09976,-6.748248933558771,-0.044433610909998256,0.9191235172140229,-0.35931800333975716,11.657688557115716,3.3474018989491756,12.55816731732858
1760514866.1098282,-6.47580545510639,-0.04044811779424085,0.9226922606076869,-0.36778002163588475,11.577205863956424,1.9572827895939007,12.69500592554697
1760514866.1196773,-6.203057028045137,-0.03663230661271385,0.9267158960650324,-0.37753003606025176,11.478985286528687,0.5398068601820536,12.746575066135469
1760514866.1297517,-5.932947364190893,-0.033695260129621186,0.930718345161003,-0.3884832582674091,11.34966527025062,-0.7459752906175084,12.680671572971336
1760514866.1396978,-5.670418298963526,-0.03239500302509279,0.9342248279699088,-0.4004772637024591,11.173205736632223,-1.7555649899329795,12.471146484214065
1760514866.149666,-5.422133088890797,-0.03342576507622503,0.9368247658967824,-0.4132641897025449,10.931649178715409,-2.3762851671991307,12.10077195601117
1760514866.1596618,-5.1959388135936075,-0.03730874513882317,0.938221055741536,-0.4265101348042311,10.606364051740824,-2.5404482692540267,11.563400232592729
1760514866.169678,-5.00013388959369,-0.04430509876960286,0.938257452148701,-0.4398061674559704,10.179772882555936,-2.2327237260050468,10.865160475879202
1760514866.1797273,-4.842634224835009,-0.05436477272064374,0.9369207014346874,-0.4526919039275782,9.637445653972371,-1.490894330559451,10.024531323848748
1760514866.1897433,-4.730142771559947,-0.06711773810671691,0.9343197105603718,-0.4646892128926297,8.970296242646013,-0.40016580396580115,9.071246541550755
1760514866.199815,-4.667424090407485,-0.08190768236374936,0.9306482068788388,-0.4753415247916537,8.176503610782033,0.9179252709962292,8.044128666331758
1760514866.2097423,-4.6567700044192275,-0.09786275146440587,0.926139214490784,-0.48425367382878065,7.262752422655183,2.3203206400032648,6.988080578838135
1760514866.219691,-4.697715444583819,-0.1139930194937295,0.9210203641048441,-0.49112788164330834,6.244487056576816,3.658962066054899,5.9505679195337935
1760514866.2296922,-4.787028825624537,-0.12930088013553828,0.9154793211952892,-0.4957928292774845,5.145085794186212,4.7970203235130064,4.977972410683171
1760514866.2396796,-4.918966524559706,-0.14288990195706425,0.9096471421383832,-0.49822380995973176,3.994127100754395,5.6230794067729,4.112183779907907
1760514866.2496796,-5.085753345902089,-0.15405938244836476,0.9036025145393893,-0.4985515044433905,2.825137873503008,6.061937006298294,3.3877374499696815
1760514866.2596817,-5.278231781689991,-0.16237406579773367,0.8973930251273253,-0.49705485839965746,1.673289006855692,6.081174608899751,2.829710982874076
1760514866.269744,-5.486610099019328,-0.167700844426631,0.8910652102263962,-0.494132342678063,0.5734157046982675,5.693152655970814,2.4524821010723006
1760514866.2797322,-5.701231730553273,-0.17020788854403296,0.8846957894937943,-0.49024888892345103,-0.4414452880544598,4.952530015653396,2.259344601600635
1760514866.2896767,-5.913287543885245,-0.17032669872609732,0.8784198472926921,-0.48586325065263253,-1.3410066722218654,3.949750296200243,2.242889892455574
1760514866.299708,-6.115399490442423,-0.16868238552954457,0.8724535983981284,-0.4813487321533035,-2.098336779942556,2.8011847052248497,2.3859998739081005
1760514866.3096712,-6.302018166931034,-0.16600058733945497,0.8671084010018899,-0.47692480099140594,-2.6903964257758264,1.6368044209976782,2.6632678669401235
1760514866.3196738,-6.469596657100461,-0.16300114136347837,0.8627909872384475,-0.4726161316647483,-3.0988184561218253,0.5864018947441826,3.042670108107728
1760514866.32968,-6.616527732971959,-0.1602900301021896,0.8599852259793157,-0.4682498834405321,-3.31118481621038,-0.2345032132353092,3.4873451509150746
1760514866.3396893,-6.742859436078855,-0.1582624510007549,0.8592138451532286,-0.4634935444048413,-3.322902204048072,-0.7378587705576389,3.957389653111811
1760514866.3496828,-6.849831954436193,-0.15703026919523097,0.8609827945060821,-0.45792667013618,-3.1395612198299356,-0.8741270935196214,4.411631235939201
1760514866.3596756,-6.939302774399391,-0.15638590854404902,0.8657141836116662,-0.4511323961142273,-2.779449363300548,-0.6399606045900786,4.809379719046442
1760514866.3697817,-7.013144499117,-0.1558119021414177,0.8736751367865696,-0.4427906100054012,-2.2757384292250435,-0.0814006000383385,5.112177994364253
1760514866.3796914,-7.072708359881395,-0.15454096136841497,0.8849099204709419,-0.43275531219027774,-1.6778149842785675,0.7082482607668271,5.285566100989545
1760514866.3896656,-7.118443917054828,-0.15166542576294761,0.8991822082483111,-0.4211036815459804,-1.0512707272867683,1.5962800045122907,5.300835712459872
1760514866.3997204,-7.149749599947009,-0.1462875519422796,0.9159342465371844,-0.4081518241326995,-0.4762044841074274,2.4239814026751914,5.136699723679381
1760514866.4097047,-7.165099124836417,-0.13769422484647506,0.934270544283365,-0.39443965810604087,-0.04368782837627354,3.0245904083588755,4.780758587661972
1760514866.4197726,-7.162447023071677,-0.1255324907282179,0.9529753061066637,-0.38069280363214775,0.14951791202348336,3.2440171485585565,4.23063648490084
1760514866.429687,-7.139864986499167,-0.10995659730482384,0.9705740071198516,-0.36777073946799055,0.007670069521913366,2.9617423340808324,3.4946892956144104
1760514866.4397354,-7.096304107774997,-0.09171414859445956,0.9854484370420266,-0.35660641021473427,-0.5563345344668824,2.108757067512243,2.59222309150699
1760514866.4497137,-7.032328724783188,-0.07214176434353131,0.9960089657876787,-0.3481345409099717,-1.6130350985393436,0.6793081065632015,1.5531606744434008
1760514866.4598835,-6.950647304699606,-0.0530532945846269,1.0009155689125162,-0.3431996892461403,-3.20878010601467,-1.2662467932469315,0.41702799172104543
1760514866.470266,-6.85629383897613,-0.03652590415511804,0.9993200931178899,-0.3424362215360508,-5.358962732312673,-3.6088958330391328,-0.7689769061995482
1760514866.4796891,-6.756388451599679,-0.024614010766109536,0.9910812089299187,-0.3461224961068264,-8.042737109919143,-6.188247854597107,-1.953150342511419
1760514866.4897788,-6.65950343273607,-0.01903827552433561,0.9768916984154842,-0.3540274621235476,-11.20002633649266,-8.826937483458442,-3.0839571254559055
1760514866.4997215,-6.574747715505791,-0.02090115260652383,0.9582673886549147,-0.36528362016883115,-14.731828345881,-11.357635016989597,-4.116237646125312
1760514866.5097902,-6.5107372892459425,-0.03047424499539338,0.937380814266299,-0.3783291979978736,-18.50476031071376,-13.64731898104015,-5.018532756978263
1760514866.5198295,-6.474636656692972,-0.04709245461983953,0.9167677632214162,-0.3909594831334779,-22.360280236816553,-15.614076499812782,-5.780594369846981
1760514866.5297308,-6.471440695802598,-0.06917877218429956,0.8989703250345922,-0.4005108789246459,-26.128169795320513,-17.233633639935135,-6.419736931547167
1760514866.5397012,-6.503620243530425,-0.09440851576176638,0.8861917471334094,-0.40417388512219093,-29.642955006215672,-18.53543923030559,-6.984529150968201
1760514866.5497231,-6.571183950713956,-0.1199996670490991,0.8800261808930779,-0.39939851739049903,-32.761310925621494,-19.590482165263648,-7.554505330432799
1760514866.5597224,-6.672127462914519,-0.1430896570782549,0.8812998265667108,-0.38432493131467976,-35.37832275811205,-20.494366989419742,-8.235095539308016
1760514866.5696917,-6.803168150526751,-0.1611375110509277,0.8900312485988325,-0.35815243646349276,-37.44070559963999,-21.349327772785315,-9.147753213990805
1760514866.5796905,-6.960615405252509,-0.17228300682097106,0.9054974268524101,-0.32136187033285074,-38.95550824730034,-22.2481292940981,-10.416136347301416
1760514866.5896945,-7.141211057984193,-0.17560484274958596,0.9263814170324421,-0.2757337925839458,-39.99325431182334,-23.261632631208922,-12.149986531374196
1760514866.5999331,-7.342792539385763,-0.17124247476964502,0.9509733061061577,-0.22415052639596694,-40.684856334937486,-24.43057945003255,-14.428889633349266
1760514866.6097434,-7.564676415121056,-0.16037082031515074,0.9773934021696659,-0.17021762450800204,-41.21204492415823,-25.76119796881172,-17.288281159269918
1760514866.6197317,-7.807719008908763,-0.14503654043393338,1.0038051688859444,-0.1177755959910334,-41.79157454926391,-27.223787356959235,-20.709834343599944
1760514866.6297543,-8.074070240589771,-0.12788051875837622,1.0285890988575634,-0.07038969928753673,-42.6541317087247,-28.753564806524444,-24.617789771838925
1760514866.6396976,-8.366686650891301,-0.11178698590042516,1.0504591139583772,-0.030904564195646855,-44.0196296153081,-30.25361166524045,-28.88197682015582
1760514866.6497395,-8.688703655420435,-0.09951300435261903,1.0685163019308184,-0.001133233921616595,-46.07129347953179,-31.600394585269708,-33.327386844043424
1760514866.6597393,-9.042781725915154,-0.09335583903337377,1.0822450205957683,0.0182799409958145,-48.93142464486857,-32.652675604335656,-37.74933112335705
1760514866.6699736,-9.430535990826034,-0.09490641081509056,1.0914617552890662,0.02781934685173721,-52.64179770493208,-33.264407544284026,-41.93257172461816
1760514866.6798894,-9.852136697168884,-0.10491749844438836,1.0962303756107874,0.02891036358569393,-57.15122990055197,-33.301432072144095,-45.67238792360642
1760514866.6897476,-10.306134236168807,-0.12329213232111666,1.0967613442876252,0.023634134930102784,-62.31205764386715,-32.66067623516479,-48.79528823331652
1760514866.6996937,-10.789522689510205,-0.1491763321701879,1.0933167404999207,0.014402175880234055,-67.88624932082764,-31.289409821043343,-51.17696134091629
1760514866.709772,-11.298015510763538,-0.18112416768307232,1.086144892263541,0.0036428094674175087,-73.56088348455933,-29.201299765726755,-52.75513061846441
1760514866.7197323,-11.826471211064295,-0.21729417533897027,1.0754636325049123,-0.00646206229508225,-78.97188116774998,-26.485711555492113,-53.53533955462397
1760514866.72974,-12.369381415905428,-0.2556372182410359,1.0614969229999498,-0.014167521136614233,-83.73424631939642,-23.3071027163739,-53.58840781865652
1760514866.7397506,-12.921324911357244,-0.2940496045033089,1.0445487870495356,-0.018275478076711274,-87.47655438854783,-19.89253709098346,-53.03935436712795
1760514866.7497082,-13.477304767155141,-0.33048912563610233,1.0250799036354166,-0.01816630074431888,-89.87683222751096,-16.50741413501288,-52.04893911154042
1760514866.7596939,-14.032920708231641,-0.3630726590182457,1.0037469844780287,-0.013762565900090543,-90.69613778235518,-13.422315124692984,-50.790453268020315
1760514866.7697663,-14.584375243565843,-0.3901753849558695,0.9813799989303365,-0.005442220685618236,-89.80533032194266,-10.876627352171734,-49.4255564636927
1760514866.7797542,-15.128353822931235,-0.41053274983023785,0.9589004355984933,0.006076538510326169,-87.20045123700251,-9.045969701408186,-48.08326634117716
1760514866.7898188,-15.66184529446189,-0.4233284323529896,0.9372065789166947,0.0198570853523765,-83.00340454920772,-8.019554000356615,-46.845441199372885
1760514866.799756,-16.181977081686167,-0.4282531774580203,0.9170576804141755,0.03485877718713149,-77.44707995373747,-7.791016394955944,-45.74061587956021
1760514866.8097024,-16.685931933211293,-0.42553328753435926,0.8989826463845589,0.05003916904719259,-70.84696462562489,-8.263332659982886,-44.746444541381614
1760514866.8197172,-17.17099154463585,-0.41593474622043664,0.8832297209034939,0.0644442249669611,-63.56385704521104,-9.266157059421044,-43.79963903050524
1760514866.8297143,-17.634719170399674,-0.4007432170209451,0.8697648352973993,0.0772857925949038,-55.96390412559686,-10.582404545945636,-42.811276534334915
1760514866.8396924,-18.07525384300327,-0.3817095376584298,0.8583175474002014,0.08800210209691323,-48.38242285332768,-11.97991281203533,-41.6847337476077
1760514866.8496969,-18.491651276388872,-0.36094459659799183,0.8484650858478862,0.09629541373806405,-41.09677746981909,-13.243534606320878,-40.33334266056983
1760514866.859686,-18.884180557720782,-0.3407516580660921,0.8397378576511528,0.10214270453394533,-34.31131615597585,-14.203132665358567,-38.695160196424375
1760514866.8697248,-19.25447973126138,-0.3233982252872129,0.8317252404738219,0.10577867848728921,-28.15469335226284,-14.753690747213044,-36.742923481165505
1760514866.8796825,-19.605491843629572,-0.31084933720246904,0.8241599934066293,0.10765339598209474,-22.687554395142282,-14.86495936945794,-34.488183047047976
1760514866.8897045,-19.941144690240694,-0.30450321038322353,0.8169638497008395,0.10836934114989409,-17.917058035005788,-14.579515947307058,-31.97958846735212
1760514866.8997638,-20.265794818986596,-0.3049810043634693,0.8102455794759459,0.10860543061955745,-13.814204494420938,-13.999667131266563,-29.29616011973565
1760514866.909728,-20.583516652124043,-0.3120197461393918,0.8042543607024228,0.10903779965095538,-10.330281275030107,-13.265128001150408,-26.53697949671973
1760514866.919711,-20.897366125737204,-0.3245002981496626,0.7993019443551401,0.11026770699918122,-7.409698954816732,-12.524744840736568,-23.8090275516383
1760514866.9297082,-21.208771452248822,-0.3406148852737269,0.7956729718567375,0.11276496670240918,-4.9978167722269555,-11.906510784766384,-21.214937743423967
1760514866.9397256,-21.517191946773693,-0.3581484120379522,0.7935429269644384,0.11683187804222057,-3.0437858676054863,-11.49057379668597,-18.842265229778313
1760514866.9497485,-21.820137581698337,-0.374822888050767,0.792919318456017,0.12258868286177857,-1.4996841547016113,-11.289726249856681,-16.75553440614006
1760514866.9597092,-22.113566413505048,-0.38864163725147843,0.7936156730055229,0.12997737101459192,-0.31798568179197984,-11.240919563372442,-14.991828676247184
1760514866.9697645,-22.392593047667596,-0.39817241282197424,0.7952614270908052,0.13877710487723038,0.5505591332110851,-11.20965690439,-13.560083516057357
1760514866.979708,-22.65237072155352,-0.4027240188612529,0.7973456757165249,0.14862384815393892,1.157284244556568,-11.006878795540585,-12.443653974518007
1760514866.9896955,-22.88897084755424,-0.40239437168463926,0.7992886773488812,0.15903032757412047,1.5539988302954992,-10.415653053618245,-11.605280399248253
1760514866.9996877,-23.100086749348336,-0.3979929468509652,0.8005295209123762,0.16940861790746456,1.7901783756525496,-9.223209623101521,-10.993346571182231
1760514867.0097322,-23.285430936295622,-0.39086211307361773,0.8006118177466223,0.17910241145945846,1.910134448092747,-7.253072103232815,-10.548324872668951
1760514867.0197363,-23.446765869161887,-0.38263726668913894,0.799246775899332,0.18743586994144537,1.9511410634884903,-4.3923778404910925,-10.208510336996067
1760514867.0297072,-23.587589282021913,-0.3749934001990979,0.7963385013521163,0.19378021668379203,1.9429768250720303,-0.6107506527935684,-9.914504355637478
1760514867.0397096,-23.71256644764998,-0.3694237228406443,0.7919678177949748,0.19763033408196104,1.9088597529128006,4.031170471533741,-9.612315246103709
1760514867.0497017,-23.826845082328934,-0.36708372079514,0.7863424449663914,0.19867581188491754,1.8674757608024533,9.383751554359808,-9.255261774456685
1760514867.0597146,-23.935394486988912,-0.3687149514355588,0.7797282422090569,0.19684846750561316,1.8356847704432944,15.219824668552478,-8.805003933605352
1760514867.069832,-24.042481120064036,-0.3746425021346537,0.7723774702294165,0.19233322402779313,1.8314201848863452,21.25363710112797,-8.231990229747717
1760514867.0799613,-24.151339373712734,-0.38482389573214765,0.7644683204504743,0.18553884046453428,1.8762436067303252,27.16490135063114,-7.515487366314373
1760514867.0897126,-24.26403629795011,-0.3989199501495112,0.7560685125223413,0.1770340014457022,1.9970300149833011,32.6254306828193,-6.643236513518877
1760514867.0997639,-24.38148178344421,-0.4163617583345108,0.7471347654774212,0.16745908794346714,2.2264091068975755,37.32592975775322,-5.610713530407924
1760514867.109734,-24.50351472782067,-0.4363994393898915,0.7375565609668997,0.1574250810578663,2.601891381693051,41.00075184908685,-4.419974979294785
1760514867.1197553,-24.629001995382076,-0.45813105771118573,0.7272444250084401,0.14741117872185974,3.1639918965305207,43.448814989498956,-3.0781307142376613
1760514867.1297002,-24.755911386900333,-0.480519397632645,0.7162509115125968,0.13767356398683991,3.9539928517764253,44.549350720876156,-1.5955589155782919
1760514867.1397557,-24.8813504018672,-0.5024088881111369,0.7049005585450998,0.1281792151822371,5.012109918838883,44.271635466049425,0.0159632108463686
1760514867.1499372,-25.001589181483237,-0.5225553131637256,0.6938978907155056,0.11857933097468232,6.376662376129276,42.67825247312085,1.7450230794168673
1760514867.159852,-25.112102411199235,-0.5396789787470226,0.6843830239394633,0.10823481896322525,8.084429167738184,39.92181465255365,3.5820764127251103
1760514867.1697533,-25.207669582456344,-0.5525499584509983,0.6779124584850412,0.09629997024521936,10.171843698299083,36.23548390200143,5.520602263448333
1760514867.1797419,-25.282566751273517,-0.5601103260804596,0.6763548911546141,0.08186100515288484,12.676212093931223,31.917886906718564,7.557859721203063
1760514867.1897147,-25.33086577833976,-0.5616280511132178,0.6817046737204852,0.06411663951833915,15.635857514449624,27.312994405760662,9.695171650969689
1760514867.1997023,-25.346828647477363,-0.5568584734717811,0.6958288854298241,0.042580186655335556,19.08804406089747,22.78537338919326,11.937593533445602
1760514867.2097516,-25.325348624698428,-0.5461672439143904,0.7201803734464872,0.01727649611651115,23.063717663837288,18.69137090749079,14.29278045733676
1760514867.21971,-25.26235807545221,-0.5305571514218682,0.7555257645711028,-0.011098935189196366,27.57852557734282,15.347536898117742,16.768894316620994
1760514867.2297468,-25.155111338515688,-0.5115586496562116,0.8017428884406469,-0.04109618893265061,32.620277011098274,12.998782595226276,19.37148318864575
1760514867.2397518,-25.002273044702925,-0.49099395669340323,0.8577268591585676,-0.07053955130565731,38.13398756951117,11.78987578998934,22.099358691255077
1760514867.2497058,-24.803794995255682,-0.47067786629120606,0.9214138458006483,-0.09669396628232929,44.00677585600624,11.744444328727331,24.93959344727503
1760514867.2597682,-24.56062664265984,-0.45213326771765094,0.9899034939722048,-0.11657023743399851,50.05587132963576,12.755576754903188,27.86195176344881
1760514867.2698328,-24.27434858797572,-0.4363703985081358,1.0596490556513078,-0.12734007456161073,56.02352329649721,14.591389566741707,30.813425635508093
1760514867.2799098,-23.946832148326045,-0.4237424130120443,1.1266905705050447,-0.1268079621912228,61.58240675000343,16.917523317489234,33.71400242299548
1760514867.2899244,-23.58001526803043,-0.41387839780944624,1.186921640547911,-0.11387233812018385,66.35405558099947,19.336373366136637,36.455134474824064
1760514867.299723,-23.175857097092145,-0.4057070974785702,1.2363908841576279,-0.08890113927087252,69.94092181151227,21.439997586705196,38.90239934075834
1760514867.3097315,-22.736499112364626,-0.3975980359042286,1.2716363437867562,-0.05394610541695761,71.97003630274799,22.870385452365834,40.90341442414115
1760514867.3197606,-22.264623897490235,-0.3876408650998087,1.2900346551820467,-0.012730186716340143,72.14331945058723,23.37784208282962,42.30120631773401
1760514867.3297381,-21.763965122038076,-0.3740501846254936,1.290123263585251,0.029633727001080395,70.28699843878243,22.866588368569584,42.952047815393215
1760514867.3397915,-21.239884692424656,-0.35563007201272456,1.2718357675631076,0.06719544106032335,66.39114798410873,21.4171639686462,42.7455316663569
1760514867.3497326,-20.699897832804346,-0.3321855404002023,1.2365905359318063,0.09394083520185902,60.63080961285542,19.278409903452573,41.623767921446564
1760514867.3597589,-20.15399997196861,-0.304755600127523,1.187195298078611,0.10467731926910857,53.362705728959,16.827609054330487,39.5964279635748
1760514867.3699498,-19.61464079998172,-0.2755757665473595,1.1275690054358563,0.09588042625100703,45.095788596537936,14.50454930128198,36.748946675256825
1760514867.380014,-19.096213105006065,-0.24774589102232558,1.0623248380393984,0.0663429962142117,36.43874319094717,12.73168302985449,33.24226541350255
1760514867.38973,-18.61398817557238,-0.22465984886164742,0.9962896516658276,0.017497729024851964,28.031963656096202,11.836131179823198,29.303719270258014
1760514867.399719,-18.182538929073406,-0.20932253941403473,0.9340417411935111,-0.046661579206542354,20.47453592152858,11.989019505724523,25.209800843845105
1760514867.4097865,-17.81383239616986,-0.20371539790607038,0.8795290373684937,-0.12006729777793242,14.257786366709887,13.17377957859018,21.262439076047183
1760514867.4197106,-17.51530734134986,-0.20836177801141142,0.8357976371610621,-0.19540874743372214,9.7156916105116,15.188757172080523,17.761097554738623
1760514867.429795,-17.28832766613305,-0.22219024100902396,0.8048332253763886,-0.2651745805495596,6.999014823830434,17.682411170588797,14.973499150565251
1760514867.4397926,-17.127374506097723,-0.2427145015573146,0.7875038045246433,-0.32272769488023634,6.075230620204477,20.213269402399092,13.108181282662608
1760514867.4497774,-17.020204803254053,-0.26647091866995687,0.7835895643722324,-0.36322186276131635,6.751456648108009,22.322900566887434,12.29226884046752
1760514867.4597945,-16.94900252957629,-0.28960274933617564,0.7918885365922714,-0.3842008520793054,8.714021488240402,23.6089408260895,12.557568368713651
1760514867.4697788,-16.892344670319417,-0.3084650898947042,0.8103888249733227,-0.38578905853049156,11.576656543166314,23.786390510698837,13.8371730498154
1760514867.4797275,-16.827653679033496,-0.32014070625908875,0.836496153380671,-0.37046765867997145,14.929546252540957,22.728292383179628,15.973311418198987
1760514867.4897172,-16.733742997042388,-0.32279354967285806,0.8672990022005231,-0.3425086999587132,18.38302896120744,20.480818285293644,18.73546469336463
1760514867.4999962,-16.593087090338873,-0.3158315253697386,0.8998455388206967,-0.3071943634425864,21.6018598777378,17.25207258191536,21.846184305048865
1760514867.509702,-16.393542186041998,-0.29988999468727173,0.931401656761028,-0.2699724321633365,24.328002949035277,13.377911283374925,25.010911471977852
1760514867.51972,-16.129369985492804,-0.2766707812515054,0.9596616160877156,-0.2356919079665635,26.39159125042048,9.271203952714627,27.947682252611617
1760514867.5297284,-15.801533446804884,-0.24867562543185273,0.9828920914884066,-0.20803066146878507,27.710968640897725,5.362886207589576,30.41296079629062
1760514867.5397189,-15.417318724632937,-0.21886931021131287,1.0000031437154089,-0.18918052830718415,28.28370277494695,2.0437468004051262,32.22083204847479
1760514867.549816,-14.989391752573981,-0.19030986055099924,1.0105510562328133,-0.17980537570202226,28.171169292411843,-0.3848269289097142,33.2540940972712
1760514867.559812,-14.534431347363679,-0.165790546343359,1.0146850309907383,-0.17924123234686934,27.47966413482688,-1.7448471214878185,33.46709640112707
1760514867.569705,-14.0714952359744,-0.14753760241531635,1.013051661627022,-0.18586884214743246,26.340919150050166,-1.9969688101430163,32.88126032320469
1760514867.5797853,-13.62026934651402,-0.1369928627675993,1.0066695998969741,-0.19756448757806563,24.894400089438903,-1.236571587518431,31.574986453053075
1760514867.589819,-13.199331233822369,-0.13469192457104445,0.9967854099753063,-0.21213259782135355,23.273007359626238,0.32697201912114765,29.670039590727374
1760514867.5997324,-12.824541055296134,-0.14023788492802888,0.9847229863392715,-0.2276451782858508,21.592985244670526,2.403510373322678,27.316492013687583
1760514867.609726,-12.507667235409713,-0.15236813898062945,0.9717423136692838,-0.2426490823885456,19.948135263498095,4.662446147266941,24.6779636124361
1760514867.6198132,-12.255353279592157,-0.16910902875478384,0.9589250739920169,-0.2562379867407562,18.40788755167438,6.774689209202612,21.918367837237504
1760514867.6297219,-12.068524822576778,-0.18800592036000238,0.9471015189273677,-0.268012043316594,17.01841344690816,8.451262185122594,19.19082726231949
1760514867.639735,-11.942314364247245,-0.20640713294167207,0.9368249892636226,-0.2779628035800831,15.805760841867949,9.474529035785158,16.628997921824332
1760514867.6497269,-11.866543144836045,-0.22177213542241525,0.9283899905820868,-0.2863254418309149,14.77996381738361,9.719157283403145,14.340801030740032
1760514867.6597853,-11.826744801662429,-0.23196812698573258,0.9218804911640202,-0.29343582553228276,13.939208215020793,9.161174428609058,12.404486730466907
1760514867.6697896,-11.805647398881192,-0.23551604451538413,0.9172305045372191,-0.2996188262297517,13.273391298321975,7.874811452117309,10.866959606456136
1760514867.6798592,-11.784960679391522,-0.231750665802765,0.9142805699253588,-0.3051203440485356,12.766743709731012,6.0181872251670905,9.744279483256602
1760514867.6897588,-11.747261124200408,-0.22087147076592203,0.9128199070537673,-0.3100830588236242,12.3995189282885,3.8101412845118876,9.024173792555143
1760514867.6997187,-11.677744092460868,-0.20387877708463206,0.912611235229234,-0.3145573619254164,12.149023347690404,1.501484007848922,8.670283583854244
1760514867.7097287,-11.56562699994891,-0.1824082304440742,0.9134007445618083,-0.31853421881789556,11.990394046455108,-0.6555554152775093,8.627747608726333
1760514867.7198026,-11.405037002930928,-0.1584914684861121,0.9149188139411025,-0.3219849409059203,11.897512042488334,-2.43591098869902,8.829628556112647
1760514867.7297313,-11.195291071266544,-0.13427978855004766,0.9168780426939367,-0.32489393233497976,11.844300251358368,-3.665009807201215,9.203619711321187
1760514867.7397127,-10.9405626151916,-0.11177079651640348,0.9189744057557858,-0.32727487502545766,11.80645498109815,-4.234430619192808,9.678454041714135
1760514867.7497146,-10.649012193003525,-0.09257532515265474,0.9208956558044582,-0.32916798767419425,11.76345161962181,-4.108577057277475,10.189481150282985
1760514867.7598271,-10.3315264224413,-0.07775386501262256,0.9223391940134018,-0.33062368396152236,11.700496421193236,-3.322265728830974,10.682983795536268
1760514867.7697835,-10.00025003758634,-0.06773997896423731,0.9230395165030341,-0.33168308729580914,11.610009816133266,-1.9703029934756164,11.1189633851419
1760514867.779734,-9.667108245766938,-0.06235490473708746,0.9228027932666303,-0.33236646695814354,11.492251114704125,-0.1910942747960868,11.472306573647169
1760514867.7897239,-9.342502210832512,-0.06090489526632042,0.9215434148449861,-0.3326770774063753,11.354826100942354,1.8530393780097907,11.732421293995825
1760514867.7997408,-9.034324346220224,-0.062342294639125856,0.9193152872744538,-0.3326221291718348,11.21101643593641,3.995943580730971,11.901573829683509
1760514867.809741,-8.747387432843803,-0.06546351335012615,0.9163302342735602,-0.3322469770155936,11.077075492677864,6.08542610749228,11.992254610165563
1760514867.8197844,-8.483298661411697,-0.06911251790886908,0.9129573808610988,-0.3316747097500239,10.968807232390962,7.9966776497342575,12.023947770916424
1760514867.8297396,-8.240746101832109,-0.07235850972264127,0.9097001977638596,-0.33114178103081127,10.897869869128963,9.640098922114227,12.01968253451734
1760514867.8397248,-8.016112623679732,-0.07462202261837789,0.9071511229615338,-0.33102071764213187,10.868327810664317,10.963269774540661,12.002709743858356
1760514867.8497915,-7.804299718644827,-0.07573350769959107,0.9059268820399646,-0.3318223214468084,10.874012896302467,11.947661685651733,11.993586469524045
1760514867.8597453,-7.599633220878949,-0.07591988434377378,0.9065905117362161,-0.33417142268623784,10.897235436282422,12.601369189369905,12.007881479234523
1760514867.8697433,-7.396731424907605,-0.07572520445212891,0.9095683655437045,-0.3387522998164158,10.909288652302283,12.949574570768629,12.054645014814623
1760514867.8797305,-7.191237951498141,-0.07588030147233392,0.9150719305344527,-0.34622330381771976,10.873006464127936,13.024639369879647,12.135717599201802
1760514867.8898983,-6.980350901684569,-0.07714258631191875,0.9230351016495305,-0.35710578633711004,10.747365586509323,12.857621957199715,12.24587882716465
1760514867.8998404,-6.763111449959597,-0.08013099498461079,0.933077567321837,-0.3716598437482093,10.493781783657527,12.472663253692154,12.373756212262492
1760514867.909981,-6.54044576399838,-0.08518260892112185,0.9445040602159727,-0.3897673418250746,10.083367345354675,11.885103254961164,12.503333193337143
1760514867.919794,-6.3149812607350615,-0.09225621446660517,0.9563472942942243,-0.41084914638848236,9.504047941946297,11.103457008892125,12.6158299628096
1760514867.929744,-6.090678698022318,-0.10090304990650578,0.9674590147122036,-0.43384570367959613,8.766163593832074,10.134587448734651,12.691699006525912
1760514867.939735,-5.872333243868932,-0.11031553834316819,0.9766477468756467,-0.4572849999530328,7.905097893522525,8.990692325303671,12.71249183324286
1760514867.9497898,-5.665000721231634,-0.11945108361342736,0.9828521794837141,-0.479447245099976,6.9796857777946055,7.696221847912655,12.662415782158966
1760514867.9597309,-5.47340284816121,-0.12721078620732748,0.9853246411150838,-0.4986111951662324,6.065715497419683,6.292713920900301,12.529496950380029
1760514867.9697878,-5.30136257504707,-0.132634422460648,0.9837817929765628,-0.5133362449271612,5.244803449700235,4.839905236713454,12.306369069497562
1760514867.980024,-5.151322594477965,-0.13506105183535955,0.9784703590558783,-0.5227084829991779,4.590235285750122,3.412397281253581,11.990779807658797
1760514867.9897375,-5.0240071522819205,-0.13421282407619875,0.9701129299714619,-0.5264778381806965,4.152729629001523,2.092454909746823,11.585908214589754
1760514867.9997826,-4.918289213578596,-0.13019124602687762,0.9597454554101047,-0.5250492854352605,3.949788278110287,0.9606904378338257,11.100512326010673
1760514868.0097518,-4.831305476502783,-0.12340946200715706,0.9485033247778157,-0.519346017227289,3.96162494474525,0.08683529149892008,10.548826941288436
1760514868.0197818,-4.758816545283222,-0.11449625067561754,0.9374225899346972,-0.5106007150473519,4.134685568203747,-0.4776464045919227,9.950094299090953
1760514868.029755,-4.695755339609054,-0.10419759956808193,0.9272996958152385,-0.500135775004988,4.391511537046404,-0.7042484518874305,9.327666156085495
1760514868.039763,-4.63686619362289,-0.09328757686988962,0.918624469202494,-0.4891763867464803,4.644224803839456,-0.5893279231393668,8.707707427966108
1760514868.0497544,-4.577324029310576,-0.082493031415158,0.9115819467814164,-0.4787194535651291,4.808563247234144,-0.15351689527747164,8.117586363867444
1760514868.0598183,-4.513241034601975,-0.07243629520362585,0.9061069480648674,-0.46946455680534455,4.8158893192786865,0.5609803428955573,7.584038457313814
1760514868.0698037,-4.442010299738253,-0.06360172517561787,0.9019682207255333,-0.46180173226587035,4.621512523262023,1.4948521040722433,7.131175981451767
1760514868.0797708,-4.3624841949396105,-0.056330734017799006,0.8988574057059128,-0.45584423692373965,4.208654318427184,2.577564375357661,6.778424510097043
1760514868.0899162,-4.275020498417648,-0.05084445211001011,0.8964627136244475,-0.4514917815631007,3.588212974084048,3.734254907801948,6.538521313012352
1760514868.0997517,-4.181441560145677,-0.04728607083820334,0.8945163499054779,-0.44850956540275466,2.7950604992618446,4.893068205600943,6.415794562551948
1760514868.109792,-4.084943377397224,-0.04576994269113342,0.8928148466838615,-0.4466093694603472,1.8819210462788125,5.992175489458774,6.405015386827297
1760514868.11975,-3.9899708588371117,-0.0464231538154207,0.8912190425179286,-0.44551992536467966,0.911974700370124,6.985605699628443,6.491126537728812
1760514868.1298482,-3.902051724260644,-0.049406983394332506,0.8896435951606149,-0.4450351331623547,-0.04874507297966689,7.847046198342052,6.650070724983075
1760514868.1397862,-3.8275623613779075,-0.0549096325889748,0.8880449863532208,-0.44503200564376977,-0.9382741346561708,8.570970122123493,6.850774266348437
1760514868.149888,-3.773391067870086,-0.06310734503539277,0.8864139457777099,-0.44545660663208086,-1.7043079638152652,9.170776277250221,7.05812680281482
1760514868.1599276,-3.7464709236139564,-0.07409771638939831,0.8847749613586817,-0.44628478858512755,-2.308063676561207,9.674039149705955,7.236592989298644
1760514868.1698043,-3.7531755035156893,-0.08781540944697894,0.8831927131467577,-0.44747201210935633,-2.726288285746201,10.115411771288645,7.35395275380668
1760514868.1798458,-3.7986019613419195,-0.10394561618490483,0.8817827378030586,-0.4489093351354911,-2.951553662250851,10.52814076775084,7.384626936028014
1760514868.189763,-3.885801855136172,-0.12185368224840695,0.8807215055738676,-0.45039952726284865,-2.991197860821757,10.935463744539843,7.312111607279868
1760514868.1998844,-4.015053111469217,-0.14054962455399292,0.8802499823437668,-0.45166022430917696,-2.8653954630098624,11.34329184902855,7.130201312856798
1760514868.2097623,-4.183288057869152,-0.15870303483205622,0.880665299520646,-0.45235343352136476,-2.6048418730422145,11.735489829035112,6.842893740421482
1760514868.2198288,-4.383793796814228,-0.1747166927419455,0.8822975747565679,-0.45213469917228444,-2.2484353655330658,12.072745683999292,6.463086779551102
1760514868.2300086,-4.606277601539355,-0.18685722599734741,0.8854727764213189,-0.45071146806503903,-1.8411839365858378,12.29550986715351,6.010354888997214
1760514868.2398767,-4.837344797187936,-0.19343110456520504,0.8904666040832868,-0.4478987975538832,-1.4324031815116012,12.330862951173549,5.508192194896888
1760514868.2497406,-5.061380644120048,-0.19298690904063345,0.8974569898948631,-0.4436616698982162,-1.0741441422826297,12.102554552878495,4.98112377191949
1760514868.259866,-5.261773881342541,-0.18452112659748054,0.9064828334508442,-0.43813658953939916,-0.8197187158285569,11.54295648949067,4.4520229451965
1760514868.269753,-5.422376380063456,-0.16766368662339654,0.9174142510898449,-0.431629793343827,-0.7221823594907044,10.605360292017037,3.9398548090357286
1760514868.2797766,-5.529063156003254,-0.1428196009674871,0.929936684922207,-0.4245935828502871,-0.8326798444644453,9.27493350851442,3.4579274212966458
1760514868.2897472,-5.5712384489563895,-0.11124404276721908,0.9435497995553916,-0.41758455057493604,-1.198638218925111,7.576692852943884,3.012607070032667
1760514868.2997708,-5.543125414142563,-0.07503076659311053,0.9575831028108643,-0.4112073909360008,-1.8618797969315868,5.579009883511472,2.602368082767436
1760514868.3098547,-5.444680711445383,-0.0369992162664797,0.9712322555123674,-0.40604594537895894,-2.8568062251667388,3.3914336265551563,2.2170102097054136
1760514868.3198624,-5.281995801503152,-0.00047519961861976564,0.9836201161650487,-0.40258038238366445,-4.2088465723224235,1.1560639335714684,1.836885092845494
1760514868.3297727,-5.0670896988501335,0.031025884429099124,0.9938824834771622,-0.4010889418738842,-5.933343135871547,-0.9675422935401077,1.432021878570398
1760514868.3399081,-4.817065607612382,0.054186480663174365,1.0012707559103557,-0.4015384472023082,-8.034976529730713,-2.8228326302367983,0.961130785241268
1760514868.3497815,-4.55269209826936,0.06629930905174164,1.0052557321167084,-0.4034807908140482,-10.507766473552694,-4.279614857893805,0.37060667716567414
1760514868.359839,-4.296565601305381,0.06564398754198378,1.0056129638219833,-0.40598705304412547,-13.335689293830995,-5.25656052021686,-0.4061312699204393
1760514868.369924,-4.0710935022590595,0.05176249659281015,1.0024728704631762,-0.40765610341172936,-16.494016671875265,-5.738458250670494,-1.4483654487030049
1760514868.3798366,-3.896579622839357,0.025580376988641275,0.9963266884209531,-0.4067226340873135,-19.951517405672824,-5.784242795571614,-2.846050387697314
1760514868.3901548,-3.7896754980941982,-0.010650473002659538,0.9879879402515606,-0.40126274537656925,-23.67359237482295,-5.523421884026034,-4.695149168774492
1760514868.3997667,-3.762380466654088,-0.053575783206054384,0.9785152382184126,-0.38946493254966497,-27.626216083177827,-5.140869756211059,-7.089676593729604
1760514868.409801,-3.821655670216976,-0.0990900247802456,0.9691061958545274,-0.3699135746325553,-31.780285605807837,-4.852300610607837,-10.110357405117556
1760514868.4197497,-3.969599389617332,-0.14276241312619056,0.960975750658029,-0.34182778149642223,-36.115696480561155,-4.87441074762557,-13.810694831540623
1760514868.4298284,-4.204044674759535,-0.1802858034922119,0.9552347357633935,-0.30521027299517456,-40.62422136899734,-5.394366507667059,-18.20225862350961
1760514868.4397771,-4.519399893803351,-0.20790356448333594,0.9527834685436123,-0.2608834419153141,-45.310112723655564,-6.543033382583791,-23.241814970153936
1760514868.4500268,-4.907559641963889,-0.2227797653318916,0.9542298549805998,-0.21041530718640136,-50.18739044393479,-8.375351344883782,-28.823215087514427
1760514868.4600933,-5.358757264476641,-0.2232889753465176,0.9598351375250389,-0.15595973003359784,-55.27314328430711,-10.859977932740865,-34.7765637649006
1760514868.469881,-5.862292400951591,-0.2092109479995077,0.9694865250833201,-0.10004850594644589,-60.57691899730694,-13.879137639185842,-40.87612445814823
1760514868.4797688,-6.407126355293351,-0.18182046914895356,0.9826955694792758,-0.04537505769320631,-66.08728265390897,-17.23870999611422,-46.8568900463846
1760514868.4898086,-6.982378033907595,-0.14386275407378007,0.9986229481510451,0.005400936727504951,-71.75762588927965,-20.687873184882463,-52.438122298614026
1760514868.4997582,-7.577765206908275,-0.09940057409247366,1.016131569411397,0.04981891603945689,-77.49400140564478,-23.946853412138235,-57.35084021800869
1760514868.5098014,-8.18402105875109,-0.05351547138461437,1.033868022418016,0.08576444472326078,-83.14786569229194,-26.74028529116918,-61.365490679987644
1760514868.5200334,-8.793284471438838,-0.011850685126593501,1.0503672747648423,0.1116181707742825,-88.51604637534945,-28.832352442380696,-64.31596523686883
1760514868.5300398,-9.399429155695309,0.019995270818101412,1.0641704217332568,0.12641741051985,-93.34918378933368,-30.058592380239993,-66.11670193722004
1760514868.5397735,-9.998275591059683,0.03717700653595829,1.07394444573482,0.13001731612565454,-97.36864594789803,-30.348662019152986,-66.7706595363268
1760514868.549812,-10.587630275505175,0.03631403037608079,1.0785976636235721,0.1232112565897097,-100.29072385879267,-29.735184318887892,-66.36722064514154
1760514868.5600166,-11.167121721677084,0.01605954233341093,1.0773900474163234,0.1077517806138411,-101.85586681507334,-28.346411923468228,-65.07037143852233
1760514868.569842,-11.73784363347185,-0.022627141439952276,1.070034557076742,0.08621900624345835,-101.85979980843679,-26.384366187373555,-63.09869112746041
1760514868.5798209,-12.301854282781658,-0.07659195468806491,1.0567697439987365,0.061722044250393765,-100.18253276511375,-24.093817017309405,-60.69964207809163
1760514868.589805,-12.861601929998269,-0.1409539450464877,1.0383673377596858,0.03747968363640229,-96.81057228229571,-21.729202804561528,-58.121309032633086
1760514868.5998013,-13.41934915921903,-0.209810770876651,1.0160445044063813,0.01637613959847791,-91.84746037641685,-19.525705974767348,-55.58509858971956
1760514868.6098492,-13.976663550278591,-0.2770364439463484,0.9912860480779385,0.0005977508893506514,-85.50884294407638,-17.67813334489384,-53.262921194417544
1760514868.6198099,-14.53403314852646,-0.3370444430745143,0.9656223875471376,-0.008574514472380706,-78.10110618673447,-16.3285798823157,-51.26187792036658
1760514868.6298409,-15.09065144076825,-0.3854190021104319,0.9404231600386423,-0.010794313164934585,-69.986560693294,-15.562069631603459,-49.618406516005074
1760514868.6398058,-15.64439673489596,-0.41934716356945134,0.9167495974077059,-0.006528630221765625,-61.541509764442864,-15.40853360582975,-48.3023851231279
1760514868.6497586,-16.192005543738976,-0.4378146976210338,0.89528190868134,0.0031558730893893063,-53.11487176905323,-15.849265960731518,-47.2301406295637
1760514868.6598153,-16.72941012304917,-0.4415590115403706,0.8763184172615613,0.016836140215718255,-44.99416829856567,-16.826169729580062,-46.283916312821674
1760514868.6698601,-17.2521805584077,-0.43280039127646347,0.8598334054722222,0.032958903528607204,-37.38347884153451,-18.252510291204278,-45.334347656129424
1760514868.6798556,-17.755989922029404,-0.4147991933525514,0.8455756453640957,0.05002695839209908,-30.395369784504336,-20.024249849494502,-44.26212540991617
1760514868.689905,-18.237016559131185,-0.3913095464590602,0.8331865251515226,0.06674204257271103,-24.056453853733537,-22.031043821707435,-42.9754562123352
1760514868.6997898,-18.692215061698057,-0.36601584774822776,0.8223155633461383,0.08210891708326692,-18.32439211485513,-24.165678569044097,-41.42106100680042
1760514868.7098758,-19.119422701991184,-0.34204150778416087,0.812712671318203,0.09550314910335243,-13.112850676494844,-26.330535959825482,-39.58790680673208
1760514868.719824,-19.517309967227416,-0.3216056182219594,0.8042811435707571,0.10669942289157885,-8.32013040671866,-28.440001186950887,-37.50422477132444
1760514868.7297666,-19.88521993013284,-0.30587233289998267,0.7970830246994275,0.11585500092608741,-3.8569108354771617,-30.41861352621013,-35.22936408502478
1760514868.7398324,-20.22296236935014,-0.29499648971717396,0.7912984744186181,0.12344672947734511,0.3311776137341561,-32.1958311118296,-32.84257906117874
1760514868.7497852,-20.530630966917418,-0.28832935342983007,0.7871508445445259,0.13016700146689522,4.249630153153604,-33.699097313231896,-30.430945413443272
1760514868.7598643,-20.80849693866974,-0.2847213069897163,0.784816401487734,0.13679074396378874,7.851961037100676,-34.84721589835429,-28.07831018943426
1760514868.7698183,-21.057005574160986,-0.2828488940084171,0.7843401782598133,0.144031016766864,11.04781459809086,-35.54589714979817,-25.856625685219484
1760514868.7798417,-21.276871165528252,-0.281501369456781,0.7855773522105317,0.15240583043462322,13.720629762005606,-35.68692896975496,-23.82035195860494
1760514868.789994,-21.46923867116485,-0.27978321353471425,0.7881733934743507,0.1621414800627109,15.751252719975398,-35.151925170047,-22.003968599060265
1760514868.799942,-21.635863306056837,-0.2772174136032025,0.7915872913040116,0.17313312774505357,17.042703643529727,-33.82101220412536,-20.422140042358382
1760514868.8098478,-21.779254903511184,-0.27376063312500687,0.7951535233703105,0.18496864863322068,17.541355485090932,-31.586047576705045,-19.071829803960092
1760514868.819766,-21.90274174186211,-0.2697573983325296,0.7981726984809212,0.19700183876647867,17.25104543405013,-28.36700521371093,-17.935649148377458
1760514868.8298416,-22.01042555242569,-0.2658634036124147,0.800017191661538,0.2084468062274415,16.23854504187833,-24.1291710559153,-16.98582359485137
1760514868.8397818,-22.107021356391524,-0.26296130873935786,0.8002348452153996,0.21846436823587373,14.63063358666449,-18.89810319167861,-16.18823533676406
1760514868.8497887,-22.19759796197929,-0.26208151730160417,0.7986320595922406,0.22622230819059427,12.60427350529818,-12.769319455031363,-15.506030389860555
1760514868.8597896,-22.287252980401846,-0.26432990337307305,0.7953198947893709,0.230926846351809,10.371975093510795,-5.910520780999166,-14.902322423762405
1760514868.8698137,-22.380765816773557,-0.2708166515956614,0.7907131926845514,0.23183510702127924,8.1644856554454,1.4444648351056164,-14.341628989502327
1760514868.8797743,-22.482269429196116,-0.28257556779774007,0.7854805053991821,0.22826455493232567,6.21264062226617,9.009434365283969,-13.789863132483495
1760514868.8898103,-22.59496665236875,-0.30046212922895993,0.7804497210929633,0.2196157762389641,4.729783688427804,16.465595639303086,-13.212984891508619
1760514868.8997607,-22.720896799479874,-0.3250241400754858,0.7764811286489491,0.205420455258337,3.8957963199674874,23.485076235260742,-12.574762355661095
1760514868.9098072,-22.860744887596546,-0.35635258089240934,0.7743265263746489,0.18541767579122104,3.843599386188088,29.755622181008178,-11.83440380437591
1760514868.919784,-23.01368721279127,-0.3939377458846959,0.7744977747191731,0.15965052512082703,4.649021569918366,35.00407626858436,-10.944985411436326
1760514868.9297936,-23.177281845276863,-0.4365688617964876,0.7771686465340747,0.12856398324582138,6.325072949425626,39.01656644612778,-9.85354963183928
1760514868.939871,-23.34743149560195,-0.48231664578949185,0.7821297454723987,0.09307735061566003,8.821713376274992,41.653803240014085,-8.50348650032397
1760514868.9498174,-23.518456392992736,-0.5286240070040383,0.7888086859958829,0.054603577835787245,12.03192684106258,42.86047328155395,-6.839360988536076
1760514868.9598484,-23.68330668264208,-0.5725040154622049,0.7963579197324554,0.014995411164706141,15.804159415438669,42.668463175228815,-4.813763315242717
1760514868.969966,-23.833917991627594,-0.6108186892712641,0.8038021552668903,-0.023588757029660054,19.960023329203324,41.19448837171974,-2.3951428597839968
1760514868.979787,-23.961682717782992,-0.6405989371673633,0.8102275974614457,-0.05889288249696344,24.314962020591448,38.633315770011855,0.4248751096837535
1760514868.9897814,-24.057988251099726,-0.6593651781367547,0.8149864611656904,-0.08882550904252381,28.698795555396593,35.247787449212595,3.6263026980915507
1760514869.0000494,-24.11476706739528,-0.6654127059140381,0.8178830551690386,-0.1117422465149376,32.97304135817628,31.356285960366296,7.159021471232461
1760514869.0098188,-24.12500733384279,-0.6580336117048884,0.8193055606205002,-0.12670166913786995,37.04258348222688,27.31752849971338,10.94502777421283
1760514869.0198145,-24.083180639926344,-0.6376571934618922,0.8202737927738255,-0.13364417882225155,40.860300500257985,23.512027696745236,14.88439701437715
1760514869.029775,-23.985555402622378,-0.6058959828771032,0.8223857573351614,-0.13345226581441805,44.42427252940029,20.3194342150978,18.863845257006574
1760514869.039827,-23.830381161003412,-0.5654801898011282,0.8276591347972051,-0.12786762384180367,47.767995141704795,18.09145723661885,22.7662841878676
1760514869.0497983,-23.617947001457235,-0.5200588955329966,0.838275865806635,-0.11926131002877348,50.944709546598204,17.121196203472554,26.479783237403613
1760514869.0598524,-23.350531771443105,-0.47385829301597826,0.8562516517398021,-0.11027889870303476,54.00765741823385,17.61122904681659,29.904760265306486
1760514869.069785,-23.032272954116983,-0.4312212889588788,0.8830694734944166,-0.10341414199356647,56.98879945291464,19.644141396499474,32.958739996302235
1760514869.079837,-22.668985907016193,-0.39609344714506467,0.9193328987107775,-0.10059318285639661,59.87916538018772,23.15991292227068,35.57845528529651
1760514869.089847,-22.267964928838527,-0.3715426491245665,0.9645020753089545,-0.10286164511087331,62.61432948527329,27.944613527508324,37.71942886291201
1760514869.0998645,-21.837790140612153,-0.3593923760184115,1.0167672352899422,-0.11025003757833894,65.06833573842053,33.63426336928605,39.35353341249875
1760514869.1097758,-21.38814870289399,-0.3600195499329546,1.073093778943569,-0.12185242294804013,67.05859734021276,39.736405142910414,40.46536558995478
1760514869.1197817,-20.929657514274286,-0.37233330454099395,1.1294469254134774,-0.13610128783997058,68.36283556358956,45.669785811833336,41.048499682982474
1760514869.1298425,-20.47365215348872,-0.3939238614328187,1.1811786439524439,-0.15117294725304325,68.74709126493184,50.81959834415302,41.10274598911633
1760514869.1400113,-20.031891135365594,-0.42135798365486615,1.2235373278673414,-0.16542611492184858,68.00149175224918,54.60241073013906,40.63338048959649
1760514869.1497672,-19.616123880231164,-0.4505953394627803,1.2522409493939444,-0.1777693325185897,65.97827760269284,56.53202575078191,39.65287356032256
1760514869.1598256,-19.23748898104653,-0.4774914726083016,1.2640380554390804,-0.1878712515971592,62.625268572742826,56.2760649360427,38.1849197770135
1760514869.1697814,-18.905742783162502,-0.49832443862505665,1.2571726671555168,-0.19616647407969984,58.00806237920414,53.69384350033516,36.26974148710373
1760514869.1797829,-18.62835932529861,-0.510247399462579,1.2316749553904882,-0.20366070901990313,52.31598130479455,48.84935869410235,33.96907785694532
1760514869.1897726,-18.40958508487056,-0.5115637529638256,1.1894221989279896,-0.21159032162969116,45.84971509745803,41.99833845121418,31.36928640865939
1760514869.1998796,-18.249572047865886,-0.5017652583125816,1.1339512450373763,-0.22102812666051103,38.991955229345834,33.55366790182705,28.58152632946615
1760514869.209801,-18.14374651533884,-0.4813530634111382,1.0700462507330537,-0.2325388750447633,32.165284513927055,24.03718783711888,25.73866638568254
1760514869.2198262,-18.082590412090568,-0.4515392737059905,1.0031631977062796,-0.24597282860873868,25.783720578098293,14.026738174959517,22.988959067517083
1760514869.2300403,-18.051998939730716,-0.41396008844426563,0.938778212809351,-0.2604494631911462,20.205396105841565,4.105658162315034,20.486594645422986
1760514869.2398024,-18.034309611296248,-0.37049592469419695,0.8817574294473871,-0.27453493482142516,15.693693823690648,-5.180938725734477,18.379358073118937
1760514869.2497861,-18.009965730318417,-0.32321058252060614,0.8358398906824507,-0.2865685239279768,12.392635594609848,-13.361354694556331,16.794160760377448
1760514869.2598329,-17.959614622063764,-0.2743482846248514,0.8033014633353373,-0.2950559225458098,10.319673392350571,-20.063576020644124,15.82216122205803
1760514869.2697976,-17.866310057639062,-0.2263071509717998,0.7848338173388175,-0.29902896259714845,9.37583217332075,-25.032687509112275,15.506001040234098
1760514869.2798169,-17.71744277544724,-0.18153686435001667,0.7796389117477788,-0.2982789338991287,9.370181374269523,-28.13971912163323,15.831833364103975
1760514869.2899916,-17.50607664881441,-0.14235638163704667,0.7857109339267266,-0.2934060582324544,10.053519781473993,-29.38245822678146,16.728158932141795
1760514869.3000379,-17.231495759760833,-0.11072723986631547,0.8002525890535569,-0.28568081791081096,11.155256654791014,-28.878864941515015,18.072228605773212
1760514869.309842,-16.898925698127005,-0.0880364786912617,0.8201515579280992,-0.27676349912777487,12.417722581941755,-26.853592052556955,19.70329705590721
1760514869.3197815,-16.518539267933736,-0.07494019191589307,0.8424330684875301,-0.2683591327450581,13.623316564007547,-23.61797576821075,21.440683701993553
1760514869.329826,-16.10396325534767,-0.07130063638379212,0.8646133977660885,-0.26189078563600937,14.611672707791607,-19.544076079888427,23.103710399387985
1760514869.3397677,-15.67055329949596,-0.07622490822607629,0.8849061198709918,-0.25825986033757703,15.2860381233406,-15.033983398830125,24.53035484020789
1760514869.3498714,-15.233696688566942,-0.08819098341557484,0.9022698761172061,-0.25773595020174206,15.609919570601287,-10.486434050763384,25.591946553352294
1760514869.359795,-14.807352064529223,-0.10523591605565541,0.9163230093941788,-0.25998803750169214,15.596474883881331,-6.263525012351499,26.202268306403614
1760514869.369805,-14.402963776650605,-0.12518057229899185,0.9271753637918138,-0.2642381691946882,15.29389206796391,-2.6608604087308576,26.3206636265761
1760514869.380004,-14.028815057766765,-0.14586506866984852,0.9352322364325683,-0.26949221810301033,14.77002092681679,0.11534469990863025,25.949842282925644
1760514869.3898408,-13.689814423049018,-0.16536352507124033,0.9410125945136233,-0.27478663731923275,14.098860261764518,1.9611346288391702,25.129786030078122
1760514869.3998861,-13.38764812621667,-0.18214448641233874,0.9450062242823855,-0.2793920496258829,13.350414706797212,2.8759253942274556,23.929391768450778
1760514869.4098058,-13.121191699902077,-0.19515529288016464,0.9475816495607832,-0.2829331086470526,12.584302515640704,2.952108441836204,22.437300029319506
1760514869.4198205,-12.887069836173414,-0.20383224426832364,0.9489475737302235,-0.2854104751442041,11.84665712548439,2.3553286608112063,20.75292834435503
1760514869.4299695,-12.680282440928426,-0.2080589703226176,0.949162102435909,-0.28713602282484746,11.169472278155444,1.298851587351662,18.97829554618616
1760514869.4398649,-12.494850810921491,-0.20810012387800578,0.9481767660001855,-0.2886105547671537,10.571535611572902,0.015774915093427985,17.21094111760382
1760514869.4497986,-12.32445566054677,-0.20452668483955502,0.945898721636712,-0.2903804299014051,10.060300072070913,-1.2675008283453,15.53812198785539
1760514869.4598427,-12.16303347329416,-0.1981352052048349,0.9422552041031801,-0.2929058399887631,9.634281014228177,-2.353846874818606,14.032417644783257
1760514869.4700503,-12.005285855041567,-0.1898580465519792,0.9372481980325039,-0.2964641281670123,9.285740212432657,-3.092202612383088,12.748818415051725
1760514869.4799142,-11.847056516160581,-0.1806661030329917,0.930992444413497,-0.30110136333970366,9.003494665241776,-3.387635026082469,11.723301578326693
1760514869.4898348,-11.685546941144349,-0.17147259057994818,0.9237343359634732,-0.3066355780907585,8.775676095585448,-3.2044612526943523,10.972830580377515
1760514869.4999454,-11.519366556356303,-0.16304973238347684,0.9158520937473266,-0.3127054244358821,8.592207064722446,-2.5628735475794606,10.496642806495219
1760514869.5098946,-11.348434836343076,-0.1559680355576873,0.9078391058454482,-0.3188496547702696,8.446714082131534,-1.530059184348197,10.278612482754342
1760514869.5198126,-11.173764474616393,-0.150562551276039,0.9002729998109881,-0.3245980142801891,8.337619879208404,-0.20727451024471094,10.290396226934547
1760514869.5298502,-10.997156422981156,-0.14692516520250087,0.8937730816376049,-0.32955428270742604,8.268259428657393,1.2853480033007025,10.495016482224521
1760514869.5398033,-10.820833973258692,-0.14491867749100876,0.888948076251694,-0.333456744881999,8.246017108984718,2.824371058690894,10.850534560126933
1760514869.5498192,-10.647039645414894,-0.1442075498392151,0.8863349347096039,-0.33620799524468764,8.280634808293888,4.2972193582498255,11.313511192429514
1760514869.559801,-10.477617889435379,-0.1443005287393035,0.8863290683466455,-0.33787235079799627,8.381951634114351,5.6134408214161144,11.842030997340814
1760514869.569827,-10.313607077054598,-0.1446004554797869,0.8891081799053847,-0.3386443636193454,8.55739118706487,6.711974241467873,12.398153439028457
1760514869.5799391,-10.154863815230284,-0.14445618740697902,0.8945561542566018,-0.3387962712579381,8.809522338880408,7.5638412045507835,12.949724700948531
1760514869.5898693,-9.999741617415003,-0.1432116421848636,0.9021989390305515,-0.33861566190339665,9.134002671483612,8.170238327176266,13.471530899423081
1760514869.600081,-9.844847190305126,-0.14024851209277492,0.911168811846876,-0.3383462010199617,9.518183094622913,8.556574175640025,13.945797051777793
1760514869.6099045,-9.684903598477337,-0.13502219188696843,0.9202147745753173,-0.3381431991692566,9.940612628416321,8.763520749548812,14.362054689816354
1760514869.6198194,-9.51275998136152,-0.12709382859951915,0.9277737405722084,-0.33805256233683934,10.371632700926847,8.83656038439582,14.716429827952298
1760514869.6299465,-9.319597788171874,-0.11616344411649328,0.932109658765465,-0.338017402290517,10.775182500971749,8.815728697269627,15.010444136197162
1760514869.639914,-9.09538622727047,-0.10210851896548118,0.9315168673888253,-0.3379119909451492,11.111838428578324,8.727229498619986,15.249465493789117
1760514869.649877,-8.829627473782582,-0.08502915650032014,0.9245713832375804,-0.337597876093485,11.342970301650126,8.578316213781248,15.440977090413531
1760514869.6598992,-8.512400612059114,-0.06529583181814126,0.9104009617059772,-0.3369919421526345,11.435709989569967,8.356326119772794,15.592845911725927
1760514869.6702027,-8.13566184637057,-0.0435899934290761,0.8889332172452974,-0.3361319344302818,11.368205561741103,8.032084557745696,15.711755246724413
1760514869.6799393,-7.694691415758774,-0.020922868141202738,0.8610733674007137,-0.33522334157894657,11.134412988215809,7.567161501706905,15.801925656967123
1760514869.6898193,-7.189504422207512,0.0013846400053048387,0.828762310229828,-0.334654177681059,10.747517741455807,6.923775212984847,15.864199398311378
1760514869.699821,-6.6259784790224385,0.021776616573396065,0.7948741572689008,-0.33497076251481583,10.241045810736349,6.0756059648634375,15.895523626751059
1760514869.7098107,-6.016415509167253,0.03860076594601666,0.7629313696031876,-0.33681545062908663,9.66687577831703,5.017494693947493,15.888852688323503
1760514869.7198887,-5.379271557154552,0.050308592863876615,0.7366463063799102,-0.34083366211202276,9.089748174054547,3.772031719120211,15.833500013550896
1760514869.729887,-4.737883264677499,0.055696249819914175,0.7193413081195131,-0.34756234084180593,8.578509388926395,2.391464317037514,15.715984692422085
1760514869.7398705,-4.1182138684363325,0.05414048632844816,0.7133528753565059,-0.3573175164380357,8.19518017487539,0.9542083476092935,15.521399770250046
1760514869.7498114,-3.5459180909990806,0.045762460635986546,0.7195704268512522,-0.3701053385665332,7.983811645906815,-0.4435584062037512,15.235248201200314
1760514869.759936,-3.0432841641611033,0.031454704157231596,0.7372551569427659,-0.38558230469209126,7.961607369779746,-1.6995436171353648,14.845557681180642
1760514869.7700443,-2.6266998264360324,0.012747628395113892,0.7642013823081155,-0.4030786295474208,8.11454336410375,-2.7178358847400568,14.344963811838035
1760514869.7798915,-2.3051347504948208,-0.008447334217613817,0.7971789287757792,-0.42167758437734,8.398635942975746,-3.419958069362512,13.732423146528348
1760514869.7899432,-2.0798233512625477,-0.03014116605524944,0.8325114219595329,-0.4403275903735394,8.74653018265575,-3.752967058112563,13.014299452888281
1760514869.7999415,-1.9450318045459234,-0.05054152242190816,0.8666410184936482,-0.4579613862306155,9.077848937973933,-3.694038201466701,12.204696068959448
1760514869.8098593,-1.8896033983124396,-0.0682497405179543,0.896577069458242,-0.4736032773860776,9.311125556021816,-3.2516616086284476,11.325017357153216
1760514869.8199034,-1.8989092886195156,-0.08236408566356442,0.920181186693469,-0.4864535614269487,9.375137647356157,-2.46389868057735,10.402811233648688
1760514869.8298252,-1.956855888892243,-0.09249615105236132,0.9362838808230756,-0.495945607113108,9.217887793373857,-1.3942171438281459,9.46998166223082
1760514869.839839,-2.047677759525991,-0.09872054888090524,0.9446554168244706,-0.5017759036400252,8.812155547629523,-0.12539934398477592,8.560484135966387
1760514869.8499222,-2.1573442400321965,-0.10148282021226557,0.9458676973554182,-0.5039106829618648,8.157299001561142,1.2479883178681943,7.707652756028571
1760514869.8599265,-2.274505120184618,-0.10148913531835049,0.9410882322694721,-0.5025736178161321,7.277642480625969,2.628029806276222,6.941368243478312
1760514869.870017,-2.390979262430252,-0.09959606907668678,0.9318454012932254,-0.4982175398780116,6.218227804943088,3.922181640947417,6.285347854487197
1760514869.880207,-2.5018433359660066,-0.09671218005169137,0.9197989845187078,-0.49148103194048026,5.038903579444057,5.051586691011177,5.754885298175328
1760514869.8898964,-2.605207180439152,-0.0937176856944265,0.9065426005286296,-0.4831306250356907,3.8077292596124463,5.958230265888116,5.355359884995691
1760514869.899901,-2.701773195122694,-0.0914048834008063,0.8934558406033403,-0.4739916683624329,2.5945427492032977,6.610188956697213,5.081760354506176
1760514869.9098446,-2.7942742218764693,-0.09043917456322047,0.8816141533223668,-0.4648740399600506,1.4653299424031683,7.0043072345590565,4.919342977631637
1760514869.919886,-2.886870074750922,-0.09133754913472074,0.8717550532426093,-0.45650087567786185,0.4777820101571472,7.165825599229029,4.845387729382079
1760514869.9298956,-2.984559097066077,-0.0944582484943709,0.8642915640795203,-0.4494486744581764,-0.32182611491018553,7.1447671148510565,4.8318547867734445
1760514869.9398766,-3.0926324594967665,-0.09999342199728167,0.8593592364103249,-0.4441057460861405,-0.9005194773047692,7.009236024564477,4.848602487052105
1760514869.9498854,-3.2161733671728006,-0.10795757089791073,0.856881927936364,-0.44065373720755735,-1.2395130157694578,6.836158673946965,4.866732788203832
1760514869.9599223,-3.35958900217197,-0.11816877507811996,0.8566431767204817,-0.4390743700861029,-1.3344385788285302,6.7003644286853525,4.8616012252733585
1760514869.9699073,-3.526163611372325,-0.13022571444064499,0.8583533264217996,-0.4391802922553694,-1.1952361170079375,6.6632116870985065,4.815075674028547
1760514869.9800603,-3.7176345510327544,-0.14348911509775014,0.8617063005628067,-0.4406646960547133,-0.8459390307899566,6.762155613751199,4.716747494436176
1760514869.9904313,-3.933813103985549,-0.15707956996738287,0.8664227749858691,-0.4431598731878218,-0.3244177875600054,7.002686558822739,4.5639673562937295
1760514869.9998596,-4.172291022484058,-0.16990365349047323,0.8722776904617231,-0.4462922419528131,0.3180393315326872,7.35392051752077,4.360761356275595
1760514870.0098417,-4.428285638935205,-0.18071677230498878,0.8791099408948597,-0.4497226480284299,1.0175739578416532,7.748795955504217,4.115846661153191
1760514870.0200388,-4.694677516026831,-0.1882251907594327,0.8868119884715324,-0.453166052794608,1.6993553181580328,8.089343390499794,3.840087067843786
1760514870.0301132,-4.962285203543938,-0.19122281658585116,0.8952985279882688,-0.45639221265173324,2.2801997964329592,8.256881648084228,3.543799653373297
1760514870.0398798,-5.22040378869291,-0.18875185701074543,0.9044568244469485,-0.45921573817989675,2.6723459021134586,8.126312668527103,3.2343470600721558
1760514870.0498328,-5.45760774911597,-0.18027019507278694,0.914086496641926,-0.4614870321608843,2.788333372843376,7.5830062648791605,2.9144300612495955
1760514870.0599391,-5.662781924253573,-0.16580178493629463,0.9238420038537808,-0.46309314524005857,2.5467575635544857,6.5401703008912255,2.5814285059220463
1760514870.0698652,-5.826297188298318,-0.14604078528221448,0.9331954787604779,-0.4639703898003994,1.8785426113755082,4.9541873507481595,2.2280128556586325
1760514870.0798976,-5.941196694145064,-0.12237879384385533,0.9414393792546929,-0.46412220357584577,0.7333127860897669,2.8352827085083487,1.8440482954410304
1760514870.0898666,-6.004218091965471,-0.09683018592320286,0.9477454822614748,-0.46362978410814043,-0.914580696489192,0.2511982853061426,1.4195400824827555
1760514870.0998363,-6.016462486501293,-0.0718434900916375,0.951286130128774,-0.46264073767695185,-3.0608518386949677,-2.67760754164271,0.9480596683780258
1760514870.1098382,-5.98354492272941,-0.0500057623920181,0.951404575521247,-0.4613232369716074,-5.6674633682965325,-5.791297704951435,0.42981917666080477
1760514870.1198773,-5.915129757457471,-0.033670576572031576,0.9477985986599075,-0.4597821171150471,-8.660953849269454,-8.910764318935547,-0.12658084082263468
1760514870.1298962,-5.823861035405923,-0.02456527332646137,0.9406655696011974,-0.45794939843959187,-11.93384524924279,-11.860950680318545,-0.7046250096517208
1760514870.1398294,-5.72382237204573,-0.02345261639714858,0.9307583405129276,-0.4554794891336991,-15.350072375620787,-14.492755644200404,-1.2831062569364284
1760514870.1498988,-5.628772569806571,-0.029926608841050164,0.9193236750159743,-0.4516893946930991,-18.755002355500025,-16.699075761806743,-1.8419956989967456
1760514870.1598194,-5.550470090585086,-0.042404577184158986,0.907931105556134,-0.4455799987612081,-21.989823563759405,-18.42208269647004,-2.3700958753709704
1760514870.1699665,-5.4973972265914055,-0.05833847546127792,0.8982339364794895,-0.43595601390385835,-24.909073107055427,-19.65125526915423,-2.8729364823233454
1760514870.1801057,-5.474117983123134,-0.07461876245639534,0.8917204005357728,-0.42163478955334954,-27.399159972173667,-20.414128932921017,-3.378999821822265
1760514870.1900024,-5.481370663914223,-0.08809949637726472,0.88950759828412,-0.40170500698237327,-29.395219564399298,-20.76335325632315,-3.9424601869441713
1760514870.1998496,-5.516841452434045,-0.09614483590055056,0.892211017706993,-0.3757737992375991,-30.89365905186947,-20.764017873535433,-4.6412232003603275
1760514870.2098224,-5.576427087804332,-0.09709107441057487,0.8998994229390633,-0.34413453258449916,-31.95828024108881,-20.48437191010897,-5.570025186467944
1760514870.219908,-5.6557054556925275,-0.09053721118570673,0.912127781185512,-0.3078038470915392,-32.7187083169838,-19.99143229189564,-6.829437381044363
1760514870.2299204,-5.751311433060015,-0.07741664566396834,0.9280330492630563,-0.26841218334661526,-33.360808317462876,-19.35113587340107,-8.512520402683913
1760514870.2398543,-5.86196105894335,-0.05985000568870073,0.9464756307356017,-0.22797298218761913,-34.109712807296226,-18.63121530629986,-10.691352088527658
1760514870.2498372,-5.988961624580088,-0.04081991936598666,0.9662070140063983,-0.1885862327884923,-35.20696084801222,-17.904258749885948,-13.405594932912535
1760514870.2598226,-6.1361615210184555,-0.023735099847716757,0.986039794313284,-0.1521436371370462,-36.884018718895256,-17.24854870847714,-16.654743731916692
1760514870.269912,-6.309405029425962,-0.011962319535418148,1.004993853949994,-0.12009556526122088,-39.33503724031279,-16.74511561390309,-20.39492140324515
1760514870.2798233,-6.515641494072654,-0.008400419324434454,1.0223949736192122,-0.0933185156399685,-42.691986395394565,-16.47070129897436,-24.540331460940926
1760514870.2898057,-6.76188021022683,-0.015150717542843311,1.037908195026088,-0.07209203174721704,-47.00520503865512,-16.487666696130763,-28.968895242564564
1760514870.2998836,-7.0541784628747015,-0.03330923774198453,1.051497119725456,-0.056165553986540724,-52.23188410438744,-16.832958879242675,-33.53124085338395
1760514870.309896,-7.396811333057755,-0.0628801430214986,1.0633146530778599,-0.04487994108172088,-58.23410222642489,-17.508810777038253,-38.06204701465676
1760514870.320062,-7.79171701556142,-0.10279581537577788,1.073549368824129,-0.03730979790978499,-64.78685514424764,-18.47775473196488,-42.392734651384544
1760514870.330134,-8.23825662917129,-0.15102659864073795,1.0822663118032083,-0.032404016768229904,-71.59522703721207,-19.663807141440145,-46.3645509194987
1760514870.3398707,-8.733281061983503,-0.20476577915996147,1.0892847367391802,-0.02911231469322007,-78.31863901073875,-20.96047092099903,-49.841084708380514
1760514870.3498657,-9.271461689312808,-0.26067803311769305,1.0941287053064783,-0.026490894813809483,-84.59920227728297,-22.244745663509516,-52.71914573814633
1760514870.3598452,-9.845816868845336,-0.3152004552779793,1.0960728781618851,-0.023782414203845637,-90.09082521023406,-23.39490757699384,-54.936808333544526
1760514870.3699174,-10.448351067345854,-0.3648822347841697,1.0942856429235401,-0.020465731478897024,-94.48597223651194,-24.308698076837928,-56.47739763699912
1760514870.3799691,-11.070717626600272,-0.4067387598756344,1.0880445717521907,-0.016270259824604213,-97.5377290559106,-24.918063899712056,-57.36842410144015
1760514870.3899035,-11.704819942644939,-0.4385770841234363,1.0769695045508794,-0.011151371493663046,-99.075815507487,-25.197098488267628,-57.675083785704864
1760514870.3998253,-12.343280069706225,-0.4592302155576985,1.0611986399843638,-0.005231004732192247,-99.01607552246506,-25.161531409946804,-57.48893349147907
1760514870.409882,-12.979728443534453,-0.46863870520403805,1.0414395388549635,0.0012801053655933545,-97.36347218157042,-24.86057652716531,-56.91345029919419
1760514870.4198644,-13.60890089783944,-0.4677551672789142,1.0188671998763277,0.008154211368258406,-94.2086246947158,-24.364082311508138,-56.04894894005092
1760514870.4302137,-14.226562371815882,-0.45830296325265824,0.9948994535629061,0.015193909806640168,-89.7177262906214,-23.748688397452902,-54.97943635790339
1760514870.4399798,-14.829301304292022,-0.44245567556927085,0.9709239260188454,0.022254615985997872,-84.11590434952326,-23.085989832916447,-53.76343017718737
1760514870.449884,-15.414249679075896,-0.42250481310402926,0.9480588645195064,0.02925629988534261,-77.6651716566794,-22.43433073783521,-52.42980455935015
1760514870.4598656,-15.978783952684278,-0.40056792786149914,0.9270054306716363,0.0361969261709892,-70.63971315511476,-21.83459192534267,-50.97869034914011
1760514870.4699094,-16.520257847986514,-0.3783749474665969,0.9080112704860814,0.04316672606081648,-63.3023527163134,-21.309517362599774,-49.38665630822277
1760514870.4798381,-17.035812106092596,-0.35715590413905823,0.8909329310966911,0.05035198558452745,-55.88591884027153,-20.86573501112099,-47.614982798644014
1760514870.489932,-17.522297336987183,-0.3376340243962782,0.8753659382963691,0.058017121678480894,-48.58197267753608,-20.497575409515406,-45.61971955032911
1760514870.499832,-17.976331821182626,-0.3201076440301983,0.8608048558679465,0.06646181004062793,-41.53758033694275,-20.19193141580026,-43.362198056223136
1760514870.509915,-18.394496258410832,-0.30458891039221975,0.8467975933695318,0.07595966674647647,-34.85911371669139,-19.933536489738046,-40.81866355574977
1760514870.519872,-18.773644512192554,-0.29096016727932084,0.8330657628551621,0.08669199796180455,-28.62086868880448,-19.709999723778648,-37.98778929866396
1760514870.529833,-19.11128766698254,-0.2791107773681376,0.8195738360409613,0.09869265690958838,-22.875766621433286,-19.515714800413846,-34.895136052911774
1760514870.539851,-19.405992751690793,-0.26902702529509037,0.806541696719101,0.11181807671437957,-17.66547207344969,-19.353543791605958,-31.594077327402662
1760514870.5498521,-19.65773070037118,-0.26082321498009536,0.7944052553728101,0.12575094585332705,-13.027715658911033,-19.23321891947799,-28.163177976247297
1760514870.559844,-19.8681121178594,-0.2547186378834977,0.7837365776938521,0.1400382908367956,-8.999321119381396,-19.16584591530444,-24.700388256710816
1760514870.57,-20.04046398391416,-0.2509779133414059,0.7751387263151931,0.15415673215396386,-5.614374653610443,-19.154699722628834,-21.314691148431454
1760514870.579888,-20.17972383699128,-0.24983870515317974,0.7691324486307317,0.1675907277227648,-2.8981295992438545,-19.183543935920632,-18.116059882169097
1760514870.589872,-20.292156553234275,-0.25145049787988966,0.7660525435110247,0.17990533956699245,-0.8584612202366586,-19.204786520630226,-15.204780006867184
1760514870.5998783,-20.384926036939213,-0.2558407647623607,0.7659700936717609,0.19079647455624912,0.5224299224952497,-19.13059353845678,-12.661351946865631
1760514870.609884,-20.465572603648408,-0.2629121821972536,0.7686518633452556,0.20010961556091805,1.2933452751371362,-18.830191832238746,-10.5382455200757
1760514870.6198533,-20.541453534075394,-0.2724627107467948,0.773562233017649,0.20782766618033227,1.5347184753145668,-18.135693358363923,-8.85464051639161
1760514870.629885,-20.61920182942007,-0.2842155650573249,0.7799088585686867,0.21403419395187073,1.3543173925678849,-16.856981100027205,-7.594908276376806
1760514870.6398358,-20.704250440287012,-0.29784779145852874,0.7867291956499716,0.2188617849807548,0.8790279040280494,-14.804067765814322,-6.711014734869021
1760514870.649849,-20.800458686858455,-0.3130096997607211,0.7930076666744387,0.22243965194037976,0.24434811567977263,-11.813576349915651,-6.128415650743862
1760514870.6598763,-20.909867065585683,-0.32933112773489037,0.7978038562565359,0.2248564810401749,-0.4166628607592637,-7.775078972149158,-5.754557502580058
1760514870.6699164,-21.032598574976763,-0.34641535300330906,0.8003661497255318,0.22614899615410564,-0.9833850079104205,-2.6530662873788318,-5.488884062779264
1760514870.6799095,-21.166918179029174,-0.36382675269915105,0.8002069580873169,0.22631617406217838,-1.355287868277453,3.4988763592050645,-5.233235707300443
1760514870.6899035,-21.309454190988408,-0.3810827148877217,0.7971260771581664,0.22534895936791688,-1.45637670416023,10.53378605438391,-4.901602864608339
1760514870.6998842,-21.455574387727637,-0.3976628428333323,0.7911849945470457,0.22325833069723028,-1.2361650878257564,18.217437274128464,-4.42827165510302
1760514870.709847,-21.599893703934033,-0.4130465271426175,0.7826501988876134,0.22008235261261355,-0.6675536081853486,26.243824299536854,-3.7734784332406144
1760514870.7198408,-21.736868204249,-0.42678132096916327,0.7719305532004733,0.21585776448594673,0.25745604208951,34.257878329296894,-2.925838672663879
1760514870.7298822,-21.861406615134623,-0.4385721859929526,0.7595305363012069,0.21055340288685662,1.5330120394959517,41.88278873006002,-1.9011114958693314
1760514870.7398868,-21.96941683634882,-0.44837153814565717,0.7460311614413994,0.20397739997450887,3.1445289140026755,48.74925743969102,-0.7373279414493294
1760514870.7498622,-22.058208523104145,-0.4564453807883495,0.7320987120444863,0.19568312345290073,5.072982349350122,54.52414215391779,0.5131254945413602
1760514870.7600145,-22.126693145127742,-0.4633915587794968,0.7185117492447752,0.18490708514961285,7.298234819578142,58.93605938611007,1.7933752932898654
1760514870.7698636,-22.175352550420527,-0.47009140240946423,0.7061909050493083,0.1705734615275676,9.801678278844905,61.795643419708455,3.0524932309849797
1760514870.780056,-22.205978086157366,-0.4775849052880088,0.6962142246312928,0.15139273913641024,12.568625541008338,63.00843691029532,4.255053592897108
1760514870.789836,-22.22120994495843,-0.48687172549656965,0.6898034333681498,0.12606534435120703,15.590686043757776,62.578995398261256,5.38853908891438
1760514870.799877,-22.223929329543438,-0.4986577757091757,0.6882735764783879,0.09357592003035135,18.867905277330383,60.605796219773566,6.467658219493863
1760514870.8098526,-22.216575105631424,-0.513091580028865,0.6929483326191344,0.053534649342035064,22.40988643244321,57.26777298056713,7.535066200350156
1760514870.8199346,-22.200471887206334,-0.5295576426897137,0.7050517075876547,0.006497344524547623,26.234640418233067,52.804372956741084,8.658366479174926
1760514870.8298364,-22.175264846184437,-0.5465985254619317,0.7255899020422149,-0.04581403153328358,30.363763063597485,47.49171502069213,9.923569948783754
1760514870.8398306,-22.138552984262958,-0.5620130870936102,0.7552341156684841,-0.10045806032855958,34.81295403250534,41.617753842286064,11.42549604073613
1760514870.8498957,-22.085793149463697,-0.5731315005448914,0.7942080641657471,-0.15342571589656134,39.577951295335275,35.45941339973931,13.255952764827681
1760514870.859948,-22.010510807660136,-0.5772159097833556,0.8421791224972487,-0.19999688982099847,44.617443987416145,29.26435998972592,15.490816761937339
1760514870.869964,-21.90480612080149,-0.5719006626509738,0.8981571583655636,-0.23526767178992494,49.836006601104785,23.239356841330146,18.177232426700574
1760514870.880144,-21.760098645961698,-0.5555808050950615,0.9604194863382091,-0.2547917137683114,55.07112260897647,17.54612566278158,21.32209362215459
1760514870.8898513,-21.568024913295453,-0.5276774725363172,1.0264912095199463,-0.25526189376609665,60.08863364748454,12.304668781428756,24.882898913853026
1760514870.8998828,-21.321394946573943,-0.4887428377233481,1.0932072265635253,-0.23514257891044768,64.59030822121474,7.603255859597623,28.76208164299401
1760514870.9098756,-21.01512038751814,-0.4404066134349117,1.1568681166341215,-0.19515166854058177,68.23560688767866,3.5135417827696243,32.80599290992071
1760514870.9198573,-20.647038150938354,-0.3851991852941797,1.2134860245077095,-0.1384920536292802,70.67716438748344,0.10820457918726188,36.80973103369847
1760514870.9299126,-20.218562154782255,-0.32630135267874316,1.2591054615212183,-0.07075008510030222,71.60630094609043,-2.52293853482952,40.52878095927407
1760514870.939867,-19.735099991680645,-0.2672664128142215,1.2901789898038558,0.0005808581795336359,70.80172016469552,-4.263582384342757,43.69779347027763
1760514870.949911,-19.20617481424786,-0.21174528721274688,1.303971284675041,0.0669308792617892,68.17249474586667,-4.973580564911192,46.05576063866836
1760514870.9599192,-18.64520082758908,-0.16322743370745857,1.2989464256863303,0.1197433813245152,63.786423262226265,-4.506762604231828,47.37547764098985
1760514870.9698753,-18.068878475250408,-0.1247963145181428,1.275067457066121,0.15166362367975272,57.87712462223946,-2.7430817539009054,47.49384189729064
1760514870.9800718,-17.49620479640144,-0.09889551813028094,1.233928397625658,0.15762791130430534,50.82722000112094,0.37049531444434625,46.33863136709937
1760514870.989873,-16.947134141198788,-0.08711096717709245,1.1786659015322172,0.13565929359775775,43.129537335834016,4.7796086596811564,43.94724846535691
1760514870.9998996,-16.44097031460188,-0.08998768496017794,1.113652110062988,0.0872215200659137,35.33236602967483,10.29308268656077,40.473616963375974
1760514871.0098639,-15.994618313706335,-0.1069079306627408,1.044023366827824,0.01705882296903881,27.97753099734394,16.57332135262259,36.18086310199058
1760514871.0198627,-15.620867079157456,-0.13605850985482362,0.9751283426481095,-0.06746137109718937,21.540936376410496,23.151582956801505,31.419377234824427
1760514871.0298624,-15.326907063037385,-0.17450990638129651,0.9119804044134795,-0.15739750981880965,16.384224949304386,29.46817651986768,26.592075693813364
1760514871.0398872,-15.113296757342674,-0.21842072393421497,0.858783420662429,-0.24349789967283747,12.723730343332848,34.93250533404149,22.110862542718415
1760514871.0498598,-14.973567356661892,-0.26336760463197534,0.818579454436854,-0.3174632130788714,10.619607709133447,38.99377224520495,18.350055649376266
1760514871.0598743,-14.894587087437985,-0.30478033664728904,0.793046730750257,-0.3729945791004325,9.984613089912267,41.21095265448568,15.603443442856983
1760514871.0698476,-14.857703625625652,-0.3384355000812253,0.7824569160114475,-0.4064630010262258,10.609122160346566,41.310809038005594,14.051310107594462
1760514871.079874,-14.840566249656877,-0.360939510150635,0.7857809652678097,-0.41712010408976335,12.197107031884599,39.22509297841574,13.742180891717153
1760514871.089924,-14.819425265935807,-0.3701245916880013,0.8009148673107439,-0.40686749090271696,14.4070770213401,35.10184439154056,14.591572185189749
1760514871.0999558,-14.771634469095988,-0.36529299265251847,0.8249858874769221,-0.3796841448741731,16.892290634935204,29.28980185492799,16.397263431362795
1760514871.1098669,-14.6780520069842,-0.34727137597717467,0.8546988900222358,-0.3408578587181636,19.33557028048917,22.298603975430943,18.868114986538608
1760514871.1198492,-14.525047239059115,-0.31827072307364096,0.8866870836854208,-0.2961725169203362,21.475504386166865,14.7403599999497,21.661694436398783
1760514871.1298685,-14.305872648168767,-0.28157876791330966,0.9178361345737205,-0.25117705072584307,23.12244968960725,7.260224255045673,24.42518580284335
1760514871.1398492,-14.021242318447941,-0.2411348871416015,0.9455534756461299,-0.21061943264019972,24.164308933875127,0.46477135910172584,26.8342195414348
1760514871.149863,-13.679058902224387,-0.2010484346461945,0.9679585676560819,-0.17808418805488518,24.563338699595146,-5.142857038036437,28.625158917549893
1760514871.1598558,-13.293335689218656,-0.16512285465350945,0.9839775306762936,-0.15583323312878844,24.346102687142544,-9.212986940489163,29.617726453912226
1760514871.1699347,-12.88245687434788,-0.13644189705172588,0.993337073307464,-0.14482122318826476,23.58909387336773,-11.57865021068167,29.726394636106516
1760514871.1798627,-12.466994594555421,-0.11706080664212987,0.9964657083292224,-0.1448393505127514,22.4025401066316,-12.261073042018529,28.9604912030949
1760514871.1898444,-12.067346692430178,-0.10782864110001016,0.9943222694150919,-0.1547369321702834,20.914556835587696,-11.451909770198865,27.414302538666355
1760514871.1998768,-11.701473645565176,-0.1083554317041564,0.9881814957764755,-0.17267746122258845,19.257229092000316,-9.475925635130107,25.249439635980345
1760514871.2099924,-11.38299731208596,-0.11712738748372951,0.9794123338358072,-0.19639822230053472,17.55553949208965,-6.7403083626714535,22.672269592101404
1760514871.2202039,-11.11987410408389,-0.1317549003707611,0.9692836693824887,-0.22345209556075352,15.919459330815247,-3.678237775269275,19.90933643523924
1760514871.2298746,-10.913771980732884,-0.14931374327541982,0.9588236974771073,-0.25141665256483814,14.439075820285062,-0.6945763263007776,17.183500954675566
1760514871.2399006,-10.760180445833402,-0.16672445852533413,0.9487465566870115,-0.27806343820485613,13.18234123333784,1.8794363200129973,14.693114837785258
1760514871.2498682,-10.649189083867821,-0.1811168120633725,0.9394474674877484,-0.3014890417403924,12.194851137600905,3.817506513296987,12.595962202059015
1760514871.2599049,-10.566799310410829,-0.19013953481595125,0.931057082986521,-0.32021492183517836,11.500957847660297,5.013025526385017,10.999003660740492
1760514871.2698798,-10.496590619223861,-0.19219089413850823,0.9235372712215465,-0.33326294900470205,11.105516400458082,5.477035369092322,9.95423430667432
1760514871.2798948,-10.421543758758064,-0.18655784362971814,0.9167952315924189,-0.340209467589893,10.995682781649483,5.321353189154935,9.460315465821397
1760514871.2899253,-10.325822677526714,-0.17345931621025817,0.9107921417263306,-0.34121471962131694,11.142458885561512,4.7304158735083295,9.469120439917637
1760514871.3000486,-10.196329914581314,-0.15399400851964173,0.905626276448895,-0.33701946573771896,11.502064955867038,3.926472355234812,9.895969135880899
1760514871.3098664,-10.023877679084112,-0.12999851544803995,0.9015773677555913,-0.328899388674227,12.017581517245402,3.1332164714668065,10.632119884386599
1760514871.319866,-9.80386431614784,-0.10383068503901519,0.8991071094984353,-0.31857157852151685,12.621449504291903,2.542758224469119,11.558029644007165
1760514871.329897,-9.536412653861353,-0.07810329101631276,0.8988175826673909,-0.3080540517281243,13.239253701772238,2.2899829954792716,12.55597246662768
1760514871.3399172,-9.226000972644517,-0.05539907505593338,0.9013730134025378,-0.29948526905647277,13.79483917965025,2.437032142755706,13.52081125784102
1760514871.3499131,-8.880681318548326,-0.03799719013657578,0.9073917799789656,-0.294914725399862,14.216425655775907,2.969147165433942,14.368032962548142
1760514871.3599439,-8.511020234859501,-0.027635326482850584,0.9173180734078585,-0.2960795932962266,14.443130643082869,3.8016749893569903,15.038546773594012
1760514871.3701293,-8.128910194062884,-0.025325532474423127,0.9312876060430171,-0.30418760009329354,14.431210532125926,4.7967257992002255,15.5001575778787
1760514871.3799937,-7.746391215102053,-0.031237745054898545,0.9490079037107476,-0.31973186893647226,14.159330433380717,5.7868552134535145,15.746003938994912
1760514871.3899248,-7.374600133509285,-0.044663433657792136,0.9696783676170633,-0.3423669057368775,13.632213802074347,6.602296733367945,15.790540371955167
1760514871.4000568,-7.022937258368778,-0.06407050431993674,0.9919761135476806,-0.37087419191663956,12.88205909191544,7.097814944033765,15.663823178731636
1760514871.4101648,-6.698510710709936,-0.08725689747471989,1.0141290480794751,-0.40324004398539165,11.967147994164186,7.1752750144139,15.404932754476944
1760514871.4199243,-6.405888520257187,-0.1116017808596051,1.0340868865734973,-0.4368570999255391,10.967163218085648,6.798572078808376,15.0553529872497
1760514871.4301326,-6.147156848418392,-0.13439841489916624,1.049783298488084,-0.46884283943850613,9.974976175612671,5.998632598875884,14.653052382607262
1760514871.4399116,-5.92224854745833,-0.1532310247487732,1.0594574952602547,-0.49644232762900564,9.08517235583012,4.867729475442474,14.227890941842235
1760514871.449953,-5.72947098712647,-0.1663317788611099,1.061973070185162,-0.5174493958148093,8.380438407710521,3.5442116093621787,13.798820743019379
1760514871.4598713,-5.5661332806965005,-0.17283539858194327,1.057047628278505,-0.5305524265533275,7.918022805101183,2.190649782445895,13.373144986854198
1760514871.469891,-5.429163206567297,-0.1728599260226167,1.0453134247671123,-0.5355112041324749,7.719292137844018,0.9697631440120769,12.947825773355246
1760514871.4798775,-5.315618923506261,-0.16739215701846236,1.0281815373382885,-0.5331160169051888,7.765218036645218,0.02262904006687377,12.51249997001749
1760514871.489888,-5.22303055403042,-0.15801984321206164,1.007555195672908,-0.5249520118352059,7.999195690352033,-0.5475445040594947,12.053568274951385
1760514871.4998488,-5.149537910473601,-0.14659051049873484,0.9854838557902894,-0.5130484819495489,8.33655106821168,-0.6846699303469213,11.558575888716208
1760514871.509873,-5.093820161050769,-0.13487662241373732,0.96384738391705,-0.49950785778145396,8.67844339605504,-0.3821936129937083,11.020134249339312
1760514871.519876,-5.054846001794708,-0.12430617348757658,0.944127866044155,-0.48619016515623464,8.92715881817583,0.320360480712229,10.438787910092962
1760514871.529951,-5.031507754613789,-0.11579379181844959,0.9272915898340134,-0.4744969763372211,8.99995338933731,1.3454683291998233,9.824439378752333
1760514871.5398872,-5.022230456600757,-0.10968521874072222,0.9137773056613935,-0.4652689803444346,8.83932695269002,2.5890029363937885,9.196162035966479
1760514871.5502448,-5.024658534020228,-0.10580859321321398,0.9035692062721121,-0.45878888874952606,8.418594798975136,3.933632519018672,8.580436726489202
1760514871.5600665,-5.035514150898319,-0.10361059654828617,0.8963225122968056,-0.4548674085815726,7.742619991296788,5.262869714804786,8.008039618043082
1760514871.5700634,-5.0506929544936945,-0.1023451458092539,0.8915063128327232,-0.4529829156613155,6.844381401089704,6.474400617418839,7.509988773938134
1760514871.5798848,-5.065618670878014,-0.10127762494630216,0.8885330555349733,-0.45244322393960335,5.778568813761591,7.491365457654967,7.1131088334048895
1760514871.5898616,-5.075825769072057,-0.0998688954614771,0.8868551109120191,-0.45253966638742976,4.613592665016159,8.27041526972815,6.835862979757914
1760514871.599861,-5.077689064545099,-0.09790958946710991,0.8860218040974102,-0.4526696229523401,3.4233174005748204,8.80564748650206,6.685096781994974
1760514871.609883,-5.069179853255663,-0.09558462503638085,0.8857008575053621,-0.4524128332009851,2.279557304769355,9.127920518825443,6.654227650083961
1760514871.6199245,-5.050507407551689,-0.09345892665949126,0.8856741886337473,-0.4515572250985398,1.246005596885415,9.299537160724258,6.72320859615717
1760514871.629858,-5.024507461049743,-0.09238690562669745,0.8858195349282888,-0.45007949007356773,0.37389075311063863,9.40481780224775,6.860329774296159
1760514871.6399615,-4.996667103848239,-0.09335933144375091,0.8860877506749502,-0.44809299440562955,-0.3006629883282414,9.537587250164094,7.0256446548821305
1760514871.6498704,-4.974725402526583,-0.09731066729893394,0.886482599970594,-0.4457800951100843,-0.7578129513291636,9.787009684208977,7.175567357166281
1760514871.6598735,-4.967853777784668,-0.10491646906804795,0.8870467875357104,-0.4433269797097702,-0.9940600836732274,10.223477091783893,7.268017729621019
1760514871.6698701,-4.985488795588814,-0.11641276434729836,0.8878551979986475,-0.4408765677037475,-1.0215343595549287,10.886350157993624,7.26741110603322
1760514871.6798744,-5.035950448295571,-0.131466840934894,0.8890137752763986,-0.4385090755638884,-0.8667465570333497,11.775238962188629,7.14881031462899
1760514871.6899996,-5.125021625832336,-0.1491223062621878,0.8906604209697182,-0.4362515925023665,-0.5689151795421995,12.846179559895802,6.900680241846768
1760514871.7000077,-5.254684401464896,-0.16783217640675022,0.8929632108585468,-0.43410957214627477,-0.17785651507209804,14.01352077687988,6.525899199221118
1760514871.7101362,-5.422204717775183,-0.1855832843260308,0.8961112939886526,-0.4321073034185038,0.24864059879426204,15.157633603838661,6.040955104126962
1760514871.7198753,-5.6197287713452555,-0.20010375441092126,0.9002950042595385,-0.4303232109018614,0.6480200326234348,16.13778957561666,5.473536127865462
1760514871.7300034,-5.834501918244457,-0.20913301701090647,0.9056741165842086,-0.4289092370067837,0.9567084207516418,16.808835946844788,4.858958718366103
1760514871.7398844,-6.049747002234632,-0.21072233542092725,0.9123368408416901,-0.4280894841164881,1.1142127499264491,17.039714864417345,4.236019147240252
1760514871.749875,-6.246150961011381,-0.20352535219244794,0.9202563078936574,-0.4281388311656075,1.0672011514159787,16.731500007585097,3.6428862356860274
1760514871.7598813,-6.403817422098512,-0.18703458702292347,0.9292545028556765,-0.42934525301306076,0.7731001640779634,15.832515386077763,3.1135700937828465
1760514871.7699053,-6.5044613294102955,-0.1617222090367583,0.9389846627731351,-0.4319595924106535,0.20275404386062645,14.348293949708124,2.6753234831037993
1760514871.7799706,-6.533561763198165,-0.12905226835033975,0.9489419228991517,-0.43613476204870366,-0.6581726615804242,12.344640646542837,2.3470945128977783
1760514871.790072,-6.482163375433117,-0.09134737398176182,0.9585086329453709,-0.4418552693253048,-1.8091504550892477,9.942884345250288,2.1388926773806594
1760514871.7998927,-6.348039715961536,-0.051516264701424785,0.9670343767970487,-0.448860509526071,-3.2359833871175674,7.307504511574698,2.0516981839224435
1760514871.809893,-6.136015916714644,-0.012678392681641915,0.9739401702573574,-0.45657305996644787,-4.913008325780549,4.627595970656572,2.0773921579088857
1760514871.8199074,-5.857389781229367,0.022250191162357765,0.9788238414092091,-0.4640538155353327,-6.806053899267513,2.0948663865457053,2.1981848120204983
1760514871.8299592,-5.528557130526649,0.05093122528740118,0.9815364687603695,-0.4700120283934512,-8.876022767608726,-0.1182934848236881,2.3852365146203285
1760514871.840024,-5.169091112702438,0.07186830618835627,0.9822052328153489,-0.47289268536816503,-11.083078115210046,-1.8770193524693888,2.5966005272685195
1760514871.8499174,-4.799610060614848,0.08451594516956686,0.9811959756613136,-0.4710454747816412,-13.391407713074726,-3.095621011124555,2.7751398883750786
1760514871.859992,-4.439784259055555,0.0892216732008898,0.9790300766576358,-0.4629559435727867,-15.7743052585536,-3.741415877016468,2.847468955054704
1760514871.870153,-4.106783095777376,0.08702113240992512,0.9762834354204474,-0.4474989428063667,-18.218900057866463,-3.8314362449701687,2.7250543835181307
1760514871.8799365,-3.814356767499196,0.07933550863528219,0.9734949991343818,-0.42416239279455575,-20.729505363250915,-3.4243529107116393,2.3083119844506492
1760514871.8899014,-3.5725970643753593,0.06764345222479744,0.9711019550494876,-0.3931889972588225,-23.32849534180015,-2.6107313320684433,1.4939126877784012
1760514871.9000027,-3.3882687252639485,0.05320476632934354,0.9694065580612875,-0.3555977706627438,-26.053964164695902,-1.5043756074446717,0.18471659416354574
1760514871.9100475,-3.2654961237444726,0.03689361958111232,0.9685717977701958,-0.3130752706278285,-28.954078839740284,-0.23622622780752456,-1.6989944226926779
1760514871.9199414,-3.2065591345765005,0.019162548523041358,0.9686405601357577,-0.267759209499533,-32.07880868235998,1.0494120820842496,-4.208797235963666
1760514871.929997,-3.2125915364047404,0.00012106521190599966,0.9695720704400979,-0.22196152118417573,-35.4703694824126,2.197984790247404,-7.359804766362771
1760514871.9404943,-3.284057044831019,-0.020314324694794775,0.9712871581392964,-0.17788670713751376,-39.15406969200641,3.0494750092082765,-11.126266229552927
1760514871.9500608,-3.4209700590201737,-0.04225438019204763,0.9737111305653388,-0.13739560277062,-43.131198815193216,3.4468205746562353,-15.441922801900057
1760514871.9600396,-3.622904565239805,-0.06570807930994084,0.9768023452238512,-0.10184842007413533,-47.37517283627209,3.24866657310615,-20.205081782454883
1760514871.970354,-3.8888790620746083,-0.09052484473545841,0.980557194463165,-0.07203859440703707,-51.8314451194278,2.3454731232370962,-25.287510647323487
1760514871.979958,-4.217213802592182,-0.11641614850694348,0.9849885747308124,-0.04820849070826322,-56.42087186858043,0.6764338508027562,-30.545585373550704
1760514871.9899685,-4.605436538991328,-0.1430378379367672,0.9900841599441508,-0.030126620628074953,-61.04552444322788,-1.756257066703544,-35.83183060478598
1760514872.00017,-5.0502774677066995,-0.17009448790054663,0.9957590134416551,-0.01720354887577842,-65.59559362796531,-4.879215791051875,-41.00515504380566
1760514872.0099444,-5.547756624176202,-0.1974197117486906,1.0018193222653475,-0.008624780840206908,-69.95612804953309,-8.548251311864405,-45.93864110119447
1760514872.0199394,-6.093338534161204,-0.22499517561736299,1.0079491794766298,-0.003479967200241941,-74.0127965782776,-12.558332211126338,-50.52449061196926
