timestamp,angle,linear_acceleration_x,linear_acceleration_y,linear_acceleration_z,angular_velocity_x,angular_velocity_y,angular_velocity_z
1761286131.5800138,-7.3263396121023145,-0.14229131732199773,0.9281913041076257,-0.2692320193074043,7.2032202378535874,13.750412676012983,34.486300766786236
1761286131.5900156,-7.036687135768948,-0.1510802176538976,0.9269739998774187,-0.2719327625897211,6.591047084621623,12.867371991815654,34.00842408516406
1761286131.6000352,-6.759252810851342,-0.1532198296747593,0.9277266374825851,-0.2728731187485174,6.14194662528978,11.602928346212229,33.526845255813754
1761286131.610039,-6.484776766529449,-0.14865379234450238,0.9298686658010688,-0.2718429508674013,5.823224505294249,10.041834650543475,33.01806990240631
1761286131.6200194,-6.2056761358485355,-0.13811813675514062,0.9328307077777757,-0.2688480297772967,5.59737546140518,8.301754734421682,32.443514684191655
1761286131.6300058,-5.917090871415009,-0.1230368643488275,0.9361089547833353,-0.26410890007859705,5.426691161792913,6.521828453486333,31.757987456838855
1761286131.6400118,-5.617517881678421,-0.1053174078863328,0.9392958362599502,-0.25804444106692376,5.276666802818994,4.846850763905934,30.919641573430518
1761286131.6500142,-5.308932947418568,-0.08708048339691897,0.9420908913218591,-0.2512376777254038,5.1183417635905375,3.4095258687314076,29.900005652181044
1761286131.6600115,-4.9963801035207505,-0.07036748172319206,0.9442968452111616,-0.2443825949818197,4.9297411152719395,2.313630860993007,28.692507842187673
1761286131.670006,-4.687091848052639,-0.05686954335825212,0.9458061526247618,-0.23821381904302116,4.696546367174427,1.6208193768875239,27.31795870545753
1761286131.6800098,-4.389276632175538,-0.047716425428403514,0.9465834727770428,-0.2334246781323992,4.412063012850756,1.3432203149756141,25.825766865349262
1761286131.6900136,-4.110762178156609,-0.043352697986870754,0.9466495919217794,-0.23058194342496607,4.076513845224182,1.4430237781240767,24.290235075294348
1761286131.7003057,-3.8577079588680308,-0.04351615488170961,0.9460712229726795,-0.2300474008163381,3.695705394969015,1.8390757616238331,22.802082785591804
1761286131.7100291,-3.633593458353806,-0.047319739601748935,0.9449581937249466,-0.2319182575496198,3.2792036284877906,2.4193700038200894,21.45629947835579
1761286131.7200265,-3.4386471431246397,-0.053423822325921,0.9434653122214071,-0.23600047935951812,2.8382962750030707,3.0574594770747936,20.338440942587223
1761286131.7300315,-3.2698052681645535,-0.060271090326724654,0.9417924692986266,-0.24182903001824735,2.3841473243623117,3.630327635526027,19.512247574441805
1761286131.7400262,-3.1211925308585853,-0.06634477450373975,0.9401757504294085,-0.24874154785901667,1.926556025220433,4.035126216245094,19.01143487102364
1761286131.7506545,-2.98502310796041,-0.07040664678648836,0.938865788288613,-0.2559953213668992,1.473551500973525,4.202333393461404,18.837315220772947
1761286131.7600253,-2.852754841894465,-0.07167626918527507,0.9380955732076761,-0.2628994301094168,1.0317618230398078,4.1033679478603196,18.962055507033302
1761286131.770066,-2.716301782802361,-0.06992586724599166,0.9380447090203433,-0.2689270762410841,0.6072650150275021,3.7515980660640773,19.335935714941314
1761286131.7801716,-2.5691179074036117,-0.06548173867542702,0.9388082532890728,-0.27378128991196604,0.20655939086948502,3.1968754161929467,19.89651878529012
1761286131.7900288,-2.4069981253971866,-0.05913836610171152,0.9403763024944308,-0.2774032748978887,-0.1626524034543175,2.514862921895963,20.577897699243564
1761286131.8000543,-2.2284915584725917,-0.0520025747757102,0.9426273614095514,-0.27992822694761976,-0.49107226832295026,1.7932103948998974,21.318675809972078
1761286131.81002,-2.0348802073999,-0.04529301569782967,0.945335884780203,-0.28160477181818316,-0.7679250526301148,1.1169612873541843,22.06783476608317
1761286131.820022,-1.829741051391019,-0.04012676130409686,0.9481927096684392,-0.28270052450224886,-0.981624938828601,0.5554855926833469,22.788095754195535
1761286131.8300223,-1.6181755882160875,-0.037328157425591826,0.9508361266916301,-0.2834171719573996,-1.1209437407221725,0.15281729145725295,23.45675873980323
1761286131.8400276,-1.405843188763712,-0.0372907390028398,0.952890692848642,-0.2838335377802321,-1.1765372480314003,-0.07737981451435572,24.064299420436505
1761286131.8500538,-1.1979570250650555,-0.03990994990453007,0.9540103946568499,-0.28388569958267185,-1.1425938252114733,-0.15178956105388436,24.611228086148508
1761286131.8600304,-0.9983890765660957,-0.044588273166651926,0.9539222261151443,-0.28338313121532455,-1.018316883135959,-0.11274730028427507,25.10388859287456
1761286131.8700514,-0.8089946478965299,-0.050302782718073535,0.9524654557051323,-0.28205295313937023,-0.8089599145607966,-0.019935575542939777,25.549992769310617
1761286131.8802047,-0.6292240432774838,-0.05572113005139155,0.9496211303944601,-0.279602169895167,-0.5261886266282898,0.06002741973200379,25.954705453663674
1761286131.8900785,-0.4560511523832398,-0.059352804818254036,0.9455265729315401,-0.27578879383314453,-0.18762098936341184,0.06445422912426989,26.317978131097057
1761286131.9001622,-0.28421745857733527,-0.05972332369982943,0.9404714251692532,-0.2704941431835289,0.18451810961676315,-0.055653768463176406,26.633575797241384
1761286131.9100974,-0.10676180981278964,-0.05555736098726977,0.9348748571648782,-0.2637882262226294,0.5655746968942025,-0.3282557234889348,26.889898247573587
1761286131.9200444,0.08422095644318477,-0.045953659002911165,0.9292469242333106,-0.2559781003776024,0.9312563265149677,-0.7562285162392832,27.072328158941023
1761286131.9300604,0.2966740861617924,-0.030532052073844348,0.9241402267038,-0.24762786417996532,1.260626969994289,-1.3170286417143675,27.166510245958325
1761286131.9400191,0.5376251269648015,-0.009532962230861322,0.9201010036211997,-0.23954146437681487,1.5387653082588486,-1.965901637934922,27.161747354394336
1761286131.9500499,0.8122908273007804,0.01614680505382154,0.9176303254410096,-0.23270637282784432,1.7585366523074994,-2.641953907897914,27.05365063556406
1761286131.9600751,1.1233420159641152,0.044991692745159025,0.9171635204022658,-0.2282041872694635,1.9210475405175778,-3.2759840398120046,26.84532448898087
1761286131.9702325,1.4704138710606807,0.07498029816390801,0.9190685203761062,-0.22709870448839956,2.0345600120275233,-3.798749097145478,26.546674877842
1761286131.9801874,1.8499239630512345,0.10376777341514305,0.9236546884174828,-0.23031136243174077,2.111902405565388,-4.148377564047021,26.171834450064328
1761286131.9901035,2.2552334312095486,0.12892532856246622,0.9311781872684933,-0.2384910295679612,2.1666882347507697,-4.275927752730708,25.735111644443208
1761286132.0000567,2.677155264343772,0.14821745538084072,0.9418312985273632,-0.2518846656946141,2.208890525962239,-4.148539122963617,25.24620607785852
1761286132.0100336,3.1047730899222548,0.15988765506585778,0.955710397544587,-0.2702202162926505,2.24046912881198,-3.750109372939187,24.705617152571783
1761286132.0200324,3.526481345312776,0.1629118027610017,0.9727666851216825,-0.29262180229254314,2.2518022613524997,-3.079866554559366,24.10116253049863
1761286132.030041,3.9311027073812475,0.15717193399899815,0.992751532526372,-0.3175841786277057,2.2196399524444304,-2.1495710561046093,23.406327441362816
1761286132.0400336,4.3089037937195656,0.14351036002237147,1.015172824333619,-0.34303211014720836,2.1071756515841833,-0.9803533853131134,22.58086435141555
1761286132.0503178,4.652337087553925,0.12364528044178506,1.0392796799301602,-0.3664783875232624,1.8666134221758925,0.39973352548088803,21.57375719697639
1761286132.0600448,4.956389898090047,0.09995573714746252,1.0640894066922975,-0.3852748140032687,1.4442825924802067,1.956628713137093,20.32839629593948
1761286132.0700417,5.2185035399481325,0.07516531229413438,1.0884613709154933,-0.39692921302289,0.7879171363933495,3.6494235886383435,18.789535795795498
1761286132.08018,5.438112371180008,0.0519664959002713,1.1112091488370666,-0.39944340020252456,-0.14479631722402503,5.42829503997517,16.911266679929668
1761286132.090096,5.615921443518188,0.03263425634458936,1.1312295109605812,-0.3916162069655279,-1.3777919755127535,7.232366743212094,14.664860619857352
1761286132.1000605,5.753081576358666,0.018683080153310216,1.1476194447525536,-0.3732544901874029,-2.910025697973711,8.988955435217761,12.045066872022511
1761286132.110043,5.8504298326751965,0.010629446296799183,1.1597530657874937,-0.3452435233480861,-4.712392131482033,10.615523311161763,9.073464324433333
1761286132.120035,5.907946301543558,0.007925921630725084,1.16729940237545,-0.3094462636314577,-6.729423068363699,12.025084048321453,5.797884819697137
1761286132.1300447,5.924537909739846,0.00911415648706939,1.1701789183587814,-0.2684319553589704,-8.886228572701459,13.134923573707937,2.2876560836712128
1761286132.1400552,5.8981930940577305,0.012184980139254897,1.1684773632971859,-0.2250785123376287,-11.100056852565517,13.877524442047019,-1.3747516178229424
1761286132.1500602,5.826458640013601,0.015054728547656333,1.1623516993878724,-0.18213554732925372,-13.294636730146964,14.211788004258162,-5.104368543580111
1761286132.1600718,5.707097620791845,0.016021381024647292,1.151965687140036,-0.14185021947239387,-15.414410169687798,14.132261381250682,-8.824877295921066
1761286132.1700513,5.538739882077065,0.01408420456541365,1.1374803450305493,-0.10573335810982122,-17.43527362674514,13.674202221197524,-12.47834304859833
1761286132.1800592,5.321358456986856,0.00907433650489629,1.1191036489752717,-0.07449383526904531,-19.368864172576277,12.91290640504551,-16.031812000011435
1761286132.1900306,5.0564762017583975,0.0016049180360669958,1.097183142589568,-0.0481234190126785,-21.25877587135896,11.956688422356264,-19.479636110489544
1761286132.2007022,4.7470849696971245,-0.007116946818733386,1.0723098836788663,-0.026088499892736757,-23.169038265489235,10.934139657373617,-22.84118408366132
1761286132.2100458,4.397318896967924,-0.015563321411028288,1.04539609490877,-0.007576994826792467,-25.167155771233706,9.977558579513612,-26.15445566876194
1761286132.2200649,4.011960481500984,-0.022189734864135047,1.0176943083139627,0.008249929530250945,-27.305399708549952,9.205355326864924,-29.466848041234734
1761286132.230046,3.595876348556746,-0.025720981981688443,0.9907403219613274,0.02204546871920709,-29.60448988922171,8.706456953748189,-32.824786365084535
1761286132.2400393,3.153479909692314,-0.02537871547142503,0.9662207502001229,0.03413754981756571,-32.043243599011156,8.52922974356815,-36.26402813507001
1761286132.2501369,2.688301903919973,-0.021025259159826015,0.9457843650261456,0.04448002630453366,-34.55640341449398,8.676400302373015,-39.802155752410144
1761286132.260045,2.202721787856746,-0.013212196344076471,0.930831244395636,0.05269520234500603,-37.04104932344637,9.106220216596865,-43.43417655676752
1761286132.2700357,1.6978805794468281,-0.003133190864224693,0.9223206524318605,0.05819286409517643,-39.37021836057767,9.739006070269491,-47.1314621195502
1761286132.2800715,1.1737670806324862,0.007512272784151427,0.9206348465249653,0.060340711104340486,-41.41101149853141,10.46745901517296,-50.84370023284244
1761286132.2900617,0.6294499298411417,0.016731914321691615,0.9255225774855419,0.05865473656224135,-43.04378233000882,11.168943628643403,-54.503218121371944
1761286132.3000891,0.06341803896994674,0.02251071687181982,0.9361272044902414,0.05297373848939928,-44.17899185602783,11.71811357000727,-58.030948501031205
1761286132.3100765,-0.5260124683193664,0.023107190457541293,0.9510864426935133,0.04358104188667865,-44.76888393556374,11.99871218708479,-61.34336169438793
1761286132.320078,-1.1402703084987378,0.017332711075086292,0.9686797605447306,0.0312423163151766,-44.81213617424653,11.91384110217281,-64.3597692111913
1761286132.3300748,-1.7801295865609341,0.0047640987063303645,0.986997489308781,0.017143455998358814,-44.350885772201586,11.394340744570275,-67.00944420699456
1761286132.3400624,-2.445389611315469,-0.014154366703359324,1.0041103755864242,0.0027359174903639947,-43.46082692694704,10.405129363978066,-69.23799776512982
1761286132.3501613,-3.1346782161133366,-0.0381427688912006,1.0182255364188948,-0.010477335803105264,-42.23623853053754,8.949468808683699,-71.01243803440589
1761286132.3600667,-3.845406193580767,-0.06524628323159401,1.027821330135061,-0.02116516872351347,-40.77264823875724,7.071233987707438,-72.3243714415474
1761286132.370037,-4.573876981912507,-0.09309525786940588,1.031757390489862,-0.028351448598422934,-39.15022748710108,4.855282632099711,-73.1909150596172
1761286132.3800678,-5.315531985435985,-0.11922117381038218,1.0293563363231513,-0.03152459562982464,-37.42086827478403,2.4257871790936743,-73.65306866654937
1761286132.3900971,-6.065293101074738,-0.14138114464996365,1.0204519257481262,-0.03066079842878778,-35.60122254279087,-0.05808799954579147,-73.77150833241917
1761286132.4000962,-6.817952461194753,-0.15784636626639764,1.0053973245389574,-0.026166243940013788,-33.672875182796055,-2.4101848772728323,-73.62000170945733
1761286132.4100485,-7.568556117480908,-0.1676180764499831,0.9850287588400584,-0.01875775724020616,-31.589456970282058,-4.429966109507751,-73.27693521908671
1761286132.420071,-8.312733916832604,-0.170547743580844,0.9605846048394202,-0.009310643434951514,-29.289171307793662,-5.919955284078038,-72.8157871914268
1761286132.43011,-9.046940821787855,-0.16735314305041002,0.9335869565140111,0.0012942084838373214,-26.710232309334884,-6.707030919652105,-72.2957019231019
1761286132.4400723,-9.768591511146168,-0.15953411804043247,0.9056998321897897,0.01229467063336932,-23.80632380825804,-6.665383974201422,-71.75347617974585
1761286132.450058,-10.476085881737339,-0.1492004910963048,0.8785823332003079,0.023121894584445243,-20.55943263519839,-5.7380828139291085,-71.19814733477033
1761286132.4600484,-11.168735651664516,-0.13883265900440273,0.853753437777443,0.03341655224948431,-16.988139031764124,-3.9538839302362656,-70.6089884521146
1761286132.4700527,-11.846611019044872,-0.13100283400611623,0.8324782008270909,0.04299332071272281,-13.150402277523568,-1.436206616015375,-69.93722014951874
1761286132.4800982,-12.51033095090599,-0.1280878704927624,0.815677497960957,0.05177197215893653,-9.140793602521303,1.598029903301402,-69.11130075793173
1761286132.4900546,-13.160821169995359,-0.13200180641299702,0.8038599212944161,0.05969844440880287,-5.082821528971052,4.850872636567143,-68.04531400604974
1761286132.5001283,-13.799061421244785,-0.14397108562798225,0.7970759843315008,0.0666775732915074,-1.1174048359368596,7.966949909056928,-66.64970535473537
1761286132.5101202,-14.42584013934689,-0.16437151942524048,0.7948983148226083,0.07253285112563006,2.6112820514547725,10.566724974255042,-64.84337472873295
1761286132.5200567,-15.041531890425924,-0.19264351100344204,0.7964330502272401,0.07700008519574009,5.9713105486845945,12.28658233758897,-62.56589914016054
1761286132.5300393,-15.64591160217546,-0.2272989445430145,0.8003661116188351,0.07975371202308669,8.858481625494848,12.821786607428185,-59.78845930684114
1761286132.5400538,-16.23801937383086,-0.266028228705324,0.8050456355469211,0.0804586472983448,11.210269506288506,11.967471028124983,-56.52192947630024
1761286132.550077,-16.81608958214837,-0.3059088910990083,0.8086009233209659,0.07883706309618203,13.01656663994089,9.65239747830238,-52.82062080252644
1761286132.5600958,-17.377556640728237,-0.3437072053171292,0.8090986220806808,0.074737220719671,14.325612573390373,5.96047302214628,-48.78042176349165
1761286132.570079,-17.91914579428884,-0.37625158212971554,0.8047360806697191,0.06818995139811741,15.243804789244265,1.1359906812351075,-44.530627581446524
1761286132.5801017,-18.437049562528824,-0.40084230850253455,0.7940672638964116,0.05943884015725973,15.92867019188413,-4.42979292492359,-40.21961350519318
1761286132.5901268,-18.927177540109284,-0.41564876559888414,0.7762473777522662,0.04893417598579803,16.575058411962353,-10.23100395881866,-35.995612123271414
1761286132.600166,-19.38544877061387,-0.4200352785516647,0.7512704637089639,0.037287928309208886,17.3955337486614,-15.696299311552131,-31.9850315006473
1761286132.6100585,-19.808075284769235,-0.41475446071893496,0.720163751423974,0.025195268540516378,18.59690062102971,-20.250325412315664,-28.271728268544805
1761286132.6200604,-20.191771954946603,-0.40195662039553065,0.6850977026697728,0.013335593740717971,20.355635468920656,-23.38095571476994,-24.881118412146286
1761286132.6302094,-20.53383388923681,-0.3849870730961773,0.6493741715300175,0.0022719661511957814,22.79547544079852,-24.704365012910326,-21.772737203817112
1761286132.6400614,-20.83205481853113,-0.3679770137101382,0.6172671130794699,-0.007628107585724629,25.97029717093425,-24.019506682979408,-18.843755720872775
1761286132.6501021,-21.08451067278431,-0.3552701940295276,0.5937077879059324,-0.016227312248735436,29.854618627558686,-21.344212683630833,-15.944100158682694
1761286132.6601145,-21.289280773029724,-0.35075713501396205,0.5838249397059591,-0.023591884697267307,34.342717134484595,-16.926976825910476,-12.901511856003983
1761286132.6701224,-21.44420259484328,-0.35720400980692785,0.5923676526599705,-0.02990255672512885,39.25583560123324,-11.23128782176471,-9.552647348253783
1761286132.6802638,-21.54674454587039,-0.375664051191826,0.6230561539223122,-0.035323491882319834,44.35572148306648,-4.892724713988487,-5.77469422741243
1761286132.6901531,-21.594039859641132,-0.4050500993382572,0.6779266069763,-0.03986889098924233,49.36222300713088,1.3476053907540257,-1.5113873853769537
1761286132.7000997,-21.583070004835385,-0.44193482958792135,0.756759078298644,-0.04331562794573402,53.9729582719284,6.726766215852252,3.2120242110830377
1761286132.7102325,-21.510939632412377,-0.48063760664785776,0.8566961183866372,-0.04520490816974972,57.883861927290134,10.55198460685538,8.28841226995579
1761286132.7207112,-21.375167559171313,-0.5136565846427036,0.9721619840305192,-0.04495848174442583,60.810211492196004,12.29037877238513,13.543727768616888
1761286132.7300825,-21.17393897610642,-0.5324979858961479,1.095171569907342,-0.04210919748169471,62.508183609844714,11.644900707640327,18.76477592940706
1761286132.7400665,-20.90631019636751,-0.528907268642973,1.216072124696788,-0.03661145389881915,62.796876363550595,8.605284762104098,23.734399017513773
1761286132.7501245,-20.572397138451425,-0.4963938595554052,1.3246901554509682,-0.02915521291586753,61.57990471360252,3.4649530108042907,28.2668934066308
1761286132.7601619,-20.173585302809187,-0.4317872113564048,1.4117587423645073,-0.021373945999431904,58.864195986202645,-3.201176138849107,32.236388059089876
1761286132.770179,-19.71276995532229,-0.33643878227009405,1.4703837404785285,-0.015837078602922675,54.77198219349575,-10.597836139371482,35.59248068198438
1761286132.780161,-19.194588353205415,-0.21666694952838733,1.4972089726389872,-0.015760006517531903,49.54110339032122,-17.80372058425414,38.36031709618124
1761286132.7902794,-18.625562685713962,-0.08317425750961022,1.4929336165346847,-0.024440839809582577,43.50953970047814,-23.887576958988195,40.62597939896463
1761286132.8006945,-18.014051246007647,0.05055929634890744,1.4619809481619415,-0.04452901617893899,37.0830002751534,-28.02988227508328,42.511673071284484
1761286132.81007,-17.369920681547452,0.17057195438656336,1.411389001864172,-0.07731739379414759,30.688829682542845,-29.631028695148316,44.14763527429236
1761286132.8200922,-16.703908808578213,0.2648305327791668,1.3492594789378767,-0.12227578325991732,24.723858674810966,-28.387638180052107,45.64798357053288
1761286132.8300912,-16.026731857789752,0.3251593162399929,1.2832198150285818,-0.1769784721324103,19.50625445408308,-24.323870668199216,47.0957070033732
1761286132.8405797,-15.348071912143784,0.34828836707486116,1.2192812379764566,-0.23744796397949655,15.24082949336677,-17.77356301526458,48.53844433785743
1761286132.8506382,-14.675629197501003,0.33591338089229855,1.1612812774613437,-0.29880766243848594,12.00394806023378,-9.318958546699255,49.99300266684036
1761286132.8601265,-14.014426339548244,0.29390448225897975,1.1108922358475397,-0.3560614221134883,9.749448707223777,0.3005791162587914,51.45413289169275
1761286132.8700678,-13.36651349158879,0.23093842818815247,1.068036758129747,-0.4048136461124966,8.332388326462663,10.29294430958694,52.90266339893512
1761286132.880077,-12.731158235059812,0.1568692264397384,1.0315011922643516,-0.44179451290984606,7.544075807032526,19.91418579735309,54.30958655734733
1761286132.8900967,-12.105524651753253,0.08113068527478116,0.9995596770780969,-0.46513193037554007,7.150489340024679,28.552206501171447,55.63527536346437
1761286132.9001026,-11.48576163458634,0.011410084591280616,0.970484904582223,-0.4743855402622316,6.926894863662065,35.78360017786389,56.82557968797124
1761286132.9103377,-10.86834194006048,-0.047237327030067514,0.9428935402348188,-0.47040547354820555,6.683817232252725,41.39843950818202,57.80815478266809
1761286132.9201705,-10.251434818208184,-0.0927428138865628,0.9159303048631491,-0.45508893818818685,6.282492643374962,45.39243214767082,58.49250150652065
1761286132.9301028,-9.636071592591936,-0.12584583590753723,0.8893228568889849,-0.4310884663439044,5.640502260521176,47.93036720195673,58.7759512630752
1761286132.9401639,-9.02688462942521,-0.14946903479644894,0.8633435811744421,-0.4014981364132022,4.729778476064509,49.28874031336814,58.555834642862486
1761286132.9500864,-8.432263128697883,-0.16780197540003933,0.8387071828210265,-0.36952852374593265,3.569507721800139,49.78821073789887,57.74612668758204
1761286132.9600723,-7.863859999551562,-0.18528364479628892,0.8164262838651564,-0.338183675775782,2.216021729974049,49.72755400330647,56.29553982934632
1761286132.9700708,-7.335483391125073,-0.20566789284466433,0.7976446897088089,-0.30996632999653984,0.7511204905005974,49.32983617638221,54.203549298478556
1761286132.980548,-6.861497378036144,-0.23131760886915093,0.7834670463948862,-0.28664803743761474,-0.7301914800678223,48.70885341175664,51.53113261744633
1761286132.9900706,-6.454928517849414,-0.2628180086161193,0.7748012315521563,-0.269139252791668,-2.1317319730724473,47.85998861552107,48.40390010551393
1761286133.0004513,-6.125523004269255,-0.2989397360574321,0.772225357761688,-0.25747922335746326,-3.3670892665505,46.67528401098909,45.00653401820386
1761286133.0100815,-5.878019006468684,-0.33692495549649243,0.775886341886755,-0.2509428791315628,-4.368651625943348,44.97848823695297,41.56878182042882
1761286133.020092,-5.710887623943561,-0.37301975050116337,0.7854344138947984,-0.2482410879135514,-5.094003183829091,42.57273968079859,38.34446614390697
1761286133.0301576,-5.615752650733651,-0.4031416940287411,0.7999990660726287,-0.24777802868419704,-5.52920454362865,39.29180847619495,35.58594386851282
1761286133.0401146,-5.577624799273335,-0.42355863423789997,0.8182148288166131,-0.24792612431235028,-5.688755593529786,35.04562670292847,33.51707176531748
1761286133.0505288,-5.575983390177439,-0.4314646677243509,0.838306261199391,-0.24728185485416299,-5.612313928109976,29.85214427727776,32.307964637129395
1761286133.0601208,-5.586616116909066,-0.4253676394769776,0.858238227968938,-0.24487105054167013,-5.358503702034638,23.85008851591849,32.05465366628644
1761286133.070091,-5.584001959907317,-0.4052413850753205,0.8759294293347155,-0.24027865772048204,-4.996424560286732,17.290553072651985,32.76618456828976
1761286133.080088,-5.543919136557436,-0.37243744488176095,0.8895148766981452,-0.23368707814326936,-4.595788030136642,10.508996844331879,34.36080049871084
1761286133.090105,-5.445908347557422,-0.3293900733477199,0.8976284146791833,-0.2258208060478443,-4.2169410394314,3.8826610444179703,36.67174988765114
1761286133.1001184,-5.275242400775525,-0.27918121875940144,0.8996635945203215,-0.2178119531017866,-3.9022745690422926,-2.2189647919842947,39.46208728556245
1761286133.1106696,-5.02414622731693,-0.22505345534291343,0.8959655932708995,-0.21101625088725876,-3.670516231888078,-7.4817660973246705,42.446754445897355
1761286133.1204169,-4.69215171456458,-0.16996305559957242,0.8879116239755317,-0.20681627362412874,-3.5150757736274163,-11.684393682439387,45.31939402321953
1761286133.1300895,-4.285621043183071,-0.11625064498297266,0.8778511486099212,-0.20644504757114815,-3.406975238399461,-14.719300187431156,47.78085908716283
1761286133.140104,-3.8165945283336504,-0.06547707329156004,0.8688962349866352,-0.21085049465020153,-3.3020856580238673,-16.594577062626794,49.56626698971569
1761286133.1501079,-3.301194065638701,-0.018435193723247402,0.8645734616467856,-0.22060416401511754,-3.1515937078476517,-17.417345024393978,50.46769091132445
1761286133.1619706,-2.757838356401289,0.024687515355993478,0.8683707893322242,-0.23584290338041422,-2.914001796557788,-17.36270676531729,50.35014223356473
1761286133.1706438,-2.205508667272523,0.06404896240075983,0.8832345131170264,-0.25622557025811526,-2.5666366530454803,-16.634659498208805,49.159310119744006
1761286133.1801114,-1.6622542309251238,0.09986575168079198,0.9110889370669696,-0.28089165702125546,-2.1146555820807738,-15.426516301050054,46.92052390858234
1761286133.1901183,-1.1440563166466264,0.13217332684940447,0.952459175528268,-0.30842341484993396,-1.5958892501837147,-13.888127778820053,43.72949074189206
1761286133.2001243,-0.664095478222705,0.1606925123416142,1.006270723099585,-0.33683229554894023,-1.08048858077992,-12.105596078438063,39.73638273334253
1761286133.2101395,-0.23240504320120192,0.18483221645927433,1.069875320826007,-0.36360591774009693,-0.6651579538515877,-10.096545755187197,35.125640211098094
1761286133.2201128,0.14414448025343496,0.2038192460651854,1.139311436666916,-0.38585391184442086,-0.4626392606289375,-7.8208934671054795,30.09431704140328
1761286133.2301097,0.46160326136490204,0.21690891144040975,1.2097572202724884,-0.4005738617361185,-0.587923059075267,-5.204098872554228,24.83189805355293
1761286133.2406774,0.7185222568796984,0.22360665911073682,1.2760918308306002,-0.405024465302096,-1.143253516470062,-2.167693372824355,19.504261231704575
1761286133.2501266,0.9154381693577744,0.22383255372558442,1.3334652985617765,-0.3971534843474808,-2.2042203216540672,1.3391378911081253,14.243794470115219
1761286133.2601082,1.0543442930650884,0.21798761386834292,1.3777897990382695,-0.3759983625166029,-3.809000330540508,5.312918412204321,9.146596098880336
1761286133.2701216,1.1382186066657038,0.20691826746517492,1.406093202074178,-0.34196890455601575,-5.952152137532551,9.678917295672262,4.27633551254641
1761286133.280135,1.1706598921410072,0.19180337455802562,1.4167063249406928,-0.29693680734334815,-8.583473591262548,14.286674135212328,-0.32697848529937973
1761286133.2901225,1.155653120370628,0.17400061502411704,1.4092841687773696,-0.244090927912975,-11.611598295269589,18.91867310839918,-4.636051856859915
1761286133.3001413,1.0974536432969209,0.15488928778469918,1.384686427553606,-0.18756172713687683,-14.91145536845175,23.310780519087825,-8.626270071001075
1761286133.3101134,1.0005539469082056,0.13573784877460482,1.3447603808193866,-0.13186610066273657,-18.334492520487437,27.18137246740872,-12.269250353326203
1761286133.3200855,0.8696825455866237,0.11760954180265835,1.2920775744814057,-0.08126731787396657,-21.720564256101426,30.264889982832035,-15.53153022367063
1761286133.3300877,0.7097848847383623,0.10130638967975075,1.2296730546456844,-0.03917268437674886,-24.910465549468597,32.344883812382434,-18.3783942613199
1761286133.340083,0.5259505777393326,0.0873479811223586,1.1608224109790848,-0.007690890443719618,-27.75814229058574,33.28149681696155,-20.78137066195066
1761286133.3500967,0.3232745934555408,0.07598308409192467,1.0888714847859926,0.01256399585443025,-30.141619761422174,33.028968491576116,-22.72703021214481
1761286133.3601117,0.10666263357499181,0.06722948966693779,1.0171129723367183,0.022396253355706355,-31.97171358352964,31.64027724533075,-24.22462206547722
1761286133.3701015,-0.11939554138372362,0.060929040158963096,0.9486894047393819,0.023721376750927604,-33.19769163244414,29.25829087665128,-25.31065686143618
1761286133.3801289,-0.3510593907600989,0.05679805837699247,0.8864974108088162,0.019118605181034136,-33.809288764097175,26.095269689503397,-26.049471634659117
1761286133.390109,-0.5853585679591367,0.05445514213379567,0.8330752889259346,0.011350557482055686,-33.834854611089426,22.404616359288326,-26.529757952800647
1761286133.4001637,-0.8203902734883691,0.0534188523496153,0.790471845310228,0.0029437936380770843,-33.33590280135703,18.449864802954277,-26.857787704605382
1761286133.41065,-1.055484127056308,0.05308259278186325,0.7601121480253226,-0.004108022002110932,-32.39882571485482,14.475841507336886,-27.148536397195144
1761286133.4205444,-1.2913215667651077,0.05268671990984796,0.7426875608467545,-0.008494322479418646,-31.12490368547528,10.68586785361133,-27.516075882212377
1761286133.4304168,-1.529989490876689,0.05131365497305575,0.7380991346673809,-0.00960059241287091,-29.61987526838139,7.2272001887039465,-28.06452591011726
1761286133.4405289,-1.7749426820887015,0.047928537568504626,0.7454756507697938,-0.007416336960628472,-27.98424580398818,4.185141176539773,-28.88058538901419
1761286133.4501126,-2.030850815200368,0.041476650976009506,0.7632728448550717,-0.0023803010822555605,-26.3052678112468,1.584872264565816,-30.028304853985535
1761286133.460103,-2.3033161136302565,0.031032048751910474,0.789442244361166,0.004796050143916836,-24.65121798284801,-0.6006956715292516,-31.54640531049824
1761286133.4701247,-2.5984675937151787,0.015973329491121416,0.8216422055767633,0.01329452446388032,-23.06828974521884,-2.4389125444549635,-33.448148448506835
1761286133.4801154,-2.922464755562349,-0.0038524225110618013,0.8574560598976163,0.02232588891484833,-21.580146365531633,-4.022873244092039,-35.723525159744796
1761286133.4900997,-3.28097055564463,-0.028021847787177794,0.8945855142669836,0.031227871000377407,-20.18993483999788,-5.455757644896672,-38.34333592000986
1761286133.5001159,-3.6786703001092182,-0.055519399359861374,0.9309991556069357,0.039526698658631794,-18.884348741744663,-6.835200098194362,-41.264565788350374
1761286133.5101128,-4.118910774442358,-0.08482723791460205,0.9650296281025322,0.046966279646873194,-17.639178595634153,-8.238838867363109,-44.43629534181563
1761286133.520182,-4.603510268729702,-0.11410692202618657,0.9954223577604012,0.05350762659891591,-16.42572461303533,-9.712296786824034,-47.80525997751852
1761286133.5301416,-5.1327522530678324,-0.14143541131381648,1.0213412225934062,0.05929886767555801,-15.21744361720447,-11.260944975223044,-51.320150286660855
1761286133.5401328,-5.705536859870032,-0.16504752675867101,1.0423348039134201,0.06461618050038055,-13.99619646081826,-12.846722234603334,-54.9339230333613
1761286133.5501077,-6.319637901769959,-0.18354172086008763,1.0582659635957492,0.06977942831767966,-12.757412743063421,-14.39087033377393,-58.60378369887254
1761286133.5601556,-6.972004323765099,-0.19602075074430472,1.0692119624995609,0.0750529688984459,-11.513428556697383,-15.782671586617827,-62.289022581731594
1761286133.5700967,-7.659050768617261,-0.20215589259489625,1.0753522246775435,0.08055002452171785,-10.29428892751317,-16.89327418382527,-65.94737772550599
1761286133.580112,-8.376895889141032,-0.20217769342396866,1.0768697776358538,0.08616373617447301,-9.14556291768745,-17.592721902832405,-69.53089196475466
1761286133.5900989,-9.12152431339632,-0.19680684780975058,1.073891600916943,0.0915451932543972,-8.123223562542995,-17.767677355091124,-72.9822466774747
1761286133.6001542,-9.888865860063524,-0.18714543787520913,1.0664801307788478,0.09613778977891885,-7.286260131372335,-17.337276327270544,-76.23233750144269
1761286133.610102,-10.674800796452232,-0.17455059177255816,1.0546700463206937,0.09926246238562901,-6.688183402665425,-16.26508721950215,-79.1995211542875
1761286133.6202316,-11.475109956541974,-0.16050971049472834,1.0385309254518362,0.10023568804135873,-6.368776493179456,-14.566036576763393,-81.79062798738379
1761286133.6301363,-12.285392867036089,-0.1465307652404765,1.0182319500974628,0.09849522235733699,-6.347302499157052,-12.308067735639753,-83.9036029077793
1761286133.6401033,-13.100977323325488,-0.1340547210728532,0.9940882369583133,0.093708012599178,-6.618004042879412,-9.608990538105918,-85.43154061398718
1761286133.6500983,-13.916841995654956,-0.1243905024850352,0.9665759858314587,0.08584009688353864,-7.148265931943344,-6.629378736978179,-86.26786699139628
1761286133.6601164,-14.727570309398732,-0.11866647590517058,0.9363122396575718,0.07517861695179684,-7.879384520630166,-3.562490063459144,-86.31241660184052
1761286133.6701844,-15.527348626423652,-0.11778740443798541,0.9040027052045154,0.062308008326741285,-8.729571410656519,-0.6220590350739668,-85.47813907823745
1761286133.6800888,-16.310014163318016,-0.12238389928256424,0.8703674139049529,0.04805081597638899,-9.598639435055881,1.9714736349738926,-83.69813241376387
1761286133.6901095,-17.06914886980218,-0.13274475792886187,0.8360595536442115,0.033385589161740954,-10.373753697987178,4.006024903386145,-80.93262867874122
1761286133.7001286,-17.798207584458268,-0.14873387147439648,0.8015973561418624,0.01935237920988429,-10.935645987774885,5.2940940482889305,-77.1754206313348
1761286133.71011,-18.490666228900206,-0.1697119314564828,0.7673304451876395,0.006955141621308711,-11.164779657603084,5.6899067632899305,-72.45903890462102
1761286133.7201178,-19.14018045457464,-0.19450065072174497,0.7334577810170749,-0.002928826025774301,-10.94712311926389,5.106856671336055,-66.85785527170036
1761286133.7301219,-19.740754103359553,-0.22143089896063317,0.7001032470349577,-0.009622065853309303,-10.17943671374753,3.533969512917721,-60.48828321950214
1761286133.7401326,-20.286923804712178,-0.24849949989390915,0.6674396338984916,-0.012695491731294913,-8.77425982706008,1.0492648559192652,-53.505406110339855
1761286133.7501366,-20.773965834823912,-0.2736286887647297,0.6358380686120503,-0.011991193905006027,-6.665005028554393,-2.1729156030198635,-46.09567872520746
1761286133.7601302,-21.198122930385157,-0.2949909368137092,0.6060133031798093,-0.0076254287440438865,-3.811565018431163,-5.863915038760772,-38.46579415244129
1761286133.770826,-21.556834387889698,-0.31134006138670073,0.5791371919534705,1.7536474038402254e-05,-0.20649692386755367,-9.67497323722779,-30.828359882610034
1761286133.7808406,-21.848936182958596,-0.3222801043120657,0.556900241918678,0.010290750844090053,4.118762592091293,-13.20511457649776,-23.38565856877733
1761286133.7901678,-22.074783593692956,-0.3284065498698007,0.5415094021212652,0.02228682561977229,9.088808392686522,-16.0419374538412,-16.313383560668967
1761286133.8001525,-22.23624317651538,-0.33127110074307775,0.535614664976486,0.0348464638850265,14.581776019353534,-17.81178846140553,-9.746645898265639
1761286133.8101587,-22.336511136578917,-0.33315084682852714,0.5421556701891329,0.046590943527166306,20.430799568140365,-18.233080180992086,-3.770571194384078
1761286133.8204782,-22.379744689291854,-0.33663939546683336,0.5641152536428917,0.055995535533953575,26.430244042248788,-17.164442851497764,1.582642462203066
1761286133.8309498,-22.370536411245915,-0.3441124153193342,0.604166480802775,0.061512011961123866,32.34672345620893,-14.638701004869063,6.3292792940092575
1761286133.8401573,-22.313304782669594,-0.3571471820658219,0.664210313895608,0.06173706954032062,37.93396308710015,-10.874910837880297,10.522751712233397
1761286133.850149,-22.21170183168726,-0.3759938567250388,0.7448281520675567,0.05561272126978593,42.94970037585599,-6.263945503676533,14.237448022552114
1761286133.8601217,-22.068142207341662,-0.3992042561482492,0.8447177210509326,0.042631279089461495,47.172360752621145,-1.3276982116884655,17.55126831357622
1761286133.8701184,-21.88353762427389,-0.4235179022597587,0.9602325866962363,0.02299897236861294,50.415489402607726,3.343296166850399,20.530905236954748
1761286133.8801417,-21.657283927380476,-0.4440806592546964,1.0851845626592342,-0.0023032218338816354,52.53890789232482,7.165262806592884,23.223376891733974
1761286133.890135,-21.38750520659963,-0.4550262677627144,1.2110713244710818,-0.03161832019880712,53.45687954922873,9.638918859387749,25.655708779828352
1761286133.9004498,-21.0715199213545,-0.45038733204002784,1.3278405835831961,-0.0628930811239059,53.14445285985875,10.418502658822682,27.842372197233157
1761286133.9102058,-20.706464721333724,-0.4252247857744877,1.425186881972728,-0.09410077468948529,51.642956073191385,9.362336118230933,29.797708009565596
1761286133.920226,-20.28999515334183,-0.376781246077504,1.4942028138102468,-0.12370432075557679,49.064249673861376,6.5575411905658845,31.54878240356793
1761286133.9302382,-19.820975853885912,-0.30539154044128686,1.5290187965875282,-0.15101083495355963,45.591451672500376,2.31450092012897,33.14358786400759
1761286133.9401405,-19.300070112370065,-0.2148644096650755,1.5279647418146511,-0.1762720208754698,41.47259346015559,-2.8698377058985236,34.650655148140316
1761286133.9501834,-18.730137551017975,-0.11213848692868986,1.4938747602231122,-0.2004656991572157,37.00413764470292,-8.376178379458478,36.14892783159443
1761286133.9602737,-18.11635662522664,-0.006225811915760857,1.4334294036842559,-0.22483293085622727,32.5038001606409,-13.545344844300114,37.71038239488672
1761286133.9706104,-17.466020062553504,0.09329539625072483,1.3557521107858717,-0.25036052459855335,28.27579101208664,-17.76469212355047,39.380910163478525
1761286133.980117,-16.788013673316872,0.17782854112821225,1.2706839921449002,-0.27741104478334394,24.574768457409764,-20.542552718610214,41.16594529156939
1761286133.9901226,-16.09206790245745,0.24096735678463874,1.1871841500391374,-0.3056118926829212,21.576057327622774,-21.558345082205218,43.02565327569257
1761286134.0001245,-15.387932226892712,0.2791531547749568,1.1121793105838007,-0.33399006725714253,19.358538429119122,-20.683221249757356,44.88097464253467
1761286134.0101109,-14.684633809228382,0.2917637405914304,1.0500014113316174,-0.3612487814515848,17.90354715221168,-17.973572619738462,46.62812888555472
1761286134.0201352,-13.989942196213955,0.2807558538274663,1.0023811160655265,-0.38605590170220083,17.10915384875243,-13.644403693948012,48.15686604157508
1761286134.031354,-13.310098101056422,0.2500382514443824,0.9688518709689399,-0.40724555581930283,16.815573913917927,-8.030773155341775,49.36744236856934
1761286134.0401235,-12.649806071210609,0.20473913606307964,0.9473730846191034,-0.423896567035107,16.83528759879105,-1.5442364402675812,50.182671098646495
1761286134.0501192,-12.012451601192351,0.1504823199305382,0.9349937854693017,-0.4353129573245111,16.981329462723295,5.370890656821157,50.55361479835746
1761286134.0601826,-11.400481422620695,0.09273646099471046,0.9284325223681339,-0.4409677816059956,17.08894652857627,12.278335160254704,50.459627036109026
1761286134.0701528,-10.815873825248184,0.03627386758126879,0.924519999808018,-0.44047180831097393,17.028575968628925,18.785406207412418,49.90483047540838
1761286134.080167,-10.260617062178746,-0.015229728700123932,0.9205090385838957,-0.4335999996678496,16.710759880260024,24.57105145811099,48.913461451558675
1761286134.090138,-9.737106435063684,-0.05942255916529784,0.9142832624584833,-0.42037019702119494,16.085292836163262,29.404366976419585,47.525988540212545
1761286134.1002371,-9.248370299713141,-0.09531107285655738,0.9044928750237198,-0.4011392962658598,15.137229290556572,33.15227115043478,45.79696952501942
1761286134.1101444,-8.798050997645873,-0.1231083978245846,0.8906289839151252,-0.3766730632134613,13.881673280462682,35.77643159682552,43.794685962980395
1761286134.12014,-8.390102580124237,-0.14393761348937714,0.8730332421130904,-0.3481559191354063,12.358245928241038,37.32100822128542,41.60192052038049
1761286134.1302867,-8.028218513308246,-0.15945442648457245,0.8528342196649177,-0.3171279622062347,10.625394469228977,37.893815484117056,39.316840470600766
1761286134.1401587,-7.715059500569768,-0.1714601014988764,0.8318047284197622,-0.28535752668932024,8.754475300380868,37.64389950673445,37.0527563556972
1761286134.150144,-7.451403753406542,-0.18156560415901238,0.8121409898417795,-0.25467149471753536,6.823659273091019,36.73838410843972,34.93550895631707
1761286134.1601298,-7.2353801736086085,-0.19094941510218802,0.7961723649187292,-0.2267710071473847,4.911907755076445,35.34102999535299,33.097452690368726
1761286134.1701393,-7.061959684286588,-0.20023164937447463,0.7860205518951445,-0.20305971040638082,3.0933805501687375,33.594511420240316,31.66755564257947
1761286134.180314,-6.922860442535749,-0.20946876535655526,0.7832431822266325,-0.18450817549093732,1.4326216443023951,31.60807741362687,30.75811551101294
1761286134.1910167,-6.806958152784513,-0.21825547306361087,0.7885191557884822,-0.1715735576285924,-0.01923018091344242,29.45204769192249,30.449948577718928
1761286134.200713,-6.7011848479209934,-0.2259039109452912,0.8014517746523911,-0.1641880903451027,-1.227064089004111,27.16025294470586,30.77920206496814
1761286134.2104554,-6.591779347634968,-0.23165838668328276,0.8205585302527104,-0.16182104566515787,-2.173164845754637,24.74046128330741,31.729233030897795
1761286134.220576,-6.465672442287806,-0.2349000180846417,0.8434694109830309,-0.16360421677353174,-2.857246258650776,22.190713525271445,33.229638029334794
1761286134.230156,-6.311780624646445,-0.23529908521753895,0.8672897502533149,-0.1684949974552702,-3.295095873901414,19.517204690479506,35.16221889352939
1761286134.2401254,-6.122026770118971,-0.23288260909803002,0.8890408198627566,-0.17544263935240909,-3.5158662196290087,16.74849070911344,37.37201712574338
1761286134.2501395,-5.891966732654128,-0.22800118362697036,0.9060902332285016,-0.1835268764500988,-3.5582053596046985,13.942007527079165,39.68127525544427
1761286134.260132,-5.620958511234828,-0.2212022339799162,0.9165086580219377,-0.1920504674827467,-3.4656014124881134,11.18137208991678,41.90470183702314
1761286134.2701406,-5.311868205345678,-0.2130420412515696,0.9193165990278537,-0.20058176399185634,-3.2814571928606457,8.5655204874374,43.86490786435276
1761286134.2801232,-4.97036811943894,-0.20388763327319634,0.914605490426564,-0.20895518819616582,-3.044464161048382,6.192695389299293,45.40705160263733
1761286134.2902043,-4.6039405601223,-0.19376427749733566,0.9035312949373071,-0.21724398096823935,-2.784808854000186,4.14329833187027,46.41167454598186
1761286134.3002589,-4.220743382220034,-0.18229255779296047,0.8881888531562382,-0.2257200363925022,-2.5216575966245007,2.465590947330813,46.804624479192405
1761286134.3101437,-3.828510110222893,-0.16873553602019892,0.8713833149589051,-0.23481086921226801,-2.262257269546568,1.1673260485811474,46.562983506772426
1761286134.3201315,-3.43364599756079,-0.15214984694073347,0.8563218773488512,-0.2450560015518879,-2.0028523633138042,0.2149651301412334,45.71610898558108
1761286134.3301296,-3.0406457382964236,-0.1316120550406214,0.8462549455660292,-0.2570573682580465,-1.7314199372784926,-0.4594379274091085,44.34126419351224
1761286134.3407166,-2.6519052101123606,-0.10647608387963901,0.8441009585285063,-0.2714136016469371,-1.4319559931273154,-0.9450586224930747,42.553854240062144
1761286134.3506453,-2.2679347372938223,-0.07660886557355598,0.852093142770598,-0.2886282795259042,-1.0897500516249836,-1.335331848927163,40.492959164933545
1761286134.3601916,-1.8879122593951243,-0.04255081937110007,0.8714879913725883,-0.30898821268668497,-0.696837656886888,-1.7103483689841483,38.30359166511959
1761286134.3701327,-1.5104539006203184,-0.005559056117413837,0.902372815427219,-0.332418815850638,-0.2567046007721207,-2.1218313876301127,36.1177540205477
1761286134.3801599,-1.1344433528403448,0.032484837621592495,0.9436025126691012,-0.3583369445226279,0.21261791568195726,-2.5833259445432035,34.03674626556378
1761286134.3901508,-0.7597632821551062,0.06928966178299217,0.9928830897262281,-0.3855335530137818,0.6776812787591519,-3.067146631248723,32.117160592957205
1761286134.4003427,-0.38781300132335494,0.10245011084973155,1.0470005455248106,-0.4121254968304302,1.0912028475704891,-3.5083176249394343,30.362566966349366
1761286134.41036,-0.021762626054171195,0.1297614854618329,1.1021694624642613,-0.4356143954016797,1.3958869629271902,-3.8145139548929037,28.72212539126554
1761286134.4201365,0.3334415885047752,0.14949000262269113,1.1544524744206859,-0.4530771658620584,1.5298183997665515,-3.880109038557847,27.096394020484247
1761286134.430144,0.671267508046448,0.16055323109957842,1.2001896615866827,-0.46148622047507837,1.4324115752639897,-3.6019876526782513,25.3496136353697
1761286134.4401138,0.9839241607498108,0.16259627433035712,1.2363802711171799,-0.45812268531258576,1.0497674830605108,-2.894818677683318,23.326884126501476
1761286134.450173,1.262782460532741,0.1559781584885734,1.2609722184920669,-0.44101573869465616,0.3384667515017882,-1.7038721906385268,20.874002081315897
1761286134.4601374,1.4988652531282902,0.14169671617455273,1.2730292485632289,-0.4093273269263193,-0.7327217574545213,-0.013984948223958706,17.85736507376308
1761286134.4701352,1.6833906190229455,0.12127748529958839,1.2727592458153287,-0.3636074056924885,-2.1831574313294486,2.1462410277518997,14.181320521092614
1761286134.4801512,1.8083459915744575,0.09664131895812669,1.2614028789803329,-0.3058653996522187,-4.022073911337855,4.705481925224903,9.800686740501172
1761286134.4901671,1.8670535194523878,0.06995557407027779,1.2410011313099243,-0.2394329682256803,-6.250799664545188,7.555950233966401,4.726907694573659
1761286134.50024,1.85466809386056,0.04346829082936266,1.2140801818842508,-0.16862877551009878,-8.864399801672537,10.564215377896728,-0.9726666426089936
1761286134.5101998,1.7685395185284971,0.019324866303161898,1.183306186341129,-0.09827392375359797,-11.85189003231339,13.585249223251928,-7.181769660410667
1761286134.5201633,1.6083786753252183,-0.0006262507751461051,1.1511652337403524,-0.0331374416234586,-15.194649247208716,16.47775430296278,-13.746941484931677
1761286134.5303752,1.3761964415242889,-0.015020637991242659,1.1197139850588096,0.02259692259459734,-18.863271065067988,19.1184669368459,-20.49189551328636
1761286134.5401764,1.076025807617703,-0.023129783904426937,1.090427951558246,0.06576286517040535,-22.813655100688845,21.413154943078386,-27.232350545402166
1761286134.5501776,0.7134778056398604,-0.024947872075534464,1.064153342042252,0.09449075930862604,-26.983471828426676,23.302555268953576,-33.78951838471422
1761286134.560181,0.2952072435060505,-0.021191433371380755,1.0411508082463503,0.10831375678337228,-31.290130721911602,24.762464324520653,-40.001100348815086
1761286134.5701706,-0.1716308563431964,-0.01320536070752658,1.0212087450891079,0.108107448533308,-35.631035676480444,25.798350200144856,-45.72935181777048
1761286134.5801654,-0.6798656033195053,-0.0027863286642002506,1.0038001976867286,0.09588944723457579,-39.88634935677055,26.43587503099508,-50.86630397744625
1761286134.5901756,-1.222688357781243,0.008051659384316815,0.9882580418510621,0.07451773708109032,-43.923912742776615,26.709362239743506,-55.336486254699395
1761286134.6002913,-1.7939008669705467,0.017337174071151925,0.9739444121615838,0.04733185156783064,-47.60557130326191,26.650453614941327,-59.09751274514106
1761286134.6102552,-2.3880311742867026,0.023391074127423462,0.9603911316629361,0.017779751504627964,-50.794046406558444,26.279048379978708,-62.1388248177206
1761286134.6201854,-3.000333812270744,0.025030463455198926,0.9473900456606112,-0.010931601997107984,-53.359622072271044,25.598198705026594,-64.47883896430324
1761286134.630261,-3.6267054621855523,0.021695933976729462,0.9350185452992869,-0.036129744898432944,-55.186160015963104,24.59399217720763,-66.16074726765602
1761286134.6401572,-4.263555450975901,0.013482109652397507,0.9235970592744163,-0.055888031850019976,-56.176192049175604,23.240589397676903,-67.24722782725775
1761286134.6501865,-4.90767028833023,0.0010680909983371205,0.9135896529756484,-0.0691361672737677,-56.25502746163738,21.50958431944593,-67.81435692899232
1761286134.6608334,-5.556103442586503,-0.014437377116366794,0.9054720424016408,-0.07566215879481024,-55.37396052821409,19.381912588639338,-67.94511373865855
1761286134.6701348,-6.206108751709067,-0.031705909328645525,0.8995990083015621,-0.07601182490669263,-53.512762654367066,16.859878916817642,-67.72301559071207
1761286134.680158,-6.855122146786417,-0.04941466382793579,0.8961020345638793,-0.07130663681904649,-50.68165898466249,13.976666367386773,-67.22651661529646
1761286134.6901486,-7.500784344937869,-0.06644317293546532,0.8948380860678793,-0.06301221314027078,-46.922886792685375,10.80099623420069,-66.52473621764167
1761286134.7002983,-8.140987535854386,-0.0820031798242224,0.8953965214868159,-0.05269479550270216,-42.311709438422156,7.435413118106189,-65.67483153251746
1761286134.710165,-8.773922305135136,-0.09567863309717232,0.8971586270119083,-0.04180040716096224,-36.956468814581974,4.007846445810662,-64.72096141678139
1761286134.7203243,-9.39809891680918,-0.10737742818368502,0.8993950748120804,-0.031482817589148476,-30.997036083231368,0.6574028151191509,-63.69443719929877
1761286134.7301462,-10.01232134400136,-0.11722057715210107,0.9013807488420583,-0.02249535279258068,-24.601025848784936,-2.483508828109996,-62.614446928514965
1761286134.740145,-10.615602350105046,-0.12540826735163438,0.9025048330066935,-0.015151305280144724,-17.957425568196655,-5.30786657526644,-61.48874858056821
1761286134.7505536,-11.20702054943712,-0.13210205014219226,0.9023575817482361,-0.009349416224604855,-11.26776142437851,-7.750472376411479,-60.313942663599796
1761286134.760157,-11.785532881208812,-0.13735162330438547,0.9007821640076876,-0.004653902064507224,-4.735413828280457,-9.799379030220575,-59.0752838844792
1761286134.7701454,-12.34976696748313,-0.1410794037203445,0.897887482224434,-0.000412615800227614,1.4459422215184672,-11.500257603022641,-57.746379808971916
1761286134.7801569,-12.897826895423112,-0.14312118684042577,0.8940240871182594,0.004106421036633309,7.1036715626623845,-12.952615222016725,-56.28945155800204
1761286134.7901368,-13.427151852745004,-0.14330915981506348,0.8897297521945976,0.009579788070782067,12.096284547964819,-14.297862024004793,-54.65700207821816
1761286134.8007975,-13.934467479552683,-0.14157495414525068,0.8856536143535485,0.016511877476755508,16.321492982703216,-15.700326131925527,-52.795675911643166
1761286134.810151,-14.41586305853318,-0.1380456159802334,0.8824676038824054,0.025150183583689582,19.72154907244085,-17.32329888551817,-50.65276494254955
1761286134.8202302,-14.867014129282053,-0.13310586012672163,0.8807716690224972,0.035442072905538885,22.285341024746636,-19.30292411337038,-48.185243995392696
1761286134.8302176,-15.283551724150986,-0.1274072259456341,0.8809970679429008,0.047036943299635224,24.04693531795729,-21.723111663349204,-45.37051463020411
1761286134.8403413,-15.661558088212828,-0.12181760493232445,0.8833121353504014,0.05933113193233518,25.080582597508492,-24.594612576215187,-42.21736474133081
1761286134.8501837,-15.998146126861794,-0.11731914903927664,0.8875381765180508,0.0715466689288919,25.492590162328415,-27.840986826540924,-38.77518800657153
1761286134.860181,-16.29205847974097,-0.11487466613456063,0.8930880535019549,0.08283045515986016,25.41082938229638,-31.293525080766365,-35.13936763270577
1761286134.8701668,-16.544205682453587,-0.11528987749454901,0.898944185735829,0.09235833043351412,24.97292692259847,-34.69636028027831,-31.450957058858837
1761286134.8801532,-16.75805478593323,-0.11910048107013943,0.9036939793230068,0.09942875800106457,24.3143459785561,-37.722120187777215,-27.889363070548555
1761286134.8901458,-16.9397825376675,-0.12650865776775502,0.9056375503204367,0.10353305606000227,23.557595081392726,-39.997596766775246,-24.657590686339233
1761286134.9001667,-17.098122823765177,-0.13738419599307364,0.9029738958733844,0.10439241548247226,22.80373114181925,-41.138040002268504,-21.96068231120891
1761286134.910147,-17.24386826561443,-0.15133289318995458,0.8940577156609193,0.10195536880849031,22.127166022586334,-40.787762927660744,-19.97920856810615
1761286134.9201634,-17.389030440419422,-0.16782214185524252,0.8777027927029643,0.09635285331480054,21.57452054643511,-38.663750315007476,-18.840901576139622
1761286134.930166,-17.545717470523304,-0.18634263896494743,0.8534936293327293,0.0878133509029981,21.16783842926013,-34.59800050622716,-18.59450446068591
1761286134.9401805,-17.72484203750181,-0.20657663942024782,0.8220581821480984,0.07655018805669749,20.911829950899225,-28.573629550165563,-19.190340283103257
1761286134.9501815,-17.934815229507464,-0.22853742410608818,0.7852519806446551,0.06264649854561073,20.804005522856144,-20.749605944664836,-20.47175960751252
1761286134.9601655,-18.180401256351605,-0.2526425051280765,0.7462075184568002,0.04597579908689162,20.84574071288177,-11.46958716346245,-22.180441390014245
1761286134.97016,-18.461897845428737,-0.2796857223101378,0.7092129179823339,0.026200823471342893,21.051694063304975,-1.2517943437264958,-23.976593953301915
1761286134.9801779,-18.77476552624059,-0.3106818338179868,0.6794008698248271,0.0028840863008608407,21.45476661808691,9.240935893038483,-25.472718194637412
1761286134.9901855,-19.109761825718312,-0.3465723151718386,0.6622515378612144,-0.0242834264545946,22.10413465529344,19.249269778366187,-26.27721020121064
1761286135.0001795,-19.453557346978528,-0.3878049132476578,0.6629385964809364,-0.05517256587589326,23.05501055856914,27.979773991835753,-26.042174241230036
1761286135.0101612,-19.78973958643053,-0.4338361342572575,0.6855736001719307,-0.08891089904943802,24.350789962940468,34.67617586480256,-24.508729690184985
1761286135.020218,-20.100066387876527,-0.4826550687349047,0.7324312760494505,-0.12369982464603387,26.00086149318914,38.69336108422712,-21.54299940682986
1761286135.030178,-20.36582219621023,-0.5304734321258339,0.8032690043141515,-0.15686450229429252,27.95979692568745,39.567848384911066,-17.156917596215425
1761286135.04017,-20.569148553676488,-0.571741409591696,0.8948833016187796,-0.18518980146445832,30.114768586720825,37.07842080003781,-11.50994323235283
1761286135.0503833,-20.694248769842392,-0.599608553384726,1.0010572549642227,-0.205500761986716,32.286962106106984,31.290214873619,-4.890532771051051
1761286135.0602193,-20.72839261658365,-0.606853649295027,1.1130207130763858,-0.21535190578243904,34.249474047369716,22.57506099385576,2.3205418572596894
1761286135.0701663,-20.662667052108546,-0.5871792853229,1.2204546089734967,-0.21364045829869616,35.75975429277863,11.601111730197802,9.69980101640968
1761286135.0817316,-20.49243707848078,-0.5366377364711868,1.3129317341557207,-0.20097629137783365,36.60054607090754,-0.7130989281030363,16.83593146182692
1761286135.0901568,-20.217501524977006,-0.4548595490090171,1.3815358411493912,-0.17971191562485916,36.62062155282415,-13.28050763346356,23.38104859971258
1761286135.10016,-19.841951848012386,-0.34573383435613275,1.4202974407122653,-0.15362289783555927,35.76598527739806,-24.957246106812015,29.08980059327319
1761286135.1101825,-19.373763207126885,-0.2172763127397821,1.4270878398104865,-0.1273040944406828,34.09384040890556,-34.67136575213169,33.83982601389998
1761286135.120228,-18.82416248355405,-0.08062254435696527,1.403746890740317,-0.10540217340948566,31.765311702476055,-41.55013610956409,37.6306875482763
1761286135.1301892,-18.20682847168381,0.05165851401575327,1.3554429962336358,-0.09183886648669065,29.0178730220264,-45.0250434015468,40.56286185717094
1761286135.1402266,-17.536987316008556,0.16752972434330302,1.2894829783652944,-0.08918454359198787,26.12326451427266,-44.8958607127299,42.8025226500177
1761286135.1502113,-16.83047187868588,0.2572671640138454,1.2139151065147435,-0.09831021547684025,23.34006373356926,-41.342385840337286,44.540500518479604
1761286135.1601791,-16.102818228465903,0.31469072901163986,1.1362663428057018,-0.11838021636560138,20.871184266595407,-34.88284087904347,45.95417483315084
1761286135.1702282,-15.368477260162496,0.33766569736603236,1.0626523362853029,-0.1471620658903053,18.835207864706327,-26.288309892256876,47.179186355866555
1761286135.1802704,-14.640218818178424,0.3278930618806299,0.997353612790337,-0.18154994333831975,17.25694372699314,-16.470053669659563,48.29455085098831
1761286135.1902077,-13.928785712785796,0.290151102287952,0.9428166239472482,-0.21815318072892975,16.0778192858329,-6.359644210546279,49.32117483549747
1761286135.200188,-13.242809345478467,0.2312228476620933,0.8999483463462958,-0.2538079415011643,15.18193127279662,3.1992879948726234,50.23099419827883
1761286135.210202,-12.588941103775914,0.1587499340328775,0.8685433619620851,-0.28592089456827385,14.430177108158508,11.533263495579698,50.962593419205845
1761286135.2201672,-11.97210769292488,0.08021275022822394,0.8477071741022706,-0.31262140460131976,13.693756442711999,18.186897283979228,51.43923601908266
1761286135.2302213,-11.395778890300788,0.0021710025561434455,0.8361942535173299,-0.33275616993515866,12.879598612403367,22.935007717846286,51.58623605155675
1761286135.2401636,-10.862145015789002,-0.07017536947919494,0.8326341502282373,-0.34579212542530846,11.94330888862928,25.76318549921246,51.345803681626585
1761286135.2501824,-10.372134992921575,-0.1331151401634408,0.835655877475178,-0.35169591290364255,10.88900365199181,26.82532071153344,50.68838438847916
1761286135.260204,-9.925258198213578,-0.18431098308385155,0.8439379469466429,-0.35083543133010164,9.758800060341615,26.38872490651662,49.61996716975892
1761286135.270319,-9.5193144928053,-0.22254099688215281,0.8562153672511644,-0.3439139791109,8.616784660324258,24.77754865688332,48.18503739053994
1761286135.2801652,-9.15007239256605,-0.24740255950369494,0.8712715936918004,-0.33191897245015567,7.532539757764665,22.323478344323103,46.46501789158765
1761286135.290187,-8.811049284567934,-0.2590642318026462,0.8879358778589314,-0.3160586231970798,6.568004723309152,19.32974275211404,44.57230292709605
1761286135.3005722,-8.493527484332219,-0.2581136605459578,0.9050962726225307,-0.2976714047391335,5.769405120637609,16.050959574300457,42.640355967631415
1761286135.3102114,-8.186900927351903,-0.24550546699423137,0.9217280444589534,-0.27811333337078403,5.164098504632525,12.687991966626711,40.81076828397037
1761286135.3201668,-7.879375723447012,-0.2225753052024924,0.9369298771738803,-0.25864351819176123,4.761029818789048,9.39434688208435,39.21860154391354
1761286135.330165,-7.558962489381065,-0.19106665783630727,0.9499580578321548,-0.24033209766799077,4.553164027686751,6.2891459304391235,37.97768744423865
1761286135.3401856,-7.214625025177796,-0.1531208866798961,0.9602510205695693,-0.22400796984056384,4.520536782711095,3.4715009106530297,37.16772739255127
1761286135.3501809,-6.837409723075586,-0.11120278786615011,0.9674411986646047,-0.2102519377573566,4.633102284802912,1.0320706484973017,36.82493776497401
1761286135.3603127,-6.421381569145846,-0.06796096860943494,0.971356043913902,-0.19942880219051873,4.853104651233553,-0.9407688474880217,36.937598678478366
1761286135.3701663,-5.964231213351277,-0.026043929283321516,0.9720129300221674,-0.19174259808071775,5.137120837035483,-2.360881068370912,37.44723507139448
1761286135.3801868,-5.467480047331306,0.012096355269038392,0.969611781280711,-0.18729450027335637,5.438160165711133,-3.1496607028435353,38.25538599341062
1761286135.390198,-4.936279294581953,0.044381595419914086,0.9645252463927398,-0.18612409047748954,5.708228309531917,-3.24489764946762,39.235123409612385
1761286135.4002028,-4.3788584251109075,0.06924188075492009,0.957281734570162,-0.18822169472000472,5.901581417059996,-2.6110544281349255,40.24579519264707
1761286135.4102328,-3.80571666426395,0.08569770260001765,0.9485347498437409,-0.19351034169065712,5.978583226415714,-1.2488255911939243,41.14901524493581
1761286135.4203475,-3.2286659785241025,0.09339123799039117,0.9390142763166236,-0.20180667780463152,5.9097560796190125,0.7978679782603424,41.823799824022984
1761286135.4302034,-2.6598297030471043,0.0925752114765163,0.929461407217803,-0.21277716725996962,5.679399101881489,3.4388721782090674,42.178966310422865
1761286135.4401844,-2.1106874188301155,0.08406649344808739,0.9205532056997766,-0.22590742396935015,5.288095439892264,6.539714027019405,42.16139549722982
1761286135.4501843,-1.5912425294830144,0.06916539465198422,0.9128286923712391,-0.2404989896389477,4.753546352026363,9.928850578693186,41.75939104672873
1761286135.4601705,-1.1093780686738441,0.04953575317159335,0.9066282001647584,-0.2557009506443694,4.1094070192837515,13.410080323584186,41.00102738523119
1761286135.4702322,-0.6704560795515482,0.02704107653573655,0.9020572388570235,-0.2705758050912794,3.4020908729968666,16.779236320025333,39.94796841696966
1761286135.4801912,-0.2771995206854119,0.003541304468554528,0.8989826284578121,-0.2841921814235548,2.685794402979059,19.843466524329028,38.68572362783733
1761286135.4901628,0.07013307939492928,-0.01932905454645996,0.8970635500317973,-0.2957324596092628,2.0162307192631865,22.440652560456087,37.31168066989957
1761286135.5004277,0.37331103286105516,-0.04036496192481696,0.8958144963671312,-0.30460087570297245,1.4437336391129065,24.456080222751044,35.92250492832445
1761286135.5106943,0.6355094183847908,-0.05893356510338951,0.8946921411055314,-0.3105169566348872,1.00651370298283,25.833563906621954,34.602587484319926
1761286135.520174,0.8606157801072138,-0.07501818023808605,0.8931949094200303,-0.313580406763968,0.7249211563105116,26.578914321477107,33.41509379977876
1761286135.5301776,1.0525973772941286,-0.08914467103566605,0.8909631437518664,-0.3142971584261495,0.5975867602182364,26.754832686701995,32.396781052131146
1761286135.5401938,1.215049921275646,-0.10219722435666288,0.8878688767804824,-0.31356156756112785,0.600238116814659,26.46776605298383,31.55714701318626
1761286135.5502584,1.3510091035815275,-0.11515611835057311,0.8840860351860292,-0.3125948776701765,0.6877828218301721,25.848634869147897,30.881748485252395
1761286135.5601704,1.4630459722032265,-0.12880824951482076,0.8801331339550235,-0.31284314392384516,0.7998705840643191,25.030367730403565,30.338808304550124
1761286135.570185,1.5536006357378391,-0.14348792721905165,0.8768808749820923,-0.3158387761169071,0.8695944528251671,24.125706587738076,29.887642521894136
1761286135.580205,1.6254512244281505,-0.15890060105833875,0.8755171334276082,-0.3230313794129851,0.8343306775427098,23.208743239694254,29.48709867465643
1761286135.590182,1.6821786989634067,-0.17406801027882057,0.8774627764653175,-0.3355982503128031,0.6470728843725545,22.303139930688317,29.102184248292442
1761286135.6001818,1.7284805082194894,-0.18741251293687536,0.8842352571775297,-0.3542519211537093,0.2861597347676854,21.379048747646973,28.707410429378857
1761286135.6101742,1.7702102806012252,-0.19697338978283133,0.8972643209965522,-0.37906796319210817,-0.23878790095439142,20.35949235550429,28.286051504103106
1761286135.620349,1.8140751408585796,-0.20072097641487177,0.9176752398383339,-0.4093578556099773,-0.8864751269145762,19.135543434227383,27.825434222391102
1761286135.6302593,1.8669994221218198,-0.19691021280948298,0.9460678160819239,-0.443608716029188,-1.5898879452141452,17.588219639131733,27.309360798090943
1761286135.6402106,1.9352473794614358,-0.1844029359522689,0.9823305074888214,-0.4795057573971024,-2.268073699564087,15.613812328458758,26.709603830103074
1761286135.6501796,2.023463062105289,-0.16289671770471625,1.0255324472369343,-0.5140453561408049,-2.841834539024622,13.148587857509291,25.978838120866794
1761286135.6604397,2.133808910326721,-0.13302458250527568,1.0739256093524947,-0.5437364009041524,-3.2503477514822428,10.18857849777442,25.04720495304475
1761286135.6701727,2.265359570662526,-0.09632098910131391,1.1250656269738908,-0.5648792841772032,-3.4653517464082864,6.80066244518345,23.823927260023495
1761286135.6801713,2.413849336419599,-0.0550737337878106,1.1760326822400007,-0.5739107414491185,-3.5000768975500534,3.1224596033441347,22.204220070893722
1761286135.6902542,2.571803944258033,-0.012094197488376224,1.2237143025386201,-0.5678011688860879,-3.4114275293843486,-0.6493757341167617,20.08051088484289
1761286135.7004032,2.7290275526965195,0.029562742030047114,1.2651047649061566,-0.5444741524636776,-3.2955414049610767,-4.280634012840309,17.356020477601213
1761286135.7103417,2.8733722677381333,0.06690816035432659,1.2975809266411402,-0.5031885002684312,-3.278159137849227,-7.527185228934435,13.958266577196174
1761286135.7202322,2.991692506576403,0.09734238069348601,1.319127314729324,-0.444803334075018,-3.501847245866143,-10.164216284328731,9.850115421003277
1761286135.73037,3.070876879572106,0.11896739052928927,1.3284965768920554,-0.3718534633714326,-4.112029728900079,-12.012456169972385,5.036566553276303
1761286135.7401721,3.098851566749537,0.13084570110348034,1.32529958060934,-0.2883937718785026,-5.243264141274679,-12.957453526138712,-0.4336390200142423
1761286135.7502482,3.0654580933898625,0.1331507387265968,1.3100231953314518,-0.19961633224839237,-7.006597561394148,-12.959258955930663,-6.471473338044311
1761286135.7602322,2.9631237001829174,0.127158683104567,1.283976146198119,-0.1112902081362553,-9.478430319779134,-12.05162027551633,-12.955125701203743
1761286135.770189,2.7872644680882943,0.11505715817443209,1.249166200669784,-0.029110704647037328,-12.691225745569929,-10.331752028516032,-19.73995160909474
1761286135.7801914,2.5363909467076833,0.099587288043075,1.2081163263996215,0.041936017815243,-16.626596002536026,-7.94346287883041,-26.66906143761251
1761286135.790639,2.211922870153223,0.08357964234390225,1.1636333578860196,0.09809045811776247,-21.211607845436248,-5.057473185381019,-33.58295236043253
1761286135.800877,1.817759234555678,0.06947571707556757,1.1185493597153957,0.13714311226574022,-26.319354088127195,-1.8528582139314862,-40.32715780496651
1761286135.8101985,1.3596834260998496,0.05893286498795488,1.0754625189063056,0.15852950666287147,-31.77467792882291,1.4972662979066196,-46.7576585490935
1761286135.8203304,0.8447004851232308,0.052590109701258644,1.0365092852363338,0.16320841340869635,-37.36528832987765,4.834125404707984,-52.744488004795265
1761286135.83022,0.28040103450005394,0.05003418316214031,1.0031994819136445,0.15337168694151881,-42.85749805913007,8.015647319078953,-58.17432454588783
1761286135.8402617,-0.32557229550280875,0.04996293658290362,0.9763389123354556,0.13205524743760855,-48.01479587950626,10.914160175435578,-62.952832682772296
1761286135.8502035,-0.9659077507403506,0.05050677514770886,0.9560493358286088,0.10272403290964634,-52.61676684899904,13.411819850885516,-67.0071962468034
1761286135.8601737,-1.6338393510579923,0.049642311129119106,0.9418758088091914,0.0688921020622998,-56.47569247841566,15.396644216246518,-70.28886026006573
1761286135.8701832,-2.323206803872335,0.045618401798488944,0.9329524085078171,0.03381859432236881,-59.44853194470477,16.76182656664049,-72.77614114509811
1761286135.8802235,-3.028398804251935,0.03731518834124313,0.9281874079651007,0.0002971464708434449,-61.442789696992065,17.410092701880462,-74.4761683840917
1761286135.890215,-3.7442338725581505,0.024471574334679738,0.9264317282836051,-0.029464471212901588,-62.41581464911872,17.2633902041568,-75.42557398256439
1761286135.9001956,-4.465836528174921,0.007742304758186957,0.9266062206910964,-0.05389181886377348,-62.36818332478748,16.276503175779865,-75.68941095214896
1761286135.910204,-5.188558711203423,-0.011422957745628232,0.9277778243190168,-0.07203964211509656,-61.332846442732325,14.451747515472293,-75.35794092050938
1761286135.9201853,-5.9079794108950585,-0.031054426711040348,0.9291882741795315,-0.08355209353791977,-59.36247634147865,11.85113226720885,-74.54118063702171
1761286135.9301844,-6.619992599864613,-0.049038175279441105,0.9302495442984772,-0.08859481699184452,-56.51775448343633,8.602462359913062,-73.36142815645864
1761286135.9401808,-7.320968498110255,-0.06351889167358764,0.930524828774843,-0.08776178040573446,-52.85907954008003,4.896746576151146,-71.9443489191909
1761286135.950434,-8.00795025201871,-0.07324584085072834,0.9297114473613102,-0.08196073708058367,-48.443368238281515,0.9757293278051913,-70.40947930251279
1761286135.9602404,-8.678832525267618,-0.07778899715234931,0.9276347451508546,-0.07228443726259237,-43.32641562325857,-2.889913006493843,-68.86109704239426
1761286135.9702146,-9.332465624207604,-0.07758453802662446,0.9242534629307441,-0.05987762036234442,-37.569961735406004,-6.429488013353291,-67.38030658125537
1761286135.9801915,-9.968641264062576,-0.07381360731261051,0.9196702490839409,-0.045812560567557156,-31.25150188693979,-9.40472629091935,-66.0189900713815
1761286135.9901938,-10.587941017189445,-0.06815827933852349,0.9141377495591057,-0.03098796111030957,-24.474233369118473,-11.641307396996448,-64.79609740939202
1761286136.0003753,-11.191458311661817,-0.062499873969042816,0.9080512424666155,-0.01606486929313863,-17.374470583903246,-13.054835075361407,-63.696633380331875
1761286136.0101798,-11.780431507060273,-0.058623937621793694,0.9019218722380636,-0.001447613978529727,-10.124357225911027,-13.667118913590201,-62.67360798579196
1761286136.0202143,-12.355843879198575,-0.057979597693484666,0.8963285839823003,0.012691001457621321,-2.928619366409664,-13.609735848168109,-61.65309188601867
1761286136.0303133,-12.918054351025358,-0.06151816925253191,0.8918507816812561,0.026349550485152192,3.9847975785390863,-13.113387180660677,-60.5423330258812
1761286136.0401905,-13.466520576272135,-0.0696149162083608,0.8889871016205189,0.039617301117586046,10.379355150589136,-12.483312220934462,-59.24063127724308
1761286136.0502522,-13.999664808760814,-0.08206379424695767,0.8880682974061392,0.052588215571958065,16.028216210087237,-12.062775782025977,-57.652331892130285
1761286136.0602305,-14.514914966794402,-0.09812925846088175,0.8891736130297094,0.0652832449746686,20.73415759336175,-12.188239882745613,-55.7009011786051
1761286136.070218,-15.00893056879811,-0.11663969069402899,0.8920599587681257,0.07759285657980398,24.348829537295586,-13.141098065431729,-53.34263831413683
1761286136.080641,-15.477997707943347,-0.13611023092739216,0.8961128092159556,0.08924965764770554,26.789069138722216,-15.101652009611506,-50.57824288999711
1761286136.0902085,-15.918551418353095,-0.15488649028457976,0.9003284053458175,0.09983642342378382,28.048157245244216,-18.111236428168613,-47.460305729838176
1761286136.1002028,-16.327761113399188,-0.17130386481668874,0.9033381140867779,0.10882763156072509,28.200299573847367,-22.04799701371188,-44.09490998124315
1761286136.1101778,-16.704098761847856,-0.1838591373186525,0.9034860448340738,0.11565533078714882,27.397220486116638,-26.62079868556587,-40.63596413662042
1761286136.1201851,-17.047802396223382,-0.1913903392070473,0.8989690020946404,0.1197854111750752,25.85659209988357,-31.384103942609567,-37.271641971952874
1761286136.1301947,-17.36115059373966,-0.19325640136867228,0.8880421523326969,0.12078878636713522,23.84304930915694,-35.774447351918,-34.20335030952351
1761286136.1402235,-17.64847790920602,-0.18950077950302807,0.8692829923733636,0.11839300739892963,21.643650701212653,-39.16647035358585,-31.618908009080794
1761286136.1502252,-17.91588796786192,-0.18097543873884187,0.8418912820120359,0.11250270508986128,19.540665518090908,-40.94364428219062,-29.662947226772715
1761286136.160194,-18.170659433372226,-0.1693959770022239,0.8059875116897698,0.10318211041799516,17.785273827901154,-40.57619291939851,-28.40870500481979
1761286136.1702085,-18.420386614001533,-0.15729791715981972,0.7628617935923221,0.09060070516469154,16.57588973818162,-37.69680812012016,-27.836042117746313
1761286136.1801996,-18.67194431039647,-0.1478711906250677,0.7151216490947339,0.07495448180413786,16.044157513265848,-32.16401419939976,-27.82038199725107
1761286136.1902359,-18.930407310610494,-0.1446660349442212,0.6666917997275422,0.05638887232528296,16.250271252465765,-24.103786706630736,-28.136129904298766
1761286136.2002032,-19.19808005748477,-0.15118586351975186,0.6226311254338401,0.03496010910425854,17.187435533670715,-13.922284371954383,-28.47608218260506
1761286136.210194,-19.473793080660897,-0.1704029162162847,0.5887501728290977,0.010671273793459755,18.79345856206794,-2.286039333335248,-28.48566117283768
1761286136.2202237,-19.75259345515622,-0.20424291068291123,0.5710362540241442,-0.016399916815165352,20.966105712981516,9.929851373182757,-27.80796986518011
1761286136.2302413,-20.025896739200153,-0.25308660442707887,0.5749224312220931,-0.045901673308804763,23.578316565078218,21.7207749079632,-26.133206065401712
1761286136.2404947,-20.282088118501935,-0.3153404494464817,0.6044700585963939,-0.07699931510825597,26.489917404484295,32.05062052759234,-23.24447449529885
1761286136.250221,-20.507481554331076,-0.3871461370892349,0.6615670034880182,-0.10824633481720121,29.55402849161304,39.95825409290104,-19.051956766549935
1761286136.260188,-20.687490251164995,-0.4623255767686476,0.7452695414296954,-0.13761853107977723,32.618621340105726,44.66113627186462,-13.608964752364264
1761286136.2702324,-20.80784283379798,-0.5326714446485156,0.8514306714427781,-0.16274979096108863,35.5258607418322,45.64504603449599,-7.106433923133777
1761286136.2802098,-20.855695591151594,-0.5886673404943064,0.9727522444113148,-0.18133945748311428,38.11301205415018,42.72975875299558,0.15365852627091584
1761286136.2902553,-20.82053060522063,-0.6206443597381026,1.0993569426076921,-0.1916395894547254,40.218217188892154,36.10206317879942,7.801419274725884
1761286136.3002312,-20.694779719124757,-0.6202647457098235,1.2198878097937056,-0.19290402794683822,41.69253450024105,26.310119030653905,15.450864853534632
1761286136.3102138,-20.474164194984407,-0.5820983424025087,1.3230174214219832,-0.18569453822780843,42.41710965793659,14.217079495739238,22.75087165778819
1761286136.3202574,-20.157780061637396,-0.5049615417115809,1.3991175004053849,-0.17197291243116994,42.322084812564576,0.9168243633807565,29.42606914234451
1761286136.3302405,-19.747982579487545,-0.39266096007417417,1.4417459364096477,-0.1549402496312364,41.4024540115361,-12.380093874596998,35.30092036056496
1761286136.3403418,-19.2501283181538,-0.2538624154063755,1.4485992910294514,-0.13861473762155888,39.72587498808033,-24.477300457711795,40.304005183651284
1761286136.350224,-18.672224955871098,-0.10100550106927011,1.4216903630618731,-0.12718533475160626,37.42868693475387,-34.32340329465973,44.453765775206115
1761286136.3602078,-18.02452642289206,0.051538435038343336,1.3667246339937154,-0.12424905240960989,34.69902559344914,-41.12407108636774,47.83080357730477
1761286136.3701923,-17.319102427470632,0.18962781546678467,1.2918775317842732,-0.13210732793995342,31.74936098598744,-44.418281331718525,50.54430438225986
1761286136.3802478,-16.569407280626045,0.3013197439388983,1.2063115125292236,-0.1513141490949628,28.783918523052144,-44.1075130784903,52.700583907305344
1761286136.390206,-15.789867353321368,0.37825667569124044,1.1187755500877012,-0.1806074169159765,25.96820893217861,-40.43585973551005,54.38002160133133
1761286136.4002023,-14.995495335116606,0.4163113360668578,1.036534713503581,-0.2172351569205162,23.407663443891096,-33.928700272453895,55.62551841678318
1761286136.4102032,-14.20152574461979,0.41553819678185827,0.964748830059941,-0.25756510472654937,21.14013842588741,-25.30453168734442,56.44223904982578
1761286136.4202042,-13.4230561424855,0.37959594154167003,0.9063045458311919,-0.2977934349142319,19.143412498139988,-15.377082710183336,56.805847713350595
1761286136.4302459,-12.674674891208236,0.31483923756927495,0.8620234955467289,-0.33456651328974196,17.354805931847864,-4.963117888514221,56.67532187581623
1761286136.4402397,-11.970057354678996,0.2292689616092504,0.8311230792844667,-0.3653857375919692,15.696956276308427,5.193024456551132,56.00671944816738
1761286136.4502873,-11.321516441999204,0.1315031570592527,0.8117927297463289,-0.3887517336520981,14.102616228451792,14.472289299381698,54.76546030274679
1761286136.4602094,-10.739500994261766,0.02989281794289345,0.8017621556944382,-0.40408787579807914,12.532438920121983,22.409953533359396,52.93605547058675
1761286136.4701939,-10.23204827537184,-0.06814148681011592,0.7987706051261616,-0.4115340446994394,10.982513821468759,28.70322330595536,50.52921969438931
1761286136.4802272,-9.804216333343367,-0.15652897072470665,0.8008877519763036,-0.41170661830389826,9.481725931933344,33.202031704078486,47.5867031415727
1761286136.490207,-9.457548315080523,-0.23074799001863133,0.8066768594341679,-0.4054918800557546,8.081629166736091,35.88872948248367,44.184063867185316
1761286136.5002527,-9.189648698089044,-0.2878581550564858,0.815220477065553,-0.39390142664167876,6.8427450153721745,36.8522501367196,40.43125214351531
1761286136.5102139,-8.993969077364232,-0.3264216399860556,0.826044262645279,-0.3779880691888236,5.821002039187234,36.26129726201026,36.470591694475175
1761286136.5201974,-8.859895623237659,-0.34635502986645206,0.838977953999753,-0.3588054613468699,5.056942410438497,34.33953131615203,32.471714342499524
1761286136.5302043,-8.77319562937641,-0.3487332223897771,0.8539894482385082,-0.33739173327330507,4.5690074162637355,31.344101980259165,28.623264643352286
1761286136.5402682,-8.716823157239856,-0.3355547429420346,0.8710225708490673,-0.31476099687805426,4.351126830205929,27.547625527428742,25.121647807307227
1761286136.5503128,-8.672020803143624,-0.30947831731070824,0.8898630051327345,-0.2918922601429466,4.374118365170053,23.22309707695933,22.157614480568093
1761286136.5604212,-8.619604621605449,-0.2735493964179432,0.9100503850960285,-0.2697111859223239,4.590009178630955,18.631217856821536,19.901923045108514
1761286136.5702074,-8.54129314197249,-0.23094280720947227,0.9308479821306486,-0.24906541827292805,4.93823475556843,14.009949574397185,18.491572079454517
1761286136.5802703,-8.420941805928019,-0.1847474652527805,0.9512741880547504,-0.2306976729912089,5.352679480700244,9.566478691137354,18.01809185201328
1761286136.5902443,-8.245569128669546,-0.1378118394638439,0.9701908260902101,-0.21522150932526393,5.76863895972769,5.471952283191566,18.51913781608313
1761286136.600234,-8.006103612185377,-0.0926574953559599,0.9864322780560321,-0.2031031272260962,6.128952225021926,1.8592243348764765,19.974199375235372
1761286136.6103444,-7.697827143852536,-0.051454116409671076,0.9989494797151593,-0.19465013446307872,6.388733761925475,-1.1765262324206769,22.304719009327936
1761286136.6202464,-7.320526000189118,-0.016035633445150084,1.0069384608234984,-0.19000634747310075,6.518324152246708,-3.5749003534168216,25.37842959254538
1761286136.6302178,-6.878377573472406,0.012071397410533272,1.0099270566896272,-0.18915114226357801,6.504288838052279,-5.3060424961002655,29.017356855870908
1761286136.6402104,-6.379602944897167,0.03163560893025099,1.0078048877441763,-0.19190276110375254,6.348531533162688,-6.366116375651541,33.00874003596195
1761286136.6502233,-5.835910085496262,0.041744809695784646,1.0007969202928273,-0.19792635608381207,6.065829040537256,-6.773425929651291,37.118078295400785
1761286136.6602192,-5.261746464894801,0.04187296915842117,0.9893950013798144,-0.20674790094891843,5.680294825072809,-6.5658015216359535,41.103543123586945
1761286136.6702042,-4.673377990691016,0.03198234246659479,0.974270362275023,-0.21777392039972418,5.221393462975763,-5.7994291424132705,44.73102537052757
1761286136.6802208,-4.087816058106449,0.0126398025331717,0.9561909033690073,-0.23031548463184548,4.720126240402988,-4.548809153000621,47.789058707112005
1761286136.6907942,-3.521626287125308,-0.01488195314441423,0.9359610486225531,-0.2436147353738788,4.205892607732319,-2.9070854528171544,50.102768791023266
1761286136.700209,-2.989670664357262,-0.048550115930341975,0.914392551675686,-0.2568738556805544,3.7043403833664335,-0.9856821909882744,51.54587636095779
1761286136.710525,-2.5038587107959747,-0.08559323806380437,0.8923052713041761,-0.2692890872961489,3.2362998588083625,1.0878919975844081,52.04970981541465
1761286136.72022,-2.0720108572745595,-0.12261928894205389,0.8705495668769371,-0.28009469982164487,2.8176936507143346,3.1750069841643374,51.608229517397255
1761286136.730217,-1.696963167904175,-0.15583845155748516,0.8500375828042116,-0.2886221323675175,2.4601505435044886,5.134088953284143,50.27827304336231
1761286136.7406473,-1.3760585774938314,-0.18138342395665255,0.8317695348168914,-0.2943764397335752,2.1719456506123493,6.8317616797783245,48.17461587468799
1761286136.7511842,-1.1011652930689477,-0.1957038457549974,0.8168424296499948,-0.29712504666503803,1.958854967896673,8.155915990572371,45.45997859643927
1761286136.7609222,-0.8593264078419947,-0.19599442713221035,0.806431425052658,-0.29698396802827726,1.8245548466815336,9.028964300423716,42.33070906912101
1761286136.770264,-0.6340678177772492,-0.18059881335162553,0.8017378410197553,-0.2944779840517186,1.7703133014754966,9.419069256536464,38.999418080406535
1761286136.7802439,-0.40727724040538615,-0.14931843065555392,0.8039025998433074,-0.2905486099774156,1.7939042981110367,9.34703850093742,35.676278796349514
1761286136.7902226,-0.16143669877149885,-0.10355638794560919,0.8138894494507062,-0.28648977439099593,1.887909908130395,8.886938780845302,32.55096888708814
1761286136.8002176,0.11811835377102577,-0.04624716974182012,0.8323485164568393,-0.2838048950925699,2.037815753088156,8.159337975769384,29.777268988919257
1761286136.8104532,0.4412870313702823,0.018438036187581597,0.8594771586875097,-0.28399673911355344,2.2204912149523985,7.317364899878424,27.462034581258905
1761286136.82022,0.8119700787236972,0.08557278843389084,0.894900497413356,-0.2883184315620264,2.403715860843497,6.5272512509942295,25.659596174050126
1761286136.830212,1.2277202029794583,0.15006471029028642,0.9375961217773711,-0.2975261675091263,2.547320631099576,5.946304190403691,24.37174013440717
1761286136.840225,1.6802999332098436,0.20725203015062066,0.9858842115297346,-0.31167903342379,2.6062357722183083,5.701945995382063,23.552533058648084
1761286136.850318,2.156989734537484,0.25340898955270463,1.0374956430720153,-0.33002793003377345,2.535298433986578,5.875318778751825,23.11662173129623
1761286136.860231,2.642354508901857,0.2860843586444317,1.0897190024464567,-0.35102375381090556,2.295155216234249,6.492048677753915,22.94940346926284
1761286136.870235,3.120120273699353,0.30423362969763873,1.1396164429428688,-0.37245545931609014,1.8581470378890017,7.521376086488801,22.917619304312637
1761286136.8802857,3.57484010932361,0.3081476443428397,1.1842894197809213,-0.39170472704128917,1.2128500188300957,8.883331550798388,22.879357465466157
1761286136.8902392,3.993120756658136,0.2992183352853983,1.2211660159892206,-0.40608151705533935,0.3660658497294681,10.462294329164006,22.692976307776163
1761286136.9003272,4.364307071447789,0.2796066202824569,1.2482703869497607,-0.4131887688430153,-0.6585048560219326,12.124375707465106,22.22487739090233
1761286136.9102411,4.680647020767311,0.25188390765237484,1.2644277423370054,-0.4112573092392208,-1.8250168417537453,13.735761462769677,21.356269035136602
1761286136.9202716,4.937055421807255,0.21870810131894763,1.2693641531562516,-0.39939491047895836,-3.093044273509031,15.179397363275763,19.989045936607425
1761286136.9302895,5.130642229146795,0.1825726726552904,1.2636801218271976,-0.3777069006141648,-4.426679586248671,16.368035007107583,18.05073600209944
1761286136.9402924,5.26016958318272,0.14564213071675075,1.248702538373007,-0.34726818628324807,-5.803439042846478,17.252437015211633,15.498236665737867
1761286136.950398,5.325563525375527,0.10966815399725038,1.2262443356126893,-0.3099539700775369,-7.221117638618141,17.82427524180568,12.319895735476253
1761286136.9602604,5.327549883968006,0.07597152299373404,1.1983210387494558,-0.2681629409090638,-8.701004329728233,18.113859436295776,8.535487320345236
1761286136.970273,5.267427823273947,0.04547283544343896,1.1668830437870952,-0.2244857796599441,-10.286506399183068,18.183319277124127,4.193840771883692
1761286136.9803445,5.146953649970664,0.01875524396883472,1.1336160770574204,-0.18137878330003826,-12.037095085045767,18.11626504189335,-0.6317378707048362
1761286136.9902408,4.968289326254648,-0.0038567136728825673,1.0998410765380568,-0.14089646104332376,-14.01836248571925,18.00527152368706,-5.849671576263552
1761286137.0002532,4.73397261474983,-0.022217409857972208,1.0665176090189008,-0.1045209314008843,-16.289672432712322,17.938724716491237,-11.357014780074449
1761286137.0102704,4.4468792324328215,-0.036294618249495286,1.034331028389128,-0.07310461925391333,-18.891281255367893,17.988594628561366,-17.04601650317314
1761286137.0202243,4.110162364329474,-0.04613164019367669,1.0038272144983815,-0.046920938867314216,-21.832888638603627,18.200541442616256,-22.80953441273155
1761286137.0302408,3.727167594134729,-0.051844387925931004,0.9755515358680956,-0.02579889540500643,-25.08539140766615,18.587459297802823,-28.544966798079894
1761286137.0402305,3.301331607442944,-0.05365103390231524,0.950152161529832,-0.009304197992781238,-28.577183432461453,19.127154437809526,-34.15686058592376
1761286137.050266,2.8360796060555993,-0.051923186231332054,0.9284213174618153,0.0030763964752885528,-32.19571672684268,19.764371170130662,-39.55864160536546
1761286137.0602353,2.334736460524898,-0.04724301170219646,0.9112663568779668,0.011787766529247809,-35.794314188147645,20.416842475526426,-44.67393930602398
1761286137.0702896,1.8004602751666205,-0.0404488778191995,0.8996188395059943,0.017125027566702294,-39.20353273262391,20.98448492644806,-49.43781482761908
1761286137.080239,1.2361993070332151,-0.032650339028147346,0.8943008013581334,0.01923011890156224,-42.24580432466764,21.360351277996696,-53.79795440028218
1761286137.0902922,0.6446699823282189,-0.025192899156776,0.8958736265041718,0.018160017395659863,-44.75167353085071,21.441639375781353,-57.71566477393713
1761286137.1002638,0.028356100686014196,-0.019558974332839006,0.9044976358712644,0.014003370140498995,-46.575737472098965,21.139099659008647,-61.166400363003405
1761286137.1102424,-0.6104670545464158,-0.01720677004950936,0.9198293377336334,0.00700970061894049,-47.610404990967965,20.38364373057063,-64.13960010433092
1761286137.1202447,-1.269680063673501,-0.01936928338580413,0.940977312305771,-0.002309655713297547,-47.79583880605648,19.129696201509816,-66.63777590050746
1761286137.1302383,-1.9472400216102927,-0.026852229851896656,0.9665273519027776,-0.013143598044075477,-47.12491513149403,17.355599993150797,-68.67499706172866
1761286137.1403701,-2.6410848836565033,-0.03987444637868206,0.9946350029242448,-0.02442348618328111,-45.64266414208846,15.061979648659289,-70.27506893968396
1761286137.1502697,-3.3490390953883686,-0.0579852320306087,1.0231723410670892,-0.034938995778410226,-43.4403345493583,12.26930977495835,-71.46973950859729
1761286137.16023,-4.068740410450788,-0.08007495415380658,1.0499087019911268,-0.04349989459670011,-40.64487396861798,9.016012070921763,-72.29717367537441
1761286137.1703796,-4.797604365493481,-0.10447633446707778,1.0727034560479707,-0.04910521158334656,-37.40519645618098,5.358171628371022,-72.80075440529161
1761286137.1804574,-5.532835193926855,-0.1291403899566645,1.0896913244350503,-0.051083085209408234,-33.87707320019415,1.3713508312055458,-73.02806608877466
1761286137.1904447,-6.27148270846903,-0.1518644382545914,1.0994439472504318,-0.04917537287050324,-30.20873183650166,-2.8459886274923547,-73.02975807295321
1761286137.200239,-7.010536718942048,-0.17054743415417914,1.1010930395304919,-0.043554915374686684,-26.52915788852958,-7.1690254751528695,-72.85793772639573
1761286137.2102573,-7.747045566239345,-0.1834461632057095,1.0944013038181748,-0.034776259732033396,-22.940597789937097,-11.445413373447094,-72.56383369080392
1761286137.2202206,-8.478242888966548,-0.18940213272991197,1.0797704844088079,-0.023672014007365048,-19.515947293342293,-15.498781939992103,-72.19467499767194
1761286137.2302742,-9.201665196361622,-0.18800583573982863,1.0581834592144963,-0.011216762792600924,-16.300765022592625,-19.138446276938406,-71.78996950519318
1761286137.2402651,-9.915241773732902,-0.1796684509929601,1.0310874141951138,0.0016138748077882484,-13.318802111834017,-22.175373900039855,-71.37754725189818
1761286137.2502408,-10.617339564956517,-0.165584842645251,1.0002342591066977,0.01396311887637832,-10.579388029320116,-24.44274995296767,-70.96982719018595
1761286137.2602382,-11.306751113147914,-0.14759302988681322,0.967499777793572,0.025174250604636995,-8.08488771876202,-25.818072133594633,-70.56079952602705
1761286137.2702267,-11.982623552915063,-0.12795547075444588,0.9347036374436087,0.03482615746055287,-5.836736568363071,-26.242995041829758,-70.12422824632453
1761286137.2802393,-12.644338387005181,-0.10909839489416952,0.9034485674587661,0.04272551547531683,-3.8391238093177966,-25.737272963820555,-69.61356188488757
1761286137.2902646,-13.291361437677077,-0.09334521953119605,0.8749906467582264,0.04886541686348223,-2.1000248044783985,-24.40400344432635,-68.9639494259622
1761286137.3004985,-13.923087009449276,-0.08267308660014486,0.85014730890565,0.0533651796411037,-0.6298019452580887,-22.42469523304902,-68.0965575842536
1761286137.3103504,-14.538699252484728,-0.07851336329017165,0.8292476795686003,0.05640681468893628,0.5620700081157844,-20.04417829871667,-66.92508831938596
1761286137.3202522,-15.137068496936582,-0.08161078823021095,0.8121294867473803,0.05818022771854953,1.4714278570533406,-17.546756097980293,-65.36405451724342
1761286137.3303025,-15.716693372274426,-0.09195198536951008,0.7981845849089936,0.0588441844097326,2.104225829096427,-15.226069273472364,-63.3380498885559
1761286137.3402393,-16.275692480294722,-0.1087706016023677,0.7864501514191905,0.05850617703638698,2.4810110621358197,-13.351840756546508,-60.79100176758097
1761286137.3503983,-16.811842840964957,-0.1306319311392781,0.7757369259749968,0.05722269642685794,2.640461826917321,-12.13706602240049,-57.694270319072785
1761286137.3602388,-17.32265684287892,-0.15559433127293143,0.764782177878679,0.05502065784989885,2.6415002862842063,-11.709367013009258,-54.05248384218558
1761286137.3702335,-17.805485767873446,-0.1814378868140903,0.7524150767365099,0.05193816970299897,2.5636170908947054,-12.090134486394692,-49.90616985818444
1761286137.380231,-18.25763636843909,-0.20594253320467346,0.7377255474614887,0.04807742941621462,2.5051708739341083,-13.184657651552255,-45.330523791455015
1761286137.3902266,-18.676487269800507,-0.2271894469098297,0.7202313565761946,0.04365628575969688,2.5795202998628404,-14.785593678416355,-40.43003433298201
1761286137.400464,-19.059594179785996,-0.24385295415174674,0.7000374269179213,0.0390409358740714,2.908901444115618,-16.59083563590676,-35.329166433246144
1761286137.4103234,-19.40477704313397,-0.2554458753018564,0.6779742411086295,0.03474213745408839,3.6160419721021073,-18.23515713339605,-30.159901280700133
1761286137.4202578,-19.710187347345514,-0.26247798301382586,0.6556917435029916,0.031361894939639055,4.813694472114413,-19.333111750827953,-25.04761240417782
1761286137.43024,-19.974357212614848,-0.2664856719193048,0.6356771231714159,0.029486968907314868,6.592609365636123,-19.528817362585453,-20.09737076368159
1761286137.440394,-20.196230967319003,-0.26989517627382664,0.621164060095482,0.02953931870702875,9.008921023564358,-18.546782124867942,-15.38307814517057
1761286137.4509943,-20.375174760534485,-0.27569727912008973,0.6159097278034523,0.03161053067182217,12.072407811966698,-16.237111151230483,-10.941631011558165
1761286137.4602575,-20.510954706234298,-0.2869409676436202,0.6238334620366655,0.0353239449166415,15.737465217294437,-12.60845410005207,-6.773568548627564
1761286137.4704483,-20.603674079727167,-0.30609328378945105,0.6485342766286021,0.03977672393310505,19.89870734932234,-7.842988565180762,-2.850442804168663
1761286137.4802835,-20.65366567453722,-0.33435385064371737,0.6927292570425336,0.04360526930844022,24.392731108862474,-2.289543839716999,0.8723547883049824
1761286137.4903235,-20.661342937925067,-0.37104642363856827,0.7576784333295234,0.04518861660534454,29.006732946800263,3.56649594375674,4.440071202119308
1761286137.500363,-20.627021335504537,-0.413231746632685,0.8426812455431135,0.042962724313479035,33.493555159175614,9.15485666003113,7.884191866354868
1761286137.5103242,-20.550732464241474,-0.45569028773320125,0.9447398543878958,0.03577527665141422,37.59171253611508,13.888761947181228,11.213128596752838
1761286137.5204563,-20.43206829569225,-0.49139025508173556,1.0584806569322334,0.023178633405273368,41.04834242534247,17.242147240037017,14.41089289031333
1761286137.5302765,-20.270102651141237,-0.5124594518327785,1.1764095367374552,0.005554796482139221,43.64289155706841,18.825335262476866,17.444471512471715
1761286137.540243,-20.063429501215047,-0.5115323715354655,1.2895507453557276,-0.015993579652678263,45.2094557081891,18.447635325734595,20.27796184010863
1761286137.5504045,-19.81033273118683,-0.48321650320823456,1.3884694001743698,-0.03997179135389088,45.65571468987005,16.15614747000451,22.889318904519847
1761286137.5602515,-19.509073073728118,-0.42537062295233,1.4645789512778624,-0.0649389030524126,44.97622292644706,12.242922285991323,25.284543771626506
1761286137.5702403,-19.158256903928674,-0.33990147979101615,1.5114961200833776,-0.0899139374129593,43.25755233516203,7.2169334876141855,27.504563568304246
1761286137.580264,-18.757239266100118,-0.23284295902292154,1.526100349600175,-0.11459075987425565,40.6728399194096,1.7424764262536343,29.621835697396403
1761286137.5902703,-18.306506226768136,-0.11361072952054525,1.50898120018111,-0.13928092457609223,37.46424794584453,-3.4485821631147417,31.726529509939063
1761286137.600368,-17.80798008269242,0.006457643612888758,1.4641415088187255,-0.16461912439433785,33.914063076264455,-7.657285629285067,33.905343570906304
1761286137.6102853,-17.265198753062403,0.11593500926075274,1.3980746374063835,-0.1911682292680977,30.308237453837148,-10.312944324020261,36.21860666541931
1761286137.6203046,-16.683338542020742,0.2050494445612879,1.3185138592219376,-0.2190908998788723,26.898883523775723,-11.045285837357667,38.6822062070053
1761286137.6303303,-16.069073637802113,0.266948013477633,1.2331886549057551,-0.24800302133747726,23.873262876805533,-9.720729132279454,41.25949599134034
1761286137.6402612,-15.430291418036466,0.2982850324160374,1.1488404992765953,-0.2770318337898017,21.335590879460543,-6.439480842812629,43.8650969858163
1761286137.650285,-14.775706060858875,0.29915538613936193,1.0706216348909363,-0.30501948212297164,19.304876087716043,-1.4995011213228147,46.37879824841369
1761286137.6602714,-14.114429705373148,0.27253708228231344,1.0018848295155949,-0.33077195716745394,17.72800302236026,4.660745206950861,48.66508266646466
1761286137.6702836,-13.45556471349486,0.22345986982903476,0.9442941877777135,-0.35325986108662494,16.50359178463049,11.527514441358301,50.59294607525711
1761286137.6802552,-12.80786926903582,0.15810183390065824,0.8981462190157504,-0.3717178634192922,15.509987362730184,18.57393678150915,52.05159764586994
1761286137.6903372,-12.179524971439026,0.08296472628540073,0.8627822695175904,-0.38564227400140794,14.630679393924702,25.311895127371958,52.95971302764557
1761286137.70027,-11.578007099884495,0.00421543945049352,0.8369937498282817,-0.39472855955956465,13.772335571469021,31.330251936492605,53.26829249503786
1761286137.7105718,-11.010032705408063,-0.0727766623940523,0.8193589628964939,-0.3988062309839518,12.873540788357811,36.318812598159596,52.959002482379795
1761286137.7202485,-10.481542292008266,-0.14371603932900115,0.8084876167244647,-0.3978135257585178,11.905121531350506,40.07892243997569,52.04063274460544
1761286137.730277,-9.997659778200498,-0.2054975084806322,0.8031736233322383,-0.3918211944615698,10.864724266762167,42.52225372557481,50.54598406124755
1761286137.7402675,-9.56257538169176,-0.25619150801830054,0.8024671878573582,-0.38108453360770544,9.768788912596609,43.65969378055193,48.53050589076954
1761286137.7502763,-9.179310326936315,-0.29492446502110836,0.8056800182163281,-0.36609041717086155,8.644460175683449,43.582618768320515,46.07281615835623
1761286137.7602448,-8.849352717011115,-0.3216826031641902,0.8123390275800557,-0.3475720333201966,7.522899639461836,42.439262869668006,43.27622707558031
1761286137.7702625,-8.5721973324328,-0.3370737421698285,0.8221060469299701,-0.3264793208814842,6.434486090625728,40.40923303651853,40.26978160885523
1761286137.7802918,-8.344868172794815,-0.3420858125371327,0.834682780824318,-0.3039082247728025,5.405824496257507,37.67930111939078,37.207155342059885
1761286137.7903957,-8.161536569947398,-0.3378776854959316,0.8497201922439734,-0.28100181777579447,4.458297720143859,34.423300338319486,34.26208200386807
1761286137.8002956,-8.013356378874645,-0.3256276810299852,0.8667488267157883,-0.25884084647725947,3.6078882790211786,30.788244284029133,31.61962993707406
1761286137.8104167,-7.888614620974046,-0.3064510105315351,0.8851411361216104,-0.23834264281408898,2.8659916301182093,26.88778665297775,29.46354241025124
1761286137.8204265,-7.773245630742519,-0.28138351675759304,0.9041099363084537,-0.2201870621177643,2.2408764369526053,22.80303333634566,27.960752581165575
1761286137.8302732,-7.6516942973944975,-0.25141939131499014,0.9227409028070747,-0.20478500959883797,1.7393572545797942,18.589686742581865,27.24488101686789
1761286137.8402746,-7.508056453492128,-0.21758597759120302,0.9400526049708846,-0.1922971249751643,1.3681978279319222,14.289682099262677,27.40087870265714
1761286137.8502593,-7.327382009468036,-0.1810361409975663,0.9550745324891795,-0.18269801974951033,1.1348012665134173,9.944931589413574,28.452953309641458
1761286137.8602612,-7.097001765358508,-0.1431351901172484,0.9669312066233033,-0.1758696167612629,1.0468693217310934,5.6105363689393455,30.357550341369148
1761286137.8702567,-6.807731632326651,-0.10551604024822606,0.974919177671793,-0.1717003695254713,1.1109042971693295,1.3648968169284283,33.0025462058671
1761286137.8802562,-6.4548169627642755,-0.07007646558274389,0.9785648546863351,-0.1701667624929582,1.3296532649207173,-2.685374362817505,36.21306701822085
1761286137.8903697,-6.038502613825456,-0.03889849158987206,0.977655689119546,-0.17137776856727885,1.6988253630661578,-6.406947537787863,39.76358668065143
1761286137.9003236,-5.5641493957947485,-0.014083517003331795,0.9722442082601093,-0.17556977555371575,2.2036241153028353,-9.647754443378664,43.395268741795654
1761286137.91026,-5.041863482784648,0.0024835099286048164,0.9626306477306078,-0.18304811361696163,2.8158063988932955,-12.250393960545436,46.83695540522682
1761286137.9202619,-4.485658641591706,0.009407124676788413,0.9493324682152416,-0.19408151850623198,3.4920814002551017,-14.069026397295836,49.82780107607511
1761286137.9302845,-3.912223547539755,0.0060448056157190585,0.9330475219217353,-0.20876640570298563,4.174654609048645,-14.98734173902281,52.13933427781708
1761286137.9402602,-3.339408701484985,-0.007287531279311586,0.9146146869485732,-0.22688684984245416,4.794543844962276,-14.935172736528022,53.59476422901427
1761286137.9502778,-2.784575394502123,-0.02920924027105333,0.8949743704910696,-0.24780289704044914,5.277891236761599,-13.90166090017736,54.08362917368426
1761286137.9602585,-2.262964486004032,-0.05729724837656834,0.8751314347206858,-0.27040335965453693,5.554860238511625,-11.943350126390682,53.57034567843172
1761286137.970282,-1.7862479373573477,-0.08825075101944516,0.8561221055196002,-0.29315557534649395,5.569931781833344,-9.186022994238922,52.09579906185894
1761286137.980263,-1.3614207093980792,-0.11819325294749498,0.8389832150372833,-0.3142690918671722,5.291723290055525,-5.819529094731763,49.77178864514157
1761286137.9902604,-0.9901719524005556,-0.14308697617737268,0.8247200970041615,-0.33196354540608486,4.720155057306576,-2.085405951182188,46.768865147408334
1761286138.0003068,-0.6688382845805632,-0.159214655981687,0.8142721104735123,-0.3447990270936282,3.8890973224043406,1.7421460028627453,43.29878452611594
1761286138.0102558,-0.3889843997907226,-0.16366354470899,0.8084799416993854,-0.35199662007762644,2.8635339648892573,5.380402021876127,39.59336822258725
1761286138.0202522,-0.13857710976520404,-0.15473108623264822,0.8080606826762052,-0.35365829536097826,1.7315379459336764,8.564780816062589,35.88196511164567
1761286138.0303144,0.09637333380852799,-0.132173634451829,0.8135924005353471,-0.35080754363540895,0.5925659651466224,11.074646969967331,32.36992314071019
1761286138.0402546,0.32991806642017335,-0.09724708583064033,0.8255025152628831,-0.34522315761981237,-0.4557165471445203,12.75472996824833,29.220409232988853
1761286138.050264,0.5742933570634319,-0.05253271252244398,0.8440498432309842,-0.33910407593044584,-1.3299141073610337,13.529427872200335,26.541464453467686
1761286138.0602536,0.8383465632386475,-0.0015840799088728905,0.8692920932780474,-0.33464492609888125,-1.9711152018551246,13.408675676178811,24.379366184239945
1761286138.070259,1.126497074317694,0.051539345573555564,0.9010367142400011,-0.33360787317064083,-2.3519769544052127,12.485490074168732,22.718363088450143
1761286138.080318,1.4383581695541758,0.10277072368703365,0.9387785522744971,-0.33696237210233976,-2.4803152251177565,10.926284947848659,21.485896336741707
1761286138.0902958,1.7690094499416735,0.14848499771898868,0.9816306337459619,-0.3446454055552297,-2.399118203188475,8.955485577950075,20.56175926054557
1761286138.1002822,2.1097852135060675,0.18583373680716825,1.028257131103018,-0.35547448786093916,-2.1831272035130693,6.836021747492174,19.78945950771711
1761286138.1102784,2.449368268514838,0.2129309815199792,1.0768256841661563,-0.3672257374886313,-1.9324197867650548,4.847191192459925,18.988406126202587
1761286138.1204813,2.774966791805937,0.22889101681966684,1.1250115498723494,-0.37687347689276884,-1.76376743623641,3.261341454751931,17.96635119855388
1761286138.1302912,3.0733958113310784,0.23374918474853654,1.170098157416722,-0.38097625793787665,-1.8007934420548546,2.320878378209675,16.532393921008648
1761286138.1402662,3.331959670208136,0.22831179189189543,1.2092067031938523,-0.37617839409554166,-2.16399803248033,2.21719101148952,14.511146150270456
1761286138.1503756,3.5391069247305635,0.2139777591814895,1.2396417118091072,-0.3597678517298685,-2.9615150689260172,3.0730820438281885,11.757930924545294
1761286138.1603358,3.6848819117320097,0.19255954476100365,1.2592819814934502,-0.33019915755251056,-4.28110922328636,4.9302317976060275,8.173587577333743
1761286138.1702533,3.761220427561763,0.16611455884513182,1.2669153331784015,-0.2874760258031999,-6.183578937991989,7.74316867417206,3.716603677560699
1761286138.1802135,3.7621354732147094,0.13678733076925523,1.2624286101452684,-0.2333063286620037,-8.697545887227735,11.381055008455471,-1.5895967023112554
1761286138.190265,3.683822846756223,0.10665893973138939,1.2468079496308055,-0.1709855010751397,-11.815647812415717,15.63804570076946,-7.6555868641904095
1761286138.2006462,3.524696765418309,0.07760346950903037,1.2219549558547154,-0.1050174203584602,-15.49236789844224,20.25189723158315,-14.331462155496018
1761286138.2102711,3.2853522809969915,0.05115909058583462,1.1903663426514006,-0.040531450303596964,-19.64400424840258,24.92909941640759,-21.418357627865714
1761286138.2203028,2.968448379052831,0.028428883046834476,1.1547508610761623,0.017406827083233784,-24.15142545353359,29.373498486527687,-28.684577703766752
1761286138.2302678,2.5785112634214626,0.0100283780005531,1.1176641340933278,0.06447264178303966,-28.866103718722734,33.3145751864813,-35.88445236475767
1761286138.2402668,2.1216654696683586,-0.003909823528015082,1.081228457343466,0.09763185746692109,-33.61941682921859,36.531472199837864,-42.77785072396367
1761286138.2502909,1.605305878390159,-0.01367714333196105,1.046976495439132,0.11547747013371057,-38.23448403165024,38.86957704351679,-49.148397482960284
1761286138.2602758,1.0377255409044872,-0.019891544364920383,1.015826302604457,0.11831224626329864,-42.53909094986868,40.24779162534378,-54.818752642355804
1761286138.2702727,0.42771536255954856,-0.023382927892022672,0.9881689949210053,0.10798571488131836,-46.37785294511384,40.656235880035325,-59.66172050332025
1761286138.2802439,-0.21584545696422525,-0.025080129880092707,0.9640320405157817,0.08753371077488822,-49.621870506022006,40.145700020959325,-63.60640921448913
1761286138.2902796,-0.8843853999162248,-0.02591173536176319,0.9432702994998217,0.06069356753135604,-52.17471430398713,38.81139128729329,-66.63915438583821
1761286138.3004394,-1.5699975547247658,-0.02672750796228944,0.9257351361325781,0.031377136821796395,-53.97438209937411,36.774200320887005,-68.7994057044023
1761286138.3103533,-2.265732151462938,-0.028243254466190512,0.9113813530783909,0.00317919847892232,-54.99159489190139,34.16273651253395,-70.1712097798919
1761286138.3203416,-2.9658023203824677,-0.03100737851647817,0.9002916954643804,-0.021016119882704392,-55.22527060227673,31.09880038695735,-70.87129538001815
1761286138.330309,-3.665686366337428,-0.0353828968395537,0.8926237763673168,-0.03928933545668593,-54.69621580813414,27.68797536727815,-71.03507770405702
1761286138.3402622,-4.3621188953706165,-0.041538115604889014,0.8885059949131728,-0.050781947780526256,-53.44010073244238,24.015919417949686,-70.80212362869784
1761286138.3502781,-5.052975825716321,-0.04944403631256395,0.8879207088866184,-0.05564060511485833,-51.50072959762235,20.14995431914888,-70.30271485772528
1761286138.3603323,-5.737072850901567,-0.05888255346202403,0.8906126643662742,-0.054835126858419,-48.92452557772364,16.14478006643345,-69.647053755253
1761286138.3703105,-6.413909282059583,-0.0694707516169092,0.8960497279102785,-0.04989070895627385,-45.756989796413215,12.050603343819343,-68.91832177401052
1761286138.3805196,-7.0833953298742305,-0.0807023052676557,0.903445027806044,-0.04258176766782182,-42.04161279138893,7.921691603608827,-68.17020909686373
1761286138.3902802,-7.7455991422579915,-0.09200141057078622,0.9118316968085711,-0.03463529830985442,-37.82129644388864,3.8233723265844133,-67.42876883032633
1761286138.400294,-8.40054163900036,-0.10278196962624989,0.9201703267482713,-0.027485038289583052,-33.14185824811735,-0.1642204855321181,-66.69768732264035
1761286138.410284,-9.048055370216375,-0.1125055206704874,0.9274663553257033,-0.022104556570146667,-28.05677258817628,-3.946833615574526,-65.96549899890387
1761286138.420279,-9.687711015490835,-0.120733597188394,0.9328767508469628,-0.018930891345998336,-22.63206113792187,-7.421703397512155,-65.21303512923409
1761286138.4303148,-10.318803389205234,-0.12717168825069433,0.9357901222002776,-0.01787516387526438,-16.950217338862544,-10.487772687718557,-64.4195090481406
1761286138.4403436,-10.94037905453377,-0.13170215684024125,0.9358716876442288,-0.018405772161035658,-11.112230474875483,-13.059380010499423,-63.56606240215715
1761286138.450319,-11.551281234675482,-0.13440277583921198,0.9330735728714056,-0.01968350243611764,-5.237106748857277,-15.08155315986018,-62.636242852395505
1761286138.4603367,-12.150185979533035,-0.13554627246156462,0.9276182419523855,-0.02072458096525047,0.5413358452632846,-16.54451652752295,-61.613631535249745
1761286138.4704418,-12.73560702415623,-0.13557512355246001,0.9199650057793349,-0.02056637539292246,6.080286904452034,-17.49478530376806,-60.47753983353055
1761286138.4808843,-13.305855107927277,-0.13504723804866872,0.9107664222943312,-0.0184120385663199,11.235989942946881,-18.040305446400687,-59.19820750713999
1761286138.4913723,-13.858950082893394,-0.13455483109151137,0.9008162507635126,-0.013735908307160889,15.87338058674941,-18.347543581902908,-57.73315770518845
1761286138.5010686,-14.392500188524123,-0.13462984455818883,0.8909871124011022,-0.006340179643514382,19.87644640580878,-18.62928554624694,-56.02625976163379
1761286138.5110695,-14.903580555640696,-0.135658743555489,0.8821559764014768,0.0036370102766003966,23.158229528079662,-19.123154791682623,-54.010637948547135
1761286138.5207891,-15.388657919691099,-0.13783024215575768,0.8751185588886186,0.015754087030227546,25.669256171687238,-20.062372215360266,-51.6158998444903
1761286138.5307727,-15.8436142028456,-0.14112915818676747,0.8704976855237859,0.02932722867535284,27.403184432337238,-21.6417902452902,-48.779323594397674
1761286138.541033,-16.263912994472232,-0.14537317549387127,0.8686538176580038,0.043508656958231896,28.39866060844545,-23.98343981928963,-45.45975903926499
1761286138.5504222,-16.64492995779364,-0.15027553425817125,0.8696076600403697,0.0573730025127862,28.736758682192963,-27.10646415247479,-41.65221503959947
1761286138.5604064,-16.982435974424497,-0.15551178552695316,0.8729850738078214,0.07000509671777029,28.53391354694259,-30.90624223979856,-37.40057511815339
1761286138.5705483,-17.27318767707166,-0.1607730883550937,0.8779938794427494,0.08058370248485973,27.930889617547376,-35.146750783798105,-32.805724043395244
1761286138.5804176,-17.51555007059286,-0.16579805933125338,0.8834416103999093,0.08845581808997753,27.07895623228476,-39.468902110656295,-28.026638429709042
1761286138.5904977,-17.710054647683297,-0.17038513058296242,0.887803101161608,0.09319559988655247,26.124948561658677,-43.41586626882189,-23.27269686454713
1761286138.6015623,-17.85978783854498,-0.17439476147759733,0.8893450872159118,0.09464047470342127,25.197174820215178,-46.47434599683401,-18.786577236299316
1761286138.6104643,-17.970512878030686,-0.17775466278432378,0.8863094906450669,0.09289467275434059,24.39414179656968,-48.128550912011086,-14.818577814554072
1761286138.6204474,-18.050455682140647,-0.18048101684986204,0.8771478966084486,0.08828916974541734,23.777818580823553,-47.92144844717382,-11.594868359848936
1761286138.630474,-18.109730614967255,-0.18272393584842697,0.8607892983670467,0.08129076339257255,23.372656693895415,-45.51612608130834,-9.28374598889296
1761286138.6403887,-18.159438644840318,-0.1848361167917907,0.836913663099302,0.07236431820045616,23.170833819443178,-40.74920179783998,-7.965062865428268
1761286138.650484,-18.210528321500796,-0.18745159630770347,0.8061960942206171,0.061809573008628965,23.143212200728325,-33.66848771094873,-7.6082908598068455
1761286138.6603525,-18.272558431294627,-0.19155012277415195,0.7704807933913737,0.04961226757379108,23.2543787055785,-24.548671005582513,-8.063998476909227
1761286138.670353,-18.352530257503695,-0.19847535727858945,0.73284148784991,0.03536190828870086,23.47899181734184,-13.88151828637482,-9.071806824985467
1761286138.680462,-18.453958901034248,-0.20987349436563912,0.697487339143431,0.01828775382088783,23.815726521675078,-2.340633713702462,-10.285370527996733
1761286138.6903505,-18.57632220327632,-0.2275232000942785,0.6694836070668475,-0.0025557372421109647,24.294756600216765,9.275585389499279,-11.31204797070962
1761286138.70105,-18.714964616840962,-0.25303942424917003,0.6542763396257476,-0.02796430465035056,24.975382648028308,20.116219975717165,-11.762246395024638
1761286138.710335,-18.861454811564062,-0.2874569771547561,0.6570387143942937,-0.05818574135671424,25.932347463646778,29.35705445126431,-11.301466083577449
1761286138.7203524,-19.00432176191023,-0.3307387836758419,0.681891123529594,-0.09256297630036413,27.232377833499537,36.27824182144528,-9.6972038517208
1761286138.7303524,-19.130045426080514,-0.38130347308392654,0.73108686787482,-0.12934898401512473,28.90580243981789,40.332960598591654,-6.853299816627143
1761286138.7403467,-19.22416357132598,-0.4357083695550214,0.8042969267939646,-0.165789286281506,30.920546510377,41.20137286230172,-2.8259867562329353
1761286138.7503903,-19.272370359679144,-0.48863234462863214,0.8981575896901814,-0.19849017971746488,33.166257813329636,38.82578616392108,2.1814102537317765
1761286138.7603476,-19.26151302999127,-0.5332640922039112,1.0062418136931905,-0.22400151731463946,35.45433210748174,33.42385813623976,7.844869527281557
1761286138.7703505,-19.18042955009185,-0.5621191295049983,1.1195614684073945,-0.23947968386302138,37.53578643702101,25.477247029618148,13.763510662307112
1761286138.7805614,-19.020604690364255,-0.5682014477866213,1.2276058451089846,-0.24328298752425093,39.13459563534913,15.694151011251309,19.514308918298862
1761286138.7910352,-18.776648678015256,-0.5463183943974023,1.3197960694464717,-0.2353827835994605,39.99052337496607,4.946431960621641,24.709198783903226
1761286138.8004298,-18.44661672893571,-0.4942778039928974,1.3871153569822157,-0.21752008273846085,39.903336789232156,-5.8144577325861295,29.04551907848354
1761286138.8103614,-18.03218701337702,-0.41367317285379246,1.423588159144425,-0.19307259808356808,38.76978550558499,-15.654411469690455,32.34174060160264
1761286138.8213944,-17.538700591972102,-0.3100198359232351,1.4272616266153961,-0.1666229950979338,36.60585240001353,-23.754544622537235,34.552891975778266
