timestamp,angle,linear_acceleration_x,linear_acceleration_y,linear_acceleration_z,angular_velocity_x,angular_velocity_y,angular_velocity_z
1760516133.276504,3.3887105940091784,0.12613022981018063,1.0034330119629957,-0.445135557657271,5.693420188474,2.6894076613851157,9.862918520707412
1760516133.2866273,3.539438785951018,0.12062663011850706,0.9990755912067075,-0.44920104172344766,5.01646601574979,3.564247417830532,8.76440298958347
1760516133.2965045,3.6594305826894034,0.11248345558482331,0.991623559052036,-0.4509274891291679,4.30046961505942,4.543869134392741,7.743199849438789
1760516133.3065727,3.7491900918126264,0.10252717212458151,0.9815534376442896,-0.45038470837748873,3.5526701893864687,5.5932600050499905,6.828330248275366
1760516133.316622,3.8111311702307216,0.09163497279919156,0.9694868262093189,-0.44771006368639016,2.7840140548020313,6.676392875365078,6.03755935874797
1760516133.3264942,3.849256581107253,0.08053535446413794,0.9561154714199348,-0.44315724734354656,2.0097713139969993,7.760812404867678,5.376772578801928
1760516133.336528,3.8685750261912744,0.06966752152992467,0.9421425114303416,-0.43714222274408077,1.249741509813556,8.821573129185412,4.840785889314773
1760516133.34674,3.874378031160579,0.059133325747807046,0.928247175431511,-0.4302623065414163,0.5278939663149779,9.843921007985854,4.415478347102493
1760516133.3569226,3.87151436311057,0.0487490729011495,0.9150730925575978,-0.423273170845456,-0.1286654317850097,10.824418710218445,4.080912258847195
1760516133.3665009,3.8637883676491223,0.03818340913097959,0.9032354352777192,-0.41702026794872454,-0.691450067990458,11.770422092828804,3.8149350001929245
1760516133.3768692,3.8535873931191182,0.027155160649320862,0.8933384970068108,-0.41233047522221666,-1.1330500769145928,12.69792223743405,3.59666754357753
1760516133.3866086,3.8418186859733567,0.015657654084618545,0.8859917738040866,-0.40987541087752477,-1.4301984029999053,13.627840479654365,3.4092908264394315
1760516133.3965561,3.828193883012431,0.004165519377122881,0.8818105794419102,-0.4100242315512612,-1.56728006792765,14.580980683914678,3.241636401906564
1760516133.4065268,3.811822976904427,-0.006234684275096963,0.8813901260389823,-0.4127152081730134,-1.5400409783462945,15.5720464712518,3.0882530416300504
1760516133.416597,3.7919813474623334,-0.013854601400444165,0.885250531007479,-0.4173872094079851,-1.3591663369101257,16.603398856375797,2.9478368353035975
1760516133.426545,3.7688393878781627,-0.016600573758288047,0.8937599531666769,-0.42301096234126645,-1.0533083886108896,17.65949111698505,2.820165831457991
1760516133.43683,3.7439411799568636,-0.012357149804808211,0.9070487494745384,-0.4282378594367268,-0.6710493970544055,18.703099514790654,2.701953335069707
1760516133.4468074,3.72029354562606,0.0004945320202455676,0.9249277394699761,-0.4316495393648978,-0.28119141885345095,19.67451050840185,2.5822929900674736
1760516133.4569407,3.7020411536774303,0.022514364693897265,0.9468203047885598,-0.4320617186421734,0.02929702162705882,20.49465073259771,2.4385719180189054
1760516133.4665217,3.693803616054296,0.05270346102759042,0.9717133797133143,-0.4288218956282119,0.16030124865393877,21.072648368015532,2.2338401119139717
1760516133.4765177,3.699804301578516,0.08817226989489628,0.9981276695564707,-0.4220410004167364,0.0069416532121646946,21.31743531464247,1.9166150717361503
1760516133.4865382,3.722932203884401,0.12407213136849247,1.0241050178306081,-0.41270642359317494,-0.5287252258272643,21.151871016417736,1.4239298623949121
1760516133.4965312,3.763873336753799,0.15386254567910324,1.0472162358516839,-0.4026371429871791,-1.5233201188322059,20.526856553779076,0.6880468107694897
1760516133.506695,3.820443127973391,0.16993811364251118,1.0646097151916731,-0.3942667790119875,-3.01637813052828,19.432437092765454,-0.3533743868102591
1760516133.5165248,3.8872396983178934,0.16457056728366168,1.0731422767974543,-0.39027665693131536,-4.995193818092982,17.903180382547298,-1.7446971488083034
1760516133.5265124,3.955707902149035,0.13105667337102053,1.0696407014588016,-0.3931349214754581,-7.382833143322877,16.01610465344081,-3.4992276877812087
1760516133.5366879,4.014658782810421,0.06492002374438845,1.0513210918380196,-0.40461536182426133,-10.03220730886489,13.880912094523765,-5.588217938967616
1760516133.546712,4.051238962046481,-0.03500960619708339,1.01634535793934,-0.4253707623146202,-12.729047961522012,11.623990668095207,-7.934811064093688
1760516133.5568173,4.0522851271789735,-0.16583281732441243,0.9644342535063842,-0.45463218815408074,-15.206068117914928,9.369125712706003,-10.415547025905191
1760516133.566577,4.005916209042938,-0.3203325827599605,0.8974039613048892,-0.4901030407197973,-17.16951111236742,7.218558851360641,-12.8712530597356
1760516133.5765145,3.9031167665702307,-0.4874091494982363,0.8194670228405638,-0.5281026552655924,-18.337692714414466,5.237632304746751,-15.127845433646108
1760516133.5865283,3.7389903334060524,-0.653262115049321,0.7371492732150875,-0.5639719314558094,-18.48904766539318,3.4449354488099013,-17.02590594236105
1760516133.596501,3.513361993449298,-0.8032020019074595,0.658720865393789,-0.5926829298551888,-17.51471485438612,1.8082060384744214,-18.456099037173708
1760516133.6065228,3.23050717994203,-0.9237620171979574,0.593118164423244,-0.6095216816670616,-15.468187052593224,0.24493751475670725,-19.39582266775911
1760516133.6165144,2.8979544831641864,-1.0046424600181638,0.5484536795116773,-0.6106835009553635,-12.602643829594175,-1.3737547264300423,-19.941177550763662
1760516133.626595,2.524506248830684,-1.0400413583856813,0.5303770248732803,-0.593662198211903,-9.38606902363529,-3.2167881140017136,-20.32763057609448
1760516133.636612,2.1178002955820974,-1.0291009978109649,0.5407053668788621,-0.557405596197793,-6.485811285817024,-5.4836470424529775,-20.932915823174206
1760516133.6465256,1.6818610765820527,-0.9754578911804586,0.5767657516346202,-0.5022901220898,-4.718115315167337,-8.389772025413718,-22.257045272586097
1760516133.6567643,1.2151189093705064,-0.8861365337089756,0.631709521136999,-0.4299981595599316,-4.9638254120554715,-12.144523940268723,-24.876906057671665
1760516133.6665142,0.7093011707641743,-0.770184373934139,0.6957539640638024,-0.3433691232618945,-8.057754106416576,-16.92115037278825,-29.37662799424559
1760516133.6765485,0.14945874872192902,-0.637440748017125,0.758050731175175,-0.24626219785800818,-14.664822628458952,-22.82164128989998,-36.259332068328234
1760516133.68659,-0.4847687231276985,-0.4976805861217628,0.8087691063714978,-0.14342819940518248,-25.16013836920206,-29.842957817692504,-45.85050173131233
1760516133.6965294,-1.2167133040050035,-0.36016063139084536,0.8409897130388986,-0.04034550017982678,-39.53213340800202,-37.852728857249375,-58.207337469071
1760516133.7066731,-2.0693124676358607,-0.233414369760954,0.8520691132813285,0.05705665775021267,-57.327280285275336,-46.58125535871717,-73.05111258580385
1760516133.716508,-3.0612491608635573,-0.12505946192778575,0.8442306935217505,0.14286098927503063,-77.65139482058858,-55.633523201681946,-89.7396850443932
1760516133.7265303,-4.203184432119598,-0.04143969014225742,0.8242735751106184,0.21182328950003204,-99.2359268645327,-64.5212784380399,-107.29398172215645
1760516133.7365417,-5.49475057063399,0.012893813967554086,0.8024731989538464,0.26012843058906865,-120.56760994823004,-72.71126196401801,-124.48481634242732
1760516133.7464855,-6.922940557740362,0.035658398238066394,0.7909258740257866,0.28602739384777653,-140.06647726167398,-79.68126036338585,-139.97472092740648
1760516133.7565045,-8.462338749137945,0.02700715090568253,0.8016789553663939,0.29013092018730013,-156.28308658257524,-84.97234434638371,-152.49473271078202
1760516133.7667382,-10.077278449211223,-0.010737302079672034,0.8449411201267603,0.2752616444666906,-168.07716106159106,-88.22674340979229,-161.02238434910893
1760516133.7764914,-11.725567653185085,-0.07367046903081077,0.9275373989085557,0.24594036627508153,-174.7433245440496,-89.20734887528471,-164.92184109005538
1760516133.7867904,-13.363061896596289,-0.15695447474413599,1.0516791941819252,0.20767300609268716,-176.06509775813177,-87.80331268459334,-164.016075712557
1760516133.796677,-14.948226375667499,-0.2552882907976192,1.21412405637361,0.1661874447787578,-172.29772663329138,-84.03105723277866,-158.5815385637078
1760516133.8065073,-16.445937590181316,-0.3630932175791954,1.405860077022818,0.12671878649454243,-164.0946758950706,-78.03842325322312,-149.2771378718241
1760516133.8164968,-17.830035067591897,-0.474456619905302,1.6124873157511355,0.09341449396320485,-152.39824439722622,-70.11312471157662,-137.03164071587364
1760516133.826593,-19.08442896201164,-0.5829885499652225,1.8154450715876402,0.06892266126989408,-138.3136066297637,-60.68895182075861,-122.91497930423076
1760516133.836489,-20.202821669736963,-0.6817971441573167,1.9941373539011538,0.054214851957314396,-122.98145883491,-50.33810690662833,-108.01359722409956
1760516133.8465004,-21.187284214880112,-0.7637704365184153,2.1288181867921665,0.04867055185066493,-107.46062640453133,-39.73828321394804,-93.32276358948265
1760516133.8565688,-22.046046535848536,-0.8222571377591501,2.203805724632313,0.05041405683872389,-92.6300283037909,-29.609517000847443,-79.66275779992944
1760516133.866547,-22.790924949801763,-0.8520617142794247,2.2102892578029603,0.05684569707836504,-79.1187956171284,-20.627374805722827,-67.62227110282412
1760516133.8765695,-23.434817449523123,-0.8504579041744594,2.1478981911351682,0.06525227571800708,-67.27216558898378,-13.331615744254774,-57.53100869440899
1760516133.886524,-23.989638495570315,-0.8178231696828479,2.0245132464587323,0.07334784693636631,-57.157124536386874,-8.055965763899902,-49.46254316811315
1760516133.896502,-24.464940782403282,-0.7576303468622154,1.8544289217944667,0.07962541127724476,-48.605500081426506,-4.899259267868306,-43.26596587312348
1760516133.906528,-24.867308498438923,-0.675830440453307,1.65554697236606,0.08348193108406839,-41.28530814410593,-3.742840173209221,-38.62063607290365
1760516133.9167628,-25.2004521466491,-0.5798960912745297,1.4464642615996295,0.08515288064964613,-34.78625757082822,-4.302911258109212,-35.10432525972711
1760516133.926691,-25.465827840499436,-0.47782796750675904,1.2441028969497117,0.08552184741484728,-28.7038561030709,-6.197781880948357,-32.2633904292407
1760516133.936711,-25.66355112572297,-0.37730721589979604,1.0621497296167104,0.08586999925376983,-22.708558430783786,-9.010483495475912,-29.674745954478606
1760516133.9465,-25.793366325407938,-0.2850404821045971,0.9102664022658522,0.0876216596891261,-16.59101971058316,-12.333968854118647,-26.992426535470926
1760516133.956522,-25.855465330359465,-0.20628082215993854,0.7939004062694651,0.09212775975061384,-10.280376009940024,-15.794979233465583,-23.97523710071853
1760516133.9665027,-25.851028301151466,-0.1445219133227863,0.7145301988654995,0.10050538428225177,-3.8378169695381703,-19.06016545634996,-20.49548841001874
1760516133.9765635,-25.78246848041734,-0.1013940736118731,0.6702166200159196,0.11352774798639646,2.5688259145926113,-21.832087785379965,-16.531680929135195
1760516133.9866319,-25.65346456548446,-0.07678325620728875,0.6563536047797374,0.13154948345712725,8.702397464236576,-23.843160293980052,-12.15001996226663
1760516133.9965916,-25.46891384802911,-0.06914928370670498,0.666519723680682,0.15446059306529197,14.298587053923834,-24.853653856967572,-7.4805469121829224
1760516134.006508,-25.234920038674908,-0.07597367414645141,0.6933462883435629,0.18167608088603687,19.10657886590708,-24.65676660327232,-2.693175040863268
1760516134.016637,-24.958857791634124,-0.09424528941270306,0.7293365462312762,0.21217181850566724,22.922982836722255,-23.090338793784177,2.022841479848208
1760516134.026933,-24.64946863005125,-0.12089611968560336,0.7675856012579693,0.24456794619993016,25.61553035742838,-20.051898331342915,6.474797875483882
1760516134.0369701,-24.316880046032527,-0.15312345414323483,0.8023594167479153,0.27724831878175,27.1350644313538,-15.512339229202873,10.478556124264403
1760516134.0465152,-23.972429021406608,-0.1885695858580153,0.8294962262953152,0.30849701405108687,27.516304841519396,-9.524057612521888,13.868438926607988
1760516134.0565443,-23.628218732286324,-0.22536632390687206,0.8466011543196188,0.3366328484949912,26.86922931800437,-2.2212412166625537,16.506578238968906
1760516134.0665317,-23.29642339188552,-0.26208112681029255,0.8530215933223044,0.3601282625446343,25.363535661753215,6.187806280374052,18.292268072544005
1760516134.076615,-22.98844529630488,-0.2976179635747174,0.849618248232854,0.377706169378886,23.20884360706001,15.434705983120635,19.170575684070148
1760516134.0865088,-22.71408353913984,-0.331123707983445,0.8383781940537309,0.3884131732989533,20.63341599215094,25.208837097197883,19.138543045802578
1760516134.0965903,-22.480874846521644,-0.36193183841075416,0.8219410751421683,0.39166820831166077,17.86416335818353,35.17615127788244,18.24716408765122
1760516134.1066496,-22.29371913463516,-0.38955037867676096,0.803119108085595,0.3872838484556823,15.110185018110666,44.996561353412574,16.597940283973504
1760516134.116545,-22.154831162874764,-0.4136817632955154,0.7844837852679464,0.3754561759595845,12.551034467956496,54.338385338452646,14.333881929821496
1760516134.1267626,-22.063991481253325,-0.43425254968197874,0.7680710539670573,0.3567207160192511,10.32973684292648,62.88941223207004,11.625980714465163
1760516134.1365733,-22.019019381786183,-0.4514287741274475,0.7552283159054463,0.3318779668833525,8.54985855600445,70.36512480683315,8.65715499947059
1760516134.146842,-22.01636171131601,-0.46559618005091546,0.7465968061594441,0.30190068728894454,7.275766948380455,76.51523733911813,5.606219468120404
1760516134.1565416,-22.05168398827585,-0.4772936787238841,0.742198235052637,0.26784114201961207,6.535389138384162,81.12982490150634,2.6343700350176316
1760516134.1665037,-22.120363010101496,-0.4871036948344861,0.7415820114166009,0.2307549589798595,6.325000571714957,84.04586440476889,-0.12398812783089821
1760516134.1765528,-22.217809493003465,-0.4955208598587634,0.7439925915461605,0.19164881008159362,6.615703923608312,85.15413390001535,-2.5652578795226892
1760516134.1866193,-22.33958837038878,-0.5028323356096382,0.748530924314407,0.15144750279822833,7.361281602381009,84.40554673851047,-4.615726258610813
1760516134.1965976,-22.48134480500654,-0.5090419211153535,0.7542990117667848,0.11097026675802914,8.507037468547722,81.81557448115221,-6.226697256076992
1760516134.2071457,-22.638578582253118,-0.5138566023737762,0.7605246401394127,0.07090994006751664,9.999099000004668,77.4655900967602,-7.367134507387925
1760516134.2165246,-22.806333591766826,-0.5167350093106001,0.7666640182039675,0.031818917641993356,11.793454164834218,71.50056366949624,-8.015417859236463
1760516134.2266586,-22.978880241546396,-0.5169805391599476,0.7724772870333111,-0.0058859675274947724,13.863789743840005,64.12329095023046,-8.151727154191882
1760516134.2365344,-23.149466747746786,-0.5138540654379268,0.7780699895144949,-0.04188738044426924,16.20703845626327,55.586000754841564,-7.752296776027637
1760516134.2465222,-23.310201874608953,-0.5066838548452619,0.7838954541252129,-0.07589643138235395,18.845518736983458,46.1805391071362,-6.78639615517055
1760516134.2565322,-23.45210955810379,-0.49496003896238944,0.7907188007637354,-0.10755511596894464,21.8247628670938,36.22818894929259,-5.216463689328396
1760516134.2665951,-23.565368168536462,-0.4784115302975381,0.7995499486873909,-0.1363311798839273,25.206609416664726,26.06962346420659,-3.0014473122352587
1760516134.2765307,-23.639717376783427,-0.4570684687499742,0.8115558456826044,-0.16142893719143034,29.057792203469827,16.05481938522784,-0.10314468868820989
1760516134.2865577,-23.66498846448354,-0.4313105992425376,0.8279585350682468,-0.18173775312215393,33.43492026299487,6.5322837836840195,3.504843745435102
1760516134.296523,-23.631697040305255,-0.40189561904459475,0.8499184145197815,-0.195835179388449,38.36727663884166,-2.1631681700213057,7.826161062555261
1760516134.3066502,-23.531637434497636,-0.36995832191925687,0.8783971310591953,-0.20205830519037052,43.83922824482109,-9.724542893806,12.829722087071614
1760516134.3165178,-23.358434186169095,-0.336972783027117,0.9139964321403277,-0.1986549602947316,49.77426783987489,-15.888443671471306,18.438177346572676
1760516134.3265204,-23.108026678806628,-0.30467242918559057,0.9567790427137358,-0.18402201712153493,56.02286083064478,-20.45127664774506,24.518686594411104
1760516134.3366115,-22.779075374252503,-0.2749253092369676,1.0060931579943773,-0.15702645796368847,62.35636914977125,-23.283862508475217,30.878093479127166
1760516134.3467736,-22.373277251813985,-0.24956635660854437,1.0604373078623657,-0.11738329851070402,68.4693082612431,-24.34211928645744,37.26449678086601
1760516134.3565834,-21.895567623014326,-0.23019586526369765,1.1174084677574203,-0.06603441148750777,73.99191925324389,-23.671821474770233,43.37673886184586
1760516134.3665707,-21.354173039351803,-0.21796206995454948,1.1737688653085205,-0.0054424835414257425,78.51433004469995,-21.406320858395176,48.88246784303878
1760516134.37655,-20.760473322462627,-0.21335468597980767,1.2256505004112552,0.06030034479189312,81.62225084827881,-17.757208576542272,53.44420995555079
1760516134.3866115,-20.128636468059064,-0.2160470133166275,1.2688980762896318,0.12563589892352323,82.94208815849258,-12.99887127459243,56.75140767541174
1760516134.3965263,-19.475012177653674,-0.2248359178000413,1.2995301751521988,0.1840168217814067,82.19074591782075,-7.448664237311654,58.55485218258162
1760516134.406646,-18.81730589334839,-0.2377318505531164,1.3142692986238278,0.22866887559571847,79.22284835255587,-1.445079649936834,58.69872378852649
1760516134.4165382,-18.173595167171673,-0.252228858899657,1.3110568324412972,0.25353287155006426,74.06665025916314,4.673259002089768,57.14497506957548
1760516134.4265137,-17.56127867806447,-0.2657304062151791,1.2894466587245077,0.2542171422088319,66.94040726138947,10.585055396335386,53.985377344587384
1760516134.4365861,-16.996052696391942,-0.27603812188614835,1.2507813378909418,0.22876941794143854,58.24379111021552,15.998530116524764,49.438299023743404
1760516134.4465775,-16.49098821445436,-0.2817646698394554,1.1981022250065287,0.17811017288142778,48.523505982550404,20.658396202866076,43.829957690648016
1760516134.4566684,-16.05574576137058,-0.28254146940874425,1.1358110505469077,0.10604518857874971,38.417309150897935,24.349535310776893,37.562835496412994
1760516134.4668813,-15.695935375534468,-0.2789592814841857,1.069154736669612,0.018861005581974205,28.58474966793493,26.900296488754286,31.076259229353003
1760516134.4765248,-15.412627313210484,-0.2722729746287351,1.0036269134059421,-0.07542551027793733,19.635194311377823,28.187928547433078,24.805116907204923
1760516134.4865828,-15.20205216751269,-0.26397813885119875,0.9443717987762219,-0.16805132698046868,12.063847455680662,28.146992156555633,19.142184221830114
1760516134.496558,-15.055579981034713,-0.2553975221414174,0.8956572807865911,-0.2505896267221573,6.204692447442858,26.779420493355126,14.407996220019912
1760516134.506545,-14.960097560050247,-0.24739300026784583,0.8604682388959138,-0.3159812545065017,2.206106293989821,24.163138103025144,10.830322653190535
1760516134.5166156,-14.89887382631474,-0.2402585835130843,0.8402590223646725,-0.3593678263315851,0.031038441998377197,20.455569734208424,8.533701120400329
1760516134.5265296,-14.852907506823563,-0.23378124338341028,0.8348896453390768,-0.3786063761696244,-0.5201840835497544,15.88923887059426,7.538422697973406
1760516134.5365639,-14.802622059704538,-0.22740847709584536,0.8427502161548044,-0.3743968322224834,0.2304668434198022,10.758540461783433,7.767799517465254
1760516134.5467656,-14.729663772257966,-0.22044844230321567,0.8610538944091938,-0.35001594771604455,1.889427661837268,5.398778501385712,9.062279074695386
1760516134.5566924,-14.618517790125404,-0.21224514702441846,0.8862549634326768,-0.310711476356412,4.044837123504445,0.15991781864854862,11.198814370660743
1760516134.5665665,-14.45770028298099,-0.20230145188009455,0.9145308247008607,-0.2628612192500542,6.315209205337633,-4.621990829033699,13.913738312226341
1760516134.576531,-14.240392727604174,-0.1903498866596023,0.9422589602718143,-0.21303741032641058,8.387781041042073,-8.652807495678864,16.927208856835335
1760516134.5865467,-13.964511465439438,-0.17638502499284417,0.966423924156161,-0.16712935207987528,10.042874332074804,-11.705060147116574,19.967145789163105
1760516134.5966034,-13.632306082133764,-0.16066951786000258,0.9849043315846322,-0.1296594097946918,11.162875750365153,-13.637053898741554,22.79057405831797
1760516134.6066322,-13.249628450543174,-0.14371563875023233,0.9966120746098269,-0.10338208107388856,11.72667551935566,-14.404225898427304,25.20052433832528
1760516134.6165583,-12.82501496222724,-0.12623688608910327,1.0014802639343352,-0.089195899639513,11.79234531960072,-14.061141028183883,27.057146944480014
1760516134.626542,-12.368700966734286,-0.10906725474629224,1.0003177971220454,-0.08633932633711953,11.472216225199563,-12.753382837686441,28.282400639524898
1760516134.6365464,-11.891660222889344,-0.09305642633752215,0.9945645616675692,-0.09279657379184392,10.905122224014203,-10.699851316023818,28.858456365593756
1760516134.6465464,-11.404742373356964,-0.07895950243390638,0.985991789633823,-0.10581476521399782,10.230343395297323,-8.167437962430505,28.820667641144745
1760516134.6565483,-10.91796911217792,-0.06734582668367443,0.9763967848801588,-0.12243275472564935,9.566833876232888,-5.441312736058216,28.246490342424263
1760516134.6665456,-10.440039955347087,-0.05855046131408916,0.9673389529949279,-0.1399401920946576,8.999909727930586,-2.794751183748205,27.242031576082724
1760516134.6765552,-9.978077761387848,-0.052679024597536414,0.9599535572828815,-0.1562122009874474,8.576019459708885,-0.4623925650552789,25.927972273716808
1760516134.6868448,-9.53760051025444,-0.0496530864057713,0.9548618680129539,-0.16989095168653479,8.304826356593315,1.3798857652402619,24.426465751890685
1760516134.6966276,-9.122649149241798,-0.049264073107396576,0.9521760062893946,-0.18040915619812606,8.166815339117223,2.626478758768547,22.850295271187886
1760516134.7065475,-8.735962791628594,-0.051204570270571216,0.951580365481638,-0.18787477571602895,8.124102836567637,3.2443833529122132,21.295116394220628
1760516134.716547,-8.379099624276785,-0.05506706257591335,0.9524630912446027,-0.1928596828533341,8.13206848265785,3.2672064757148394,19.8350763792968
1760516134.7269704,-8.0524547296623,-0.06032601547360746,0.9540697967420718,-0.1961508799983813,8.149748876973835,2.7828513223067963,18.521587501295798
1760516134.7367613,-7.755196381060443,-0.06633201204262791,0.9556536222703771,-0.19852355076991862,8.147505566550432,1.917494581505105,17.384638246857993
1760516134.7465384,-7.48519472658245,-0.07234014903828256,0.9565987022467961,-0.200579275905502,8.111176420720602,0.8184486266124554,16.43582461009898
1760516134.7565618,-7.23903211593452,-0.07757740331654661,0.9564998132020597,-0.2026681235254218,8.042628690180713,-0.3620332705708797,15.67227842205475
1760516134.766851,-7.012162930976483,-0.08133661044599513,0.9551914684845125,-0.20489072399921915,7.957242806231423,-1.4807185092904682,15.080805126647865
1760516134.7766173,-6.7992423639541695,-0.08307324698886351,0.9527322364149897,-0.2071608273837385,7.879274290398763,-2.414519062864118,14.64173728488156
1760516134.786548,-6.594585226955255,-0.0824778517024611,0.9493585986845795,-0.2093003260407438,7.836222882274021,-3.0685863444959067,14.332200520875075
1760516134.796599,-6.392670417893835,-0.07950357681872651,0.9454239849029765,-0.21113706324775494,7.853299849767826,-3.381324550622909,14.128652395775767
1760516134.806546,-6.18859116127141,-0.07434240113905143,0.9413345441378321,-0.21258042797859777,7.948880973505056,-3.3262672700271807,14.008687720720022
1760516134.816549,-5.978368160621021,-0.06735865481714899,0.9374881879615135,-0.21365907118092767,8.131530818623387,-2.9107815142278586,13.952200888513508
1760516134.8265438,-5.75908313969403,-0.05899960411129792,0.9342208677928293,-0.2145167832823924,8.398850772358092,-2.1717189261518848,13.94205056244862
1760516134.8366318,-5.5288389411417524,-0.049707278318277356,0.9317641564363186,-0.21537373529830348,8.73809650973076,-1.1684396453748411,13.964384729500935
1760516134.846559,-5.286593491420779,-0.039852699919916156,0.93021883555729,-0.21646778303533548,9.128268390424237,0.025997668424035312,14.008761947986596
1760516134.8565514,-5.031937034294471,-0.02970484307964569,0.9295484421832247,-0.21799286665163378,9.54321806612361,1.3343813940294715,14.068157280889846
1760516134.866647,-4.764881787091451,-0.019435659256454754,0.9295943011100926,-0.22004958352391812,9.955237799473304,2.684377158589046,14.138880497519159
1760516134.8765376,-4.485715101721681,-0.009153124605165175,0.9301101236447451,-0.2226186955036978,10.338597742866492,4.0158241354840865,14.220374900738545
1760516134.8865416,-4.194940330552219,0.001051154474085006,0.9308106092443024,-0.22556299769522997,10.672557492016203,5.285303878777724,14.314824557367364
1760516134.8967905,-3.8933038272939795,0.011053910116074211,0.9314254960615124,-0.22865702265922327,10.943486263667145,6.46740789028116,14.426490033336421
1760516134.9067383,-3.5818899244237037,0.020662243492353266,0.9317490080322528,-0.23163809936845323,11.145866672009138,7.552703363075619,14.560725349945443
1760516134.9165452,-3.262260429536184,0.029590648418962355,0.9316753309250415,-0.23426796729339072,11.282115901853643,8.542989472489756,14.722699535068031
1760516134.9265974,-2.9366136152319275,0.03745502763440684,0.9312137291729855,-0.23639275682159336,11.361315696986223,9.444872485307489,14.915941485200406
1760516134.9367802,-2.6079284507774094,0.04378781782811845,0.9304812121692095,-0.23799013726314078,11.39707604631907,10.262877357682763,15.140920247383907
1760516134.946685,-2.280041287903743,0.04808169680564618,0.9296748562149353,-0.23919433263310705,11.404852127087143,10.993301224649297,15.393926159180644
1760516134.957025,-1.957587906015328,0.04986694481984637,0.9290295919173546,-0.240292408219046,11.399091024486866,11.61989451799597,15.666496469061965
1760516134.9665933,-1.645754293645136,0.04881563400493277,0.9287706826906206,-0.24169039788416688,11.390610078883702,12.112270124905551,15.945522837978606
1760516134.97655,-1.349826659111539,0.044848268138910026,0.9290719405447301,-0.24385584207033006,11.384596030500822,12.427641721815824,16.214018581714743
1760516134.9867268,-1.0746023366610191,0.0382070833085412,0.9300287465859371,-0.24725049959763187,11.379542861071723,12.515993085902366,16.452373901597298
1760516134.996609,-0.823782702602065,0.029466250028788374,0.9316495265238856,-0.2522684737706466,11.367301862009956,12.32809054642393,16.639848931786357
1760516135.0066624,-0.5994847405444954,0.019471072724683437,0.933863676159597,-0.25918993338861973,11.33421718913326,11.825053920552053,16.756067439312066
1760516135.0166287,-0.4019758302415682,0.009222244325188663,0.9365403945469776,-0.2681531095550241,11.26311688113574,10.987744476201316,16.78234983725138
1760516135.026668,-0.22967745344750182,-0.00026478770457801,0.9395115786722439,-0.2791421910066968,11.135783550566968,9.824151312451482,16.702814679120937
1760516135.0366619,-0.07942310010954079,-0.008094024595661694,0.9425928059032925,-0.2919878015053754,10.935473551970746,8.373259278443665,16.505248262899734
1760516135.0465612,0.053088747356455725,-0.01359350550972763,0.9455995515898639,-0.306378062445083,10.649084879805347,6.704488883074967,16.181781186115632
1760516135.0565693,0.1727272583660479,-0.01637920778802004,0.9483594169600822,-0.3218792860120794,10.268671425534645,4.91259100521443,15.729421170184079
1760516135.0665612,0.284329635806093,-0.01637793154630166,0.9507224719633758,-0.3379653369090184,9.792143373267155,3.1086854961965464,15.15047539308174
1760516135.0767417,0.3921406103905862,-0.01381501303790404,0.9525702026141207,-0.35405394902267057,9.223157365112492,1.4087822613006264,14.45285322265544
1760516135.0866387,0.49934948936852885,-0.009173379835235812,0.9538210673485447,-0.369546496662188,8.570353770811353,-0.07848513020370257,13.650182027849205
1760516135.0967793,0.6077758223156952,-0.0031270498102278737,0.9544296604661683,-0.3838650425585726,7.8462063296822375,-1.2630820393213593,12.761619340731524
1760516135.1065762,0.7177508623200263,0.0035501876441613985,0.954377791331419,-0.39647972348292926,7.065785405509464,-2.0821237310445126,11.811230095200646
1760516135.116568,0.828227792163292,0.010095553938069065,0.9536586998909372,-0.4069240880201332,6.245692681166083,-2.5046380138587376,10.826833739287515
1760516135.1265628,0.937116610616399,0.015871058709390304,0.9522585372656692,-0.4148043494814505,5.403317771149047,-2.532171662402214,9.83831651572738
1760516135.1365519,1.0417851296235612,0.020454673837860052,0.9501406016060513,-0.4198139162723651,4.556431556952789,-2.1956759193031976,8.875536365398021
1760516135.1466403,1.139620539513306,0.02368518746935005,0.9472371595280477,-0.42176182465578615,3.723007026844684,-1.5497280145412864,7.96608475382824
1760516135.1565597,1.2285328715613537,0.02565102938969951,0.9434518036850539,-0.4206141260294788,2.921074346032793,-0.6654184893363051,7.133259433517529
1760516135.1665602,1.3073090530423754,0.026631375473644647,0.9386732775733323,-0.4165368147124191,2.1683881291282865,0.376867684598818,6.394604317063514
1760516135.1767523,1.375775689378624,0.02700930828268837,0.9327999612634279,-0.4099234435890853,1.48171613285826,1.4939277966394735,5.761274469366094
1760516135.186544,1.434772179971594,0.0271772086780574,0.9257727518311795,-0.4013926114297829,0.8756437954162954,2.6051282134163625,5.238301192904417
1760516135.1965573,1.4859567812648016,0.027447791946744803,0.9176128993450918,-0.3917480070391891,0.3609155525464956,3.636813016474937,4.825607060087572
1760516135.2065792,1.5314708636245893,0.027977916897799816,0.9084602953006222,-0.38190219168717077,-0.05751647440762123,4.52613180793925,4.519414166100561
1760516135.2165647,1.5734876161172873,0.028711311512450585,0.8986064417998926,-0.37277173484208426,-0.3824224193343367,5.224715310872153,4.313556117178201
1760516135.2265506,1.6136844639416967,0.02934974797268652,0.88851501906011,-0.36515613871231684,-0.6257918882365872,5.702389568956953,4.200178253496939
1760516135.2366016,1.6527048696173414,0.029365800481238987,0.8788222279315291,-0.3596174140085541,-0.8094693093560298,5.950682672336101,4.169400257093176
1760516135.246787,1.6897090905407548,0.02807176894836336,0.8703090375601691,-0.3563787723072453,-0.9645680144336254,5.985405810527561,4.207709336611821
1760516135.2568219,1.722146864836548,0.024757487698950652,0.8638374606095426,-0.3552556862646299,-1.1294446066576933,5.847295429638392,4.295123516703823
1760516135.2666667,1.745894353630108,0.018897109376887062,0.8602433474370471,-0.35562358720433745,-1.3462070684795417,5.599737826196504,4.401473795700429
1760516135.2765982,1.7558375367938845,0.010391810905666191,0.8601828475312818,-0.3564244472433774,-1.655963222844114,5.3229594801561815,4.48244960721789
1760516135.2865672,1.7468312459496715,-0.0002285705114942596,0.863945280082028,-0.356224293930207,-2.093289365200295,5.104615022201806,4.476276261103142
1760516135.296639,1.7147713270494573,-0.011742406488295833,0.871274064210918,-0.3533457207928545,-2.680702971135046,5.027270507986483,4.302001921688154
1760516135.3066294,1.6574008409001832,-0.022378417870302904,0.8812677002565318,-0.34609873309730704,-3.4242176561389814,5.153753690709475,3.8603486171472734
1760516135.316629,1.57451774098023,-0.030157007543055517,0.8924377567216994,-0.3331112848550524,-4.311260773732437,5.511691949720331,3.037912210493025
1760516135.326575,1.4674573191030105,-0.033348291751893806,0.9029610308303528,-0.31372040489150527,-5.312233871466118,6.078803839935999,1.7151365186061835
1760516135.336884,1.3379960117506673,-0.030922506730057874,0.9110937430015412,-0.2883424975093589,-6.386679218185024,6.77069710377418,-0.22209517203694812
1760516135.3467739,1.1870411565073533,-0.022876108548478727,0.9156559717368654,-0.2587206127961685,-7.494300894906775,7.433085162481815,-2.868144684253196
1760516135.3568232,1.0135463003218845,-0.010363553906954375,0.9164690104121029,-0.22795986461021345,-8.60999481782332,7.8404585865028595,-6.282197934860635
1760516135.3668993,0.8140059844761433,0.0043732942118653055,0.9146348810991426,-0.20030436333760163,-9.740748359080268,7.703285239705731,-10.473909865329848
1760516135.376637,0.5826832073869134,0.01823421052698084,0.9125756342637683,-0.18066476542730053,-10.941115018688123,6.6856302173331414,-15.3925758524381
1760516135.3866491,0.31248820449698067,0.027582861282544446,0.9137930691296593,-0.1739577002936485,-12.323353416222737,4.434442543891469,-20.922240113176134
1760516135.3965673,-0.0037547573429273953,0.028615276163985057,0.922360664274098,-0.18435176560276373,-14.058543967557595,0.6203889178258893,-26.884674942583167
1760516135.40662,-0.37198760656602364,0.017771311071765973,0.9422107960320502,-0.21452248004810315,-16.366116365360515,-5.012061238317843,-33.05123290034399
1760516135.416604,-0.7958414158343357,-0.0077822765732943845,0.9763241156235103,-0.26500798736692943,-19.49102753601471,-12.590367286449776,-39.163287371092984
1760516135.4266667,-1.275994295752877,-0.04958578219784428,1.0259604087070444,-0.33374602449593077,-23.669994331192317,-22.06336245438824,-44.959502434369455
1760516135.4369514,-1.8100401811097173,-0.10729770976598799,1.0900886553599567,-0.4158721754869444,-29.09044731157136,-33.16430525477405,-50.206638258778185
1760516135.4466352,-2.392841594784645,-0.17823548769063105,1.1651674252003275,-0.5038635804874527,-35.848066595282766,-45.39749184372609,-54.729161716873236
1760516135.4567947,-3.0172601383453377,-0.25726046203359565,1.2453768172473971,-0.5881028240151549,-43.910607754400516,-58.05583658182116,-58.43202717441027
1760516135.4667442,-3.675112222813488,-0.33720475435970315,1.3233076390512313,-0.6578952875809511,-53.09659839594771,-70.27217086661058,-61.31135224748852
1760516135.476783,-4.358186657749524,-0.4099054568708105,1.3910030650844694,-0.7028890358157498,-63.07641381518267,-81.10163318134381,-63.44982686948559
1760516135.4866307,-5.059172177078714,-0.46768425607162656,1.4411595634367231,-0.714723151521312,-73.3992225466906,-89.62721976657205,-64.99712812799729
1760516135.496567,-5.772362823731436,-0.5048915925202705,1.4682424354813957,-0.688593594217016,-83.54217054083685,-95.07483339271883,-66.13911377896876
1760516135.5065784,-6.494037813282139,-0.5190561456501763,1.4692719770207285,-0.6243315032358197,-92.97015146497853,-96.91826796868162,-67.06194784988355
1760516135.5165799,-7.22245847828019,-0.5113020170756577,1.4441170967897992,-0.5266270830737364,-101.19052187282678,-94.95210872468223,-67.91810255421343
1760516135.5266657,-7.957488614073506,-0.48595477622549677,1.3952859133444795,-0.4042623907833498,-107.79116164100063,-89.3161673667542,-68.80048111407378
1760516135.5366266,-8.699913068361981,-0.4495136982525064,1.3273540523903329,-0.2685576006479561,-112.46015255659923,-80.46826182937174,-69.72898679412359
1760516135.5466547,-9.450584145765726,-0.4093084159089023,1.246241373621747,-0.13148585632884408,-114.99360822278305,-69.11605494093023,-70.65114899655387
1760516135.556585,-10.209553124110203,-0.3721671365831868,1.1585206389891447,-0.003937395725552441,-115.29969249134291,-56.126533558566486,-71.45559100762844
1760516135.5666633,-10.975340585608588,-0.3433504135846794,1.0708610924961819,0.10554082690191753,-113.40291315119568,-42.431805097424224,-71.99483690316907
1760516135.5767465,-11.744466515608305,-0.3259012559645,0.9896275199017062,0.19140793174787177,-109.44765384185065,-28.9444659818426,-72.11249414407337
1760516135.5865643,-12.511308670787862,-0.32046323517028247,0.920597250387098,0.25123631610486774,-103.69650124644778,-16.488389036050933,-71.66931878125163
1760516135.5965545,-13.268302457077311,-0.32554222927618176,0.8687298776425025,0.2854006968396187,-96.51814301799426,-5.744749117864191,-70.56328366802077
1760516135.6066115,-14.006451877322336,-0.33812974142797464,0.8379281980591708,0.2965139514435131,-88.36141307372672,2.789173213542386,-68.74064520919298
1760516135.616566,-14.7160903364738,-0.3545467169461056,0.83075983578327,0.28875038704108835,-79.71582555133122,8.828909053480857,-66.19772045172158
1760516135.6266606,-15.387805028030725,-0.37131145939308197,0.8481512087151284,0.267151448618921,-71.06337122749864,12.315883560259774,-62.97559088030754
1760516135.6365738,-16.013416521876827,-0.38582515442913023,0.8890986158628829,0.23697490132083823,-62.829627671330364,13.408949260943649,-59.1511262405438
1760516135.6466737,-16.586891336422337,-0.39673277273043867,0.9504598647021015,0.2031382218913042,-55.3427859250486,12.451083215895984,-54.827304581837474
1760516135.656778,-17.105066552217338,-0.4039287289250485,1.0269044844308477,0.1698041506443088,-48.80681852904802,9.913867250438663,-50.124598794728385
1760516135.666816,-17.568084697453465,-0.4082778516302233,1.1111132431749873,0.1401404225184103,-43.29119578242934,6.328246888999252,-45.174175464462
1760516135.676772,-17.979471701353248,-0.4111768925416183,1.194309726830276,0.11625618328651526,-38.73638708412977,2.2132646368397997,-40.113055387307476
1760516135.686676,-18.34583385371581,-0.4140886333851228,1.2671577402296454,0.09928855013458543,-34.972953407928124,-1.9855608160494336,-35.08090689781369
1760516135.6965787,-18.676193653753444,-0.4181539268226376,1.3209634766932419,0.08959351201334873,-31.751849363387393,-5.939104237206333,-30.217588633838282
1760516135.7067282,-18.981024686798644,-0.42394225639512284,1.3489923365077705,0.08698624639983364,-28.783371094608267,-9.45371799072931,-25.6601024152639
1760516135.7166615,-19.271081770464445,-0.4313538253750366,1.3475910006274492,0.09097533999484592,-25.781256831339313,-12.465953235048737,-21.537589902620073
1760516135.7265775,-19.55615478560857,-0.43965173795203727,1.3167852207259296,0.1009437348884532,-22.506926570295835,-15.016205736718783,-17.96360658734442
1760516135.736601,-19.843900132311443,-0.4475913194174674,1.2601651300738457,0.11624798277796519,-18.807487291855907,-17.20731241628538,-15.026040030225928
1760516135.7465668,-20.138915215697974,-0.45361882611716714,1.184107411878673,0.13623497219009814,-14.64088723714819,-19.155732874196666,-12.776298903232396
1760516135.756581,-20.442207572577846,-0.4561179281871326,1.096574474138085,0.16020189790778047,-10.083215678995233,-20.943682922585502,-11.220226043608655
1760516135.7665973,-20.751161943587697,-0.45368106631337457,1.0058015524656672,0.1873363017961713,-5.316539352743211,-22.580517912841753,-10.313208363700472
1760516135.776726,-21.06002708594432,-0.44537551743043274,0.919152516974755,0.21666379721956144,-0.5997190157926089,-23.980483513977564,-9.961208509999274
1760516135.786681,-21.360845798700666,-0.4309643730654177,0.8423309677110777,0.24701449221483704,3.772152351596978,-24.96132016330045,-10.028265373615195
1760516135.7965658,-21.64466456311516,-0.41103719278579515,0.7790106353176341,0.27701224332960567,7.512554892971093,-25.264366885900625,-10.349766648075114
1760516135.8066075,-21.90281141320198,-0.3870131292928433,0.7308421419493997,0.30509625209340363,10.385529767942241,-24.59271194860746,-10.749741660337028
1760516135.8165731,-22.128034687502687,-0.36100308853081464,0.6977314619682639,0.32958980634252827,12.238874211943859,-22.66066756067521,-11.059716668579636
1760516135.8269172,-22.315342755575983,-0.3355485671662423,0.6782694422365791,0.34882451641136375,13.024271119287684,-19.24602431108751,-11.136408228916164
1760516135.836758,-22.46245625477292,-0.31328236388181613,0.6702066440369864,0.36131072192862945,12.802201205290501,-14.236279875895846,-10.875731488145897
1760516135.8465815,-22.569861175086064,-0.29657306420866003,0.6708974654163414,0.3659259943208359,11.731804355124984,-7.66121785781743,-10.221242477934805
1760516135.8566496,-22.64051845210746,-0.28721681831600904,0.6776686931225835,0.36208382883864426,10.048054892919895,0.29338042363116573,-9.166113438225507
1760516135.8666127,-22.679331932829722,-0.2862262823647102,0.6880924272381101,0.34984703875187867,8.030367656747995,9.292865809078487,-7.748852536682462
1760516135.8765848,-22.6924953189881,-0.29374335162035686,0.7001604924221332,0.3299618597766369,5.967801118400464,18.880224638272,-6.043955896331917
1760516135.8865821,-22.686831317586506,-0.30907804317375,0.7123689223328802,0.3038036700893281,4.126185097834364,28.517626318113027,-4.1492932486186085
1760516135.8966007,-22.669209503182596,-0.3308560144784588,0.7237281510332909,0.2732394085687866,2.7217241378203942,37.63700625477762,-2.1721960307334163
1760516135.906606,-22.64609121450588,-0.35724234859118553,0.7337175166837105,0.24042396299917368,1.9041131374398115,45.69325959826743,-0.2160269377372121
1760516135.9166036,-22.623208880842693,-0.38619921890620884,0.7422023483566424,0.2075577226734058,1.7503611158212669,52.214082616766724,1.6313653926780245
1760516135.9266212,-22.605353488148204,-0.41573146420696844,0.7493299921771894,0.17663889337978983,2.268778861798992,56.84139756200977,3.3063372831413544
1760516135.9367783,-22.59622508177294,-0.4440787011929694,0.7554192254120345,0.14924529809252296,3.4112374003030705,59.36047325393105,4.774773093695287
1760516135.9469185,-22.598299340259594,-0.4698255505139176,0.7608561520248287,0.12637558859789946,5.090977087463694,59.71435418272378,6.0339911976876195
1760516135.956601,-22.612676010920435,-0.49192091877425076,0.7660089889941218,0.10837017539923934,7.202942782446391,58.002987516179566,7.111598708962817
1760516135.9665773,-22.638897871350416,-0.5096187740441616,0.7711734744546735,0.0949200084991368,9.643746711434268,54.46823674752319,8.06194599054319
1760516135.976671,-22.67475612000021,-0.5223710235337857,0.7765577538636065,0.08515903234666825,12.328773763185252,49.46750496123796,8.960946590083584
1760516135.9865792,-22.716123189178948,-0.5297136479157064,0.7823089187948437,0.07782559974799319,15.204505915704221,43.439764919233326,9.89998182258186
1760516135.996638,-22.756870352029228,-0.531187883474163,0.7885739706248627,0.07147061114753239,18.254775252332042,36.86826213581543,10.979430012483327
1760516136.0066288,-22.788929659804758,-0.5263280838797982,0.7955785355490971,0.06468616835157563,21.500339143995603,30.2439299705537,12.302093131404616
1760516136.016662,-22.802544946435148,-0.5147281180141132,0.8037001898354471,0.0563276735115943,24.991887732609218,24.032706710390716,13.966518294071228
1760516136.0266263,-22.7867268761613,-0.4961737887419262,0.8135125830649762,0.04570353205018005,28.797290223109986,18.648741904906288,16.060032620707716
1760516136.036608,-22.72989039567737,-0.4708081083569064,0.8257823739240583,0.03270920842509269,32.98449970385082,14.434270477384946,18.651312100841693
1760516136.046691,-22.62062188926105,-0.4392866800452963,0.8414109866274706,0.017886390466350564,37.60202334829001,11.645986598951334,21.78250702299475
1760516136.0565784,-22.448508147832538,-0.4028833495416936,0.8613240286537774,0.002393845235367689,42.65920095917994,10.447157709223452,25.461279186930227
1760516136.0666854,-22.204961847546414,-0.36351722044643553,0.8863204864222094,-0.012115857341658804,48.10870278839122,10.904437435775097,29.653448885549444
1760516136.0767093,-21.883991788347274,-0.3236856582578472,0.9169003729346789,-0.023710737161113663,53.83365995967979,12.988295609151448,34.27720662827085
1760516136.08659,-21.482880210921696,-0.2863009488471224,0.9530934609913951,-0.030471462274438168,59.64169408475604,16.576158791934315,39.199975890031666
1760516136.0965898,-21.002735482166525,-0.2544393039401186,0.9943137362699206,-0.030833911760428795,65.26780287114732,21.457776545249025,44.239018239578144
1760516136.1066065,-20.44888306074941,-0.23101994550958654,1.0392639015426548,-0.023937751722827003,70.38751495695762,27.343024972888717,49.16677833288432
1760516136.116751,-19.831044488173582,-0.21844201646583122,1.0859111884046728,-0.00991988792918437,74.6408185492466,33.87316331103059,53.721771042799524
1760516136.1265905,-19.163242783625208,-0.21822175680174935,1.131551734763036,0.00991607867450121,77.66592835973825,40.63696866547181,57.625393300092185
1760516136.1366599,-18.463374909641143,-0.23068999415813501,1.172978221528658,0.033114560930379344,79.1399464096459,47.19260497790744,60.604214942088774
1760516136.1467006,-17.75241577259451,-0.25482004142217163,1.2067611777231082,0.05629861078090718,78.8212549022306,53.09448166984923,62.41605496212899
1760516136.1566968,-17.053261693576886,-0.2882448712412153,1.2296385629278164,0.07560221292744992,76.58687388049238,57.92254185953325,62.876801038926914
1760516136.1666548,-16.389272924119677,-0.3274853215730792,1.2389744819052377,0.0872365362263917,72.45790779487108,61.310541068859436,61.88401185877524
1760516136.1766093,-15.782620824619926,-0.3683602554916486,1.2332064942932195,0.08808187159955308,66.60791398286139,62.970364759605616,59.43329390505963
1760516136.1866176,-15.252577726347162,-0.40650601351861265,1.2121779648402866,0.0761906834606005,59.352047078236744,62.710637069378976,55.62440174840145
1760516136.1968458,-14.813904536986204,-0.43790983936577577,1.1772677628461015,0.05111772401476841,51.11821580929272,60.44887317576292,50.65578559466872
1760516136.2066035,-14.475493425761806,-0.4593624376106844,1.13127953600765,0.01403803256686949,42.404407383605516,56.21693235550783,44.80843893941965
1760516136.216649,-14.239412137015425,-0.4687570337526171,1.078111512296652,-0.03235329706822608,33.728314304011874,50.15982879676569,38.42172711596631
1760516136.226908,-14.10047573577968,-0.4652033183390919,1.022271604889432,-0.08414882002765892,25.576245246025614,42.52828846487083,31.864824638692028
1760516136.2366023,-14.046441859328342,-0.44897350412896614,0.9683234576568581,-0.13671617839035502,18.358029084517025,33.66568257782974,25.507305312737852
1760516136.2466316,-14.058881169252581,-0.4213347906814415,0.9203515271848104,-0.18530777306352259,12.37339047530901,23.989923955760087,19.691662269645064
1760516136.2566104,-14.114706673678668,-0.3843315508502894,0.8815232938211573,-0.22570102030809264,7.793325369442596,13.970677803409565,14.709627060202317
1760516136.266629,-14.18825307074925,-0.3405623941889916,0.8538058009765781,-0.25476058912606075,4.657641107534881,4.102186245544207,10.783486219997176
1760516136.276632,-14.253695386483782,-0.29296880028750133,0.837863611838396,-0.2708269203772285,2.8874361754214326,-5.127557407704668,8.05325115817201
1760516136.286603,-14.287512422979324,-0.24463082565329852,0.833132809153379,-0.27387168892415964,2.309296829008604,-13.269668317165124,6.57040028672564
1760516136.2967696,-14.270664555023744,-0.19855902300706357,0.8380394693758035,-0.26540550536320284,2.6867050233218968,-19.94670579082281,6.298747768643259
1760516136.30666,-14.190186934064526,-0.15747886638759617,0.8503151541181345,-0.24816530142268547,3.7537133738918405,-24.881343679057785,7.122567209196443
1760516136.3166163,-14.03999571192236,-0.12361831681889524,0.8673556847199017,-0.22564351925024248,5.246293276103391,-27.918161912569317,8.86133718564366
1760516136.3267012,-13.820839452161003,-0.09852223119992135,0.8865713449120455,-0.2015444965489226,6.927740753503295,-29.03570275341614,11.289548227159445
1760516136.3366122,-13.539463114243691,-0.08292248913363245,0.9056854648596001,-0.17926108706693666,8.60591323665367,-28.346666369074395,14.159225126253755
1760516136.3468695,-13.207158989147924,-0.0766878818114254,0.9229513990847532,-0.1614543258612083,10.141611486811787,-26.0852867658153,17.222440671178312
1760516136.3566623,-12.837944849905668,-0.07886510932232561,0.9372717216345025,-0.14979295440667734,11.448842270208633,-22.582546315445068,20.251237866778713
1760516136.3666863,-12.44663331598865,-0.08780629290024221,0.9482162401177041,-0.14487444769789562,12.488759730790004,-18.231746174541012,23.052972720736847
1760516136.376909,-12.04704222897847,-0.10136416714355806,0.9559473489806809,-0.14631340404887344,13.259638598512216,-13.44862603220363,25.479963054746218
1760516136.3866827,-11.650550829778316,-0.11712735888895531,0.9610722477693927,-0.15295490703647752,13.785263693745208,-8.631269948876728,27.43327657616562
1760516136.396623,-11.265141601999089,-0.13266685936002218,0.964450309375944,-0.16315619741031315,14.103733947167923,-4.125147910097201,28.86132146168797
1760516136.4066234,-10.89499540815834,-0.1457697752261605,0.966989027592161,-0.17508182160091473,14.258056015141714,-0.1977168425742047,29.754468260854186
1760516136.4166694,-10.540636977198776,-0.15464296295497384,0.9694627177318216,-0.18697042943273173,14.289232187029517,2.97484511141485,30.137174652473796
1760516136.4268463,-10.199563204278762,-0.15807278649781265,0.9723831362061666,-0.1973468308339578,14.231969399191664,5.308544321533783,30.059036948260893
1760516136.4368742,-9.867232814329707,-0.15552856094424455,0.9759394172688922,-0.2051657653722352,14.11271986263139,6.802079100940239,29.58594049114296
1760516136.4466088,-9.53825951247321,-0.14719979637331018,0.9800089289922979,-0.20988439366100042,13.949526522981797,7.520361956376573,28.792129555200216
1760516136.4566982,-9.207634382162441,-0.1339612940472467,0.9842266459841515,-0.21146881129646494,13.753074783979338,7.574918129290323,27.75366329836853
1760516136.4666321,-8.871802331428,-0.11726262596381018,0.9880919889749854,-0.21034377708605562,13.52840634668075,7.104532847587234,26.543437848024354
1760516136.4766252,-8.529428736184313,-0.09894116649900161,0.9910882833546865,-0.20729486899477947,13.276873583198922,6.258415115952922,25.227763784250453
1760516136.4866114,-8.181723782323765,-0.08096778400992728,0.9927899276169715,-0.20333311580291932,12.99804630163643,5.182893119982552,23.864377850650094
1760516136.496614,-7.832255523222631,-0.06515431358675612,0.9929364724744311,-0.19953691055569675,12.691393717212948,4.011689097273357,22.50170019694788
1760516136.506618,-7.486277933318876,-0.052873387840678396,0.9914616302230018,-0.19689225298586122,12.357649390944468,2.859349242306777,21.179093009574995
1760516136.516622,-7.149706476951272,-0.04485048263259913,0.9884774253318122,-0.19615554986620287,11.999831582580832,1.8173487617472748,19.92782262663525
1760516136.5266347,-6.827958288103054,-0.04107747019862327,0.9842255390380419,-0.1977610279638151,11.623930217611715,0.9525098743291067,18.77238735041352
1760516136.5366085,-6.524906660435306,-0.04086818569886376,0.9790147052435627,-0.2017867225007079,11.239274475438345,0.30744729424307754,17.731876319979527
1760516136.5467215,-6.242165242314919,-0.04303878017982679,0.9731623051160337,-0.20797982538924484,10.858567640887884,-0.09728810529254495,16.8210923732323
1760516136.556612,-5.978826837452992,-0.04616371877251019,0.9669522300770989,-0.21582854102228666,10.49754286120937,-0.2598257768622223,16.05128962988385
1760516136.566681,-5.73166898931277,-0.048845285538094994,0.9606143368262634,-0.22465996349739248,10.17418304306068,-0.19293765005170385,15.43049995584635
1760516136.5768433,-5.495741372943026,-0.049942362998116406,0.9543257952640195,-0.23374380283171864,9.90747763764427,0.08002732113588694,14.963511634678216
1760516136.5866036,-5.265190275981069,-0.048724034831040576,0.9482303356117717,-0.2423864703609742,9.71575832653185,0.5286974430179543,14.651608334585614
1760516136.596601,-5.034155441987166,-0.044934569801130204,0.9424669345559472,-0.2500050654133743,9.614746237982398,1.1183874211092981,14.492188443622176
1760516136.6066244,-4.797585586143032,-0.038772943980384965,0.9371962197091662,-0.25617488303601493,9.615526925722394,1.811890975779817,14.478376877755357
1760516136.6166017,-4.551849908198528,-0.03080122832711171,0.9326129968706462,-0.26064783864796515,9.722722524670235,2.5705273416271215,14.598721913010092
1760516136.6266406,-4.295066050177477,-0.021803488721687067,0.9289375840905146,-0.26334385242979885,9.933142053942545,3.354771648193615,14.8370462362207
1760516136.6366534,-4.027117621398773,-0.012622750098928713,0.9263857554085485,-0.264323096111744,10.235157615004116,4.124849363277166,15.17250127098539
1760516136.6466796,-3.7493941586915853,-0.004008027569397108,0.9251245284698727,-0.26375219919198356,10.608976022429104,4.841609498438801,15.579862412875503
1760516136.6566343,-3.4643422165327835,0.00349764085304664,0.925226400774336,-0.2618785259639711,11.027854581089194,5.467824583279078,16.030102328049512
1760516136.6666548,-3.174950127426177,0.009607426170542024,0.9266362101959907,-0.2590214383833327,11.460158935119896,5.969856359998135,16.49128325629026
1760516136.676674,-2.884288031972035,0.014275864121171622,0.9291615321061102,-0.2555797247775591,11.872015357892165,6.3194628603315275,16.929802479049293
1760516136.6868057,-2.595189814926496,0.017633954548018943,0.932490306001867,-0.2520445035555758,12.230219182227819,6.49545940137954,17.311994719511233
1760516136.6967347,-2.3101075387834102,0.019901997169601882,0.9362316113923678,-0.24900160356060325,12.505052388490444,6.484974527992632,17.606038044427038
1760516136.706766,-2.031112205966849,0.02131027392467514,0.9399705747463375,-0.24710926598327843,12.672718205791432,6.284121148763858,17.78403509914496
1760516136.7168503,-1.7599773859540786,0.02204886116461566,0.9433267244904698,-0.247044993177862,12.717177181516584,5.897996199407177,17.824068650585673
1760516136.7266204,-1.4982740646339996,0.022253165536220556,0.9460052196413715,-0.24942597859077967,12.631238224771572,5.340013236236736,17.711980937852047
1760516136.7366052,-1.2474211386180074,0.022018918344221764,0.9478320563897361,-0.2547172195384578,12.41681544489675,4.630667274047576,17.4426160566028
1760516136.7466056,-1.0086633097585544,0.021433813456972362,0.9487685994764893,-0.2631470983252476,12.084320229114697,3.795937461325165,17.020300845048673
1760516136.7566202,-0.7829754289997993,0.020612316622333763,0.9489062334320014,-0.2746495167695892,11.651232162543485,2.865634597700915,16.45842171514414
1760516136.7667189,-0.5709166993641368,0.019721583641500555,0.9484447878904807,-0.28884544536329393,11.139983462241066,1.872051870676503,15.778075032946132
1760516136.7766047,-0.3724824035663542,0.018986822741413816,0.9476577000437477,-0.30506943886449756,10.575386186199221,0.849221001577412,15.00591077335566
1760516136.7866106,-0.18701930725224006,0.018667075067055474,0.9468462377059365,-0.322440063990704,9.981908653315049,-0.16712386396382453,14.171427698241134
1760516136.7968798,-0.0132652103412489,0.01900303488213563,0.9462871217886879,-0.3399644305244168,9.381146424917823,-1.13908401002673,13.304086987517401
1760516136.8066106,0.1504658216861784,0.020153449966585767,0.9461808290816816,-0.3566569704568276,8.789819412099922,-2.0261501317157578,12.43066790181028
1760516136.8166242,0.3059855675832659,0.022143992112501037,0.946609269826919,-0.3716484461605342,8.218556121565264,-2.785430144512795,11.573269906315906
1760516136.8268473,0.4548960951790691,0.024847424096766463,0.9475111555049103,-0.3842665410364207,7.671607003331655,-3.3730938058439826,10.748254582114178
1760516136.8368444,0.5983064567982436,0.02800245682507985,0.9486815479948464,-0.39407954215538116,7.147481816601986,-3.747229501330204,9.966232558264023
1760516136.8466763,0.7366801135215797,0.03126759418405957,0.9497984362472084,-0.4009033810151167,6.640357968178955,-3.871864590127181,9.232982071349356
1760516136.8567436,0.8698589960407449,0.034297338717340045,0.9504736977744325,-0.40477787954729255,6.141985800405573,-3.72152822557868,8.55099089022781
1760516136.8666172,0.9972632172420577,0.03682177063923937,0.950319765006941,-0.4059215303554169,5.643749947826164,-3.285541382515088,7.921187919450637
1760516136.8767333,1.1182150318233668,0.03870826570556758,0.9490188191392361,-0.40467636856917766,5.13855060742856,-2.5712202568891342,7.3444055839578155
1760516136.8866396,1.2322957731771258,0.03998754301530259,0.9463801323603049,-0.4014550934643735,4.622237505091018,-1.6053384225734175,6.8221973889097685
1760516136.8966975,1.3396292270376582,0.040835675413880154,0.9423739264204285,-0.39670033268537935,4.094432988628689,-0.43345460873671454,6.3568085882037515
1760516136.9068162,1.4410029489968332,0.04151720980849506,0.9371360085735071,-0.39086034441722695,3.558692118809594,0.8829779315650235,5.950321667615442
1760516136.9166331,1.5377868175867015,0.04230703721916199,0.9309443618268533,-0.38437847631077043,3.022056524538998,2.2714951444917424,5.603219027726967
1760516136.9266405,1.6316681152771428,0.043414247913510735,0.9241743756793948,-0.377688697524013,2.494155657979472,3.6550104568557846,5.312766215480589
1760516136.9367576,1.7242706654386186,0.044927272418848314,0.9172421571967977,-0.3712087595276668,1.986070492075694,4.959043756338986,5.071678547395915
1760516136.946626,1.816742637830208,0.04678805102235068,0.910545739942558,-0.36532626495885157,1.5091784376022916,6.119046365490155,4.867484840373282
1760516136.956662,1.9093799818025865,0.04878980381544512,0.9044135102559728,-0.3603792257299008,1.0741458066915666,7.087050162757477,4.682870811375645
1760516136.9666166,2.001319229228578,0.05058673828290544,0.899068615416628,-0.3566373385326425,0.6901493217300335,7.836859742464604,4.497109349255154
1760516136.9767807,2.0903161158695585,0.05170975139919133,0.8946163309206536,-0.354289002239422,0.36432172490940723,8.367051235373253,4.288492306139282
1760516136.9866147,2.172640197803721,0.051594335829735265,0.8910569289621598,-0.35343302326397313,0.10135670543032226,8.70122576172266,4.037478859758988
1760516136.996674,2.24314080792091,0.04963244994860689,0.8883207564577283,-0.35407019067722284,-0.09681007926662076,8.885313821399334,3.7300766926560183
1760516137.0066254,2.295540653078828,0.045252137046561246,0.886317938897279,-0.3560938767369514,-0.23131754447132163,8.982145153457624,3.3608036753404207
1760516137.0167148,2.3229758463510923,0.03801438166371724,0.8849933732794408,-0.35928643552694295,-0.30675997055117976,9.063854861557754,2.9344958781853427
1760516137.0266404,2.3187438854915383,0.027708339791050453,0.8843769633814609,-0.363330666830589,-0.33170088179586693,9.202934188821828,2.4662905630113365
1760516137.0367088,2.277170142024391,0.014426748517145375,0.8846181746580656,-0.3678406033341585,-0.31936523317991905,9.46287481050824,1.9793443725521425
1760516137.046662,2.194467415785015,-0.001393357481882817,0.8859938827571201,-0.3724085505608612,-0.2884696656747143,9.889412800537896,1.500220719654536
1760516137.0567718,2.0694404366549293,-0.018977086200431995,0.8888811127444898,-0.37666024703977047,-0.26401747215905064,10.503323654440402,1.052332081110092
1760516137.0667162,1.9038868801202204,-0.03727173265047592,0.8936919993938355,-0.38030733997944655,-0.27776591500070297,11.29554382693402,0.6482780498933894
1760516137.076654,1.7025857395366402,-0.05505350992337302,0.9007755628790306,-0.3831853945316498,-0.3680188101008042,12.225170508142162,0.2823100994574213
1760516137.0869007,1.4728452181345768,-0.07105845997152803,0.9102987127446488,-0.3852672926749765,-0.5783976774633625,13.220752510375386,-0.07558534622343752
1760516137.0966847,1.2236824247608007,-0.08410702799776759,0.9221276243440543,-0.3866468308070945,-0.9552591667284237,14.18531408603901,-0.4824241733462287
1760516137.106655,0.9647902879964934,-0.0931967535748694,0.9357385587919482,-0.38749497230585717,-1.543461230172416,15.005634818462239,-1.0203958025155078
1760516137.11663,0.7054862837317785,-0.09755256132991455,0.950188726036995,-0.38799986574403217,-2.3803205787399704,15.566076121668907,-1.7895459112267296
1760516137.1266818,0.4538267338375199,-0.0966407779579663,0.9641683589433426,-0.38830786771031894,-3.4879321815582727,15.766328681542896,-2.894812158086197
1760516137.1367092,0.21602064280784783,-0.09016395367616054,0.976137619446839,-0.3884824435091045,-4.864505810494226,15.540936288639086,-4.428249477682598
1760516137.1466498,-0.00379487240060118,-0.07805675483118416,0.984534490557962,-0.3884908946628671,-6.475870770290782,14.876982249686684,-6.448351779406589
1760516137.1569471,-0.20343196364543661,-0.06049914853679267,0.9880272451175084,-0.388219010737059,-8.248668158387161,13.82567600917283,-8.959333477049965
1760516137.166665,-0.3822589881198549,-0.037951974749642264,0.9857761435716326,-0.38750350190753297,-10.066925605812182,12.504143478367704,-11.89390354698782
1760516137.1766667,-0.5406470774956942,-0.011204036707360053,0.977661576264836,-0.38616349465533106,-11.773669411797192,11.085433951851051,-15.10329886977342
1760516137.1868231,-0.6793679188219093,0.018594237924457413,0.9644306300642724,-0.38401101979738106,-13.178950907537473,9.777183162521938,-18.35802554421144
1760516137.196843,-0.7990346995809406,0.04993969539113489,0.9477150169482689,-0.38083119053661435,-14.075128990104938,8.79182411102983,-21.361818372674097
1760516137.2069888,-0.899654992663731,0.08104720883383577,0.9298870846308112,-0.3763425020586662,-14.25946481917605,8.312981547277952,-23.779772981828273
1760516137.216629,-0.9803533151957232,0.10997975690978151,0.9137505374760246,-0.3701667242345953,-13.563118431018252,8.463295807009805,-25.279540054267706
1760516137.2266228,-1.0393272625420618,0.1348100247352303,0.9021023058004723,-0.36184680709521205,-11.884640063215802,9.278415033932994,-25.58214095098001
1760516137.2366245,-1.0741125593295162,0.1537702120248458,0.8972409352899201,-0.35094520008491764,-9.225138942281635,10.69057683049997,-24.51672104578777
1760516137.2466333,-1.0822256221364372,0.1653504763245869,0.9005267259811335,-0.3372347495833766,-5.721438412916358,12.523507530722327,-22.071784736324453
1760516137.2566369,-1.062209676154772,0.16832739885691658,0.9121079299071014,-0.32096207468412324,-1.6725532134630003,14.49880578552357,-18.434527770345465
1760516137.2666278,-1.015031395400389,0.16173315505135266,0.930896343172404,-0.30311936332226946,2.4461869714777946,16.252967340689946,-14.010122278722458
1760516137.2769382,-0.9456735662286816,0.14480397425861916,0.9548000914980145,-0.2856152278618863,5.987678101592255,17.36387845574124,-9.414367453225926
1760516137.2866213,-0.8646703681213778,0.11695956842876351,0.981135885872067,-0.27122017565170653,8.16219275215031,17.385729668145782,-5.43587668725753
1760516137.2970848,-0.7892647695487219,0.07785348044727479,1.0070980538993315,-0.2632065210349493,8.095211000158601,15.891390224965505,-2.967616388038132
1760516137.30664,-0.7438526436745119,0.027505969982223766,1.0301731628608333,-0.2646961764349559,4.914427923344137,12.520823470686747,-2.9117601522338092
1760516137.316621,-0.7594217825668486,-0.033496402496124886,1.0484313819607884,-0.2778300513063793,-2.1386412797866035,7.032842513764448,-6.066091504708888
1760516137.3266938,-0.8717977042736696,-0.10377256340517206,1.060669742705522,-0.3029438913211824,-13.58307006316944,-0.6445964224197004,-13.004207001525463
1760516137.3366306,-1.1186761707628632,-0.18095240457271883,1.0664178208284627,-0.33796507707099643,-29.57564005114912,-10.373045802821002,-23.965108874961643
1760516137.3468027,-1.5356505820750004,-0.261602986518462,1.0658420177983547,-0.37823100446162583,-49.81223570857704,-21.781160464166746,-38.769825803051866
1760516137.357537,-2.1516976600093645,-0.34136784186198704,1.0595981892700888,-0.416867608517557,-73.47718198959001,-34.2721279409351,-56.78266713880092
1760516137.366667,-2.9848004030060777,-0.4153736380295293,1.0486811690366888,-0.4457546311799914,-99.26192010508217,-47.0693281247385,-76.93175405508893
1760516137.3768494,-4.038489226307685,-0.4788753143971984,1.0343043104532208,-0.4569559897307765,-125.46630645489934,-59.30132346273553,-97.79685965220328
1760516137.386695,-5.3000217932866684,-0.5280148913544476,1.0178167151528252,-0.44433866930789734,-150.18088183894278,-70.11524165430762,-117.76192988234837
1760516137.3967593,-6.74068649359865,-0.5605074133439654,1.000637504829415,-0.40498407232187034,-171.52747820805416,-78.79423711549153,-135.21533821559498
1760516137.4067292,-8.318326126548376,-0.5760714476113864,0.9841689499742808,-0.33997738101797986,-187.91391214698962,-84.84774225649987,-148.76538052348283
1760516137.4166336,-9.98170857225161,-0.5764902153992831,0.9696609266733833,-0.2543104992621174,-198.24717417764003,-88.0500149506428,-157.42773969908637
1760516137.426643,-11.675954073560872,-0.56529013013946,0.9580358847617716,-0.15592714027672894,-202.05820076900585,-88.42178622092075,-160.74364860281148
1760516137.4366417,-13.348018186489247,-0.547111659403543,0.9497148724805742,-0.05421898202933304,-199.51814707263853,-86.17080781060469,-158.80542371837035
1760516137.4466796,-14.951302304410103,-0.5268965415692097,0.9444867702719939,0.041602736042940784,-191.35697931929494,-81.61865796345354,-152.19262963359256
1760516137.4566345,-16.44876480048245,-0.5090283626531107,0.941445988584347,0.12389490293573464,-178.71576362377365,-75.13975915996592,-141.84420000698427
1760516137.4666343,-17.814298809182088,-0.4965571450828806,0.9390107138036016,0.18750512705497563,-162.96957331527264,-67.12769396745905,-128.9010601444608
1760516137.4767728,-19.032501582070495,-0.4906272527998079,0.9350275843502752,0.23014894891290988,-145.55237161728235,-57.98960668064819,-114.55090401876966
1760516137.4869838,-20.097215185272013,-0.49021548989403857,0.926962161859131,0.25227720629080763,-127.80479492533645,-48.15727365347624,-99.89724348174775
1760516137.4966428,-21.009347909382043,-0.4922615555281927,0.9121696103679808,0.25654625293176037,-110.85550302914537,-38.097175078264904,-85.86392874389767
1760516137.5066652,-21.774497432488623,-0.4922179354484281,0.8882434621101337,0.24704410385820197,-95.53973862518893,-28.30333522998312,-73.1374484042284
1760516137.5166557,-22.40081340656103,-0.4849569296064509,0.8534455316394967,0.2284410801561038,-82.35575043837362,-19.265279306444857,-62.14396907295616
1760516137.5267427,-22.89739219093042,-0.4658709555485186,0.8072027725736945,0.20522701425706555,-71.4592881913765,-11.416304308819441,-53.05603963013847
1760516137.5366342,-23.273329928742296,-0.43192773352523767,0.750595071660879,0.18115806487085728,-62.695657828978405,-5.0788332697615255,-45.82362920443331
1760516137.5466626,-23.53740876876299,-0.3824303469503438,0.6866683176195792,0.15896785356778573,-55.66573812239019,-0.4272349801767284,-40.22383932178212
1760516137.5566454,-23.698277489994222,-0.3192985606216568,0.6203648315618512,0.1403281491416543,-49.81723823458207,2.5186036192207104,-35.92236305261966
1760516137.566684,-23.764921539858825,-0.24681610737468496,0.5579465486375478,0.1260004674224298,-44.54765353111364,3.8688836285916395,-32.53823880927809
1760516137.5766442,-23.74720186095813,-0.17093037458562416,0.5059796303625159,0.11610438135983421,-39.30313296755593,3.8199884358236287,-29.70302757514528
1760516137.586666,-23.656272089972557,-0.09828854896337301,0.4701392738907788,0.11042779997633932,-33.6586953242839,2.607179586075552,-27.10696652557003
1760516137.5966613,-23.504743296912995,-0.035223448198787005,0.45417255582799604,0.10870999100543989,-27.369536218192195,0.46821014864317173,-24.52759333238878
1760516137.6066775,-23.30653535290109,0.01312025184893854,0.45929588056980214,0.11084132206863435,-20.38932509603082,-2.374059473614611,-21.83984062911992
1760516137.6168196,-23.076423417322204,0.043380980520366215,0.48414117727130573,0.11694669764922004,-12.857627429200935,-5.709779729391431,-19.009722362006595
1760516137.6271243,-22.82935167715782,0.054230151740848644,0.5251814078829208,0.12734686915869925,-5.0631688088669575,-9.327080441587391,-16.075927169720686
1760516137.6366916,-22.57963526814442,0.04628772271646875,0.5774481656469687,0.14241566645990608,2.608264915081875,-12.993002065843108,-13.124736953670963
1760516137.6466925,-22.340191168439762,0.02177422388249432,0.6353384662091559,0.16237045634126532,9.73250610395003,-16.439240520247974,-10.263724876906481
1760516137.6567721,-22.121921850429107,-0.01599797801686254,0.6933591016648007,0.18704934911876345,15.904482082305925,-19.359377218856707,-7.598819084810655
1760516137.666659,-21.933329305286644,-0.0631842498767185,0.7467189055589533,0.21573797027368524,20.78798407679882,-21.421186369119443,-5.217852377462019
1760516137.676899,-21.78037983208699,-0.1159196472618395,0.7917261627386405,0.24710199861780446,24.152753545904968,-22.29398573315067,-3.1819745660873755
1760516137.6866493,-21.66658851415124,-0.17071103071988664,0.8259832584297786,0.27925467885201577,25.895879631406455,-21.687221819237976,-1.5245355485470844
1760516137.6966567,-21.593257486055112,-0.22467266842922515,0.8483990901403425,0.30994965849510064,26.0467603048032,-19.393374258235863,-0.25552608225573736
1760516137.7066534,-21.55979070009272,-0.27560573531281946,0.8590594206802222,0.3368563627870292,24.756992743785965,-15.326664006019493,0.6312589546164166
1760516137.7166345,-21.56402208090041,-0.3219535825314644,0.8590033263978553,0.35785992366806185,22.278131191115722,-9.549338556218887,1.1512235795079548
1760516137.7267864,-21.60252692201075,-0.3626844175894727,0.849952356855916,0.3713296808263158,18.9311525057148,-2.2793961441691977,1.3242626898168581
1760516137.7366767,-21.6709218299083,-0.39715675525534216,0.8340321323234163,0.37631289469608775,15.071811640900156,6.122919680808152,1.1732640087546753
1760516137.7468014,-21.764178150872524,-0.4250114413871799,0.81351679266773,0.37262883112089823,11.05602089996145,15.188428627795833,0.7255663917459698
1760516137.7568433,-21.876968440468275,-0.44611363919930574,0.7906169203051487,0.3608585331962131,7.209015432855513,24.386974397612043,0.01626067763739896
1760516137.7668593,-22.00404150883104,-0.46054700586805003,0.7673227085681231,0.3422419074173036,3.801331225594642,33.18241533424801,-0.9082306850070561
1760516137.776779,-22.140595227057624,-0.4686456568790942,0.7453066832542461,0.3185032995864938,1.0335095802405387,41.08623341550014,-1.987865544715207
1760516137.7866414,-22.28260066548315,-0.4710388410691943,0.725883319540025,0.2916312382198931,-0.9698931330175368,47.70216446533992,-3.1491224640225917
1760516137.7966616,-22.427029993509716,-0.4686795032171561,0.7100154127839889,0.2636403493886451,-2.1576918687779334,52.7562728075354,-4.307968216633657
1760516137.8066769,-22.57195244623586,-0.4628328276815375,0.6983500791825447,0.2363442515044938,-2.5425447686747598,56.109604801626745,-5.375278873265266
1760516137.816676,-22.716483674769677,-0.45501237124631894,0.6912637163377706,0.21116650809433252,-2.186791737153019,57.75344232421786,-6.263790006815589
1760516137.8270776,-22.86059647968278,-0.44686291170104525,0.6888977339930188,0.18901155214170337,-1.1861307194855828,57.78981629138535,-6.8954103394433925
1760516137.8368268,-23.00481669046265,-0.4399968377748181,0.6911758129260303,0.17020885742936886,0.3465782308997008,56.4020214077205,-7.207720791982493
1760516137.846672,-23.149833542126895,-0.43579785991610726,0.6978061212462118,0.154532727490253,2.2955874000813954,53.82107698927267,-7.15858273641499
1760516137.8566675,-23.296054685710587,-0.4352166954034179,0.7082827902954685,0.14128932728814755,4.553535708619096,50.294058534412265,-6.727988816554043
1760516137.8667574,-23.443141193540836,-0.4385965208293313,0.7219046517505356,0.1294546072370058,7.029423709822075,46.058896557751645,-5.91668271425809
1760516137.8767729,-23.58957076076693,-0.4455717726621524,0.7378240862499822,0.11784299223685457,9.653639014143302,41.328050204776645,-4.741644753615924
1760516137.886731,-23.732290278832558,-0.45507328606839237,0.7551282003285912,0.1052864119982399,12.38072590464913,36.2812279279722,-3.2291463937310976
1760516137.896905,-23.866520689778426,-0.4654481939626086,0.7729442532221052,0.09080423232035761,15.190564127008376,31.065754004668612,-1.4065620649172634
1760516137.906821,-23.985762093750346,-0.4746768983503222,0.7905547450471114,0.07374599325514844,18.088302172398333,25.802510622996397,0.7055829374592925
1760516137.916904,-24.082018595356825,-0.4806520565849253,0.8075046621000087,0.0538920646532354,21.102959972773018,20.59537510877989,3.0997683038103623
1760516137.9266505,-24.14622829269839,-0.48147727894182635,0.8236832797060324,0.03150354180474511,24.284246791765355,15.542244862275469,5.784413265205874
1760516137.9366505,-24.168852665296725,-0.47574266167111395,0.8393654904313924,0.007320592835184032,27.696936997285206,10.745739371202804,8.782548378681025
1760516137.946767,-24.140558081039487,-0.46273805351100317,0.8552019651708173,-0.01748457753000027,31.41216394556702,6.321477780379483,12.125839732989256
1760516137.9567363,-24.05291414199613,-0.44257344308306307,0.8721526604793755,-0.04139026204091925,35.495283693159564,2.4017733949197764,15.84444252090059
1760516137.9667003,-23.899039711175334,-0.41619010159438863,0.8913646694437912,-0.06263395349698186,39.99059361054078,-0.8669555580718789,19.954037847569246
1760516137.9768221,-23.674144508401405,-0.38526461993523614,0.914003349337417,-0.07934168688770822,44.904152377315306,-3.3336719137948108,24.442071815978462
1760516137.9867387,-23.375936107206986,-0.3520255577234662,0.9410534681548021,-0.08967712785514848,50.187000034623615,-4.858236652765234,29.2555163486925
1760516137.9969342,-23.004882495057018,-0.3190134408359778,0.9731129621759019,-0.0920127587741587,55.72180424565828,-5.330643018945918,34.29237441135512
1760516138.006753,-22.56433418553158,-0.2888172971719254,1.0102053569141125,-0.08512510259931358,61.316030814485046,-4.690648986258204,39.39872437087286
1760516138.0166802,-22.060514885988123,-0.26381624712127305,1.0516381440744969,-0.06840906410938952,66.70411374307095,-2.9442316721241846,44.37244657000212
1760516138.026825,-21.502386544691667,-0.2459455857502933,1.095932937949309,-0.04209252893501577,71.55999559300682,-0.17384496993040646,48.97398753417283
1760516138.0367396,-20.901386766754865,-0.23649744851626664,1.1408483272281909,-0.007415987686223474,75.52011130846057,3.4594510004587327,52.943649671379106
1760516138.0466754,-20.271029320832636,-0.23596202201451896,1.1835081515524601,0.033269456947718094,78.2156149404936,7.722782262073288,56.02402762839845
1760516138.0567203,-19.626356675566164,-0.24392017927581622,1.2206375643243998,0.07653400672478355,79.31144204807961,12.327004154346962,57.98546579828179
1760516138.0666816,-18.98324104455289,-0.2590109776258062,1.2488968802085807,0.11806942784989802,78.54853271569608,16.94980930638665,58.65185739813809
1760516138.076785,-18.357549475277565,-0.2790089238693303,1.2652865465301246,0.15307300699410348,75.7841361605633,21.263896147630135,57.923737932944945
1760516138.086736,-17.764217089627035,-0.30104219091833057,1.2675741342469116,0.17679392172370909,71.02386734447397,24.96631568960867,55.79546836592273
1760516138.0966604,-17.216302325678296,-0.32195338371339716,1.2546715878294348,0.18517612376254675,64.43883189337589,27.804383358152595,52.36351970163847
1760516138.1066988,-16.724116719944526,-0.33875342346337106,1.226881597451733,0.1754934014361175,56.362533602564625,29.594086671121584,47.82371252471732
1760516138.1167955,-16.29452020122385,-0.34907046519887697,1.1859494311830938,0.14685770127753978,47.265665354456296,30.228765576933483,42.45683035822052
1760516138.1267402,-15.9304511630512,-0.3514803594909425,1.1349016639947114,0.10050003909272104,37.711354973698995,29.67831846418157,36.604029702268356
1760516138.1366663,-15.630728560022373,-0.3456370851878671,1.0777068717971474,0.03976614868277946,28.297395372023207,27.981314737475042,30.63532121301162
1760516138.1466734,-15.390134674656412,-0.33218624382820844,1.0188283640781406,-0.030183212776968768,19.594223863025395,25.23345016300357,24.9155364719958
1760516138.156677,-15.199771929776723,-0.31251124309089995,0.9627434618749671,-0.10293803344139901,12.087646774634111,21.57557530687601,19.772347763212018
1760516138.1666493,-15.047684802751716,-0.288402732603089,0.9134888635510938,-0.1716079452486922,6.1339000160451,17.183333384669563,15.470132478760519
1760516138.176671,-14.91973610863735,-0.2617447079486681,0.8742758015932104,-0.22969629662522617,1.9321893850670333,12.258824097937346,12.192115942898596
1760516138.1866648,-14.80070840882581,-0.23428133420541594,0.8472097226329878,-0.27195104519511454,-0.4830437165435909,7.023347795107961,10.031763446958358
1760516138.1968422,-14.67555853743201,-0.20748577655151526,0.8331421113429142,-0.2950549839638863,-1.2307636738238632,1.7097229589917822,8.99318208508776
1760516138.206859,-14.530698972383853,-0.18251605950632954,0.8316692549480234,-0.2980404884498219,-0.5560148739135289,-3.446967570662167,8.999441791799686
1760516138.2168956,-14.35514163743459,-0.16022462992148387,0.8412730149028271,-0.2823633163112683,1.2084528159419068,-8.220403105783108,9.907163306471988
1760516138.2266598,-14.141341040650229,-0.14118818340580655,0.8595776881120751,-0.2516302156889211,3.685817961971941,-12.405055853392906,11.525359440510234
1760516138.2367294,-13.885618337276664,-0.12573535262716568,0.8836815846078421,-0.21103128437081106,6.498372714663313,-15.827896232478253,13.63633479491923
1760516138.2466927,-13.58812150074256,-0.11396390615029497,0.9105152057432593,-0.1665722625064139,9.305398263958931,-18.35841870137917,16.016476953051022
1760516138.2566793,-13.252357003001915,-0.10575032406184011,0.9371793833909559,-0.12423004115378715,11.832165294260877,-19.915977849476796,18.45502140264386
1760516138.2667801,-12.884394158554983,-0.1007597088587169,0.961224382084075,-0.08916222654592616,13.887942046720637,-20.47385747931665,20.76930780487857
1760516138.276709,-12.49188059367234,-0.09846286576989977,0.9808425765521934,-0.06508649717834855,15.372322722938142,-20.0598317156354,22.815593350437908
1760516138.2866492,-12.08301332521129,-0.09816369398255605,0.9949610188498975,-0.053911466463902435,16.27053255046499,-18.753178706385103,24.495053182837825
1760516138.2966921,-11.665593423124399,-0.09903891845486518,1.0032345139734904,-0.055656194299507925,16.639566254813325,-16.67823642705042,25.755083859754283
1760516138.3067145,-11.246266753184758,-0.10019489670353977,1.0059536198301549,-0.06864908825862537,16.587969678756632,-13.994760586281021,26.586384614816257
1760516138.3168666,-10.830024690503384,-0.10074646372008485,1.0038937011380964,-0.08995450101443896,16.25262738696,-10.885648721274965,27.016542063305398
1760516138.3268774,-10.420001539141799,-0.09991361720334323,0.9981373787280694,-0.11594100166300621,15.775943251494377,-7.543015813397904,27.101041203637468
1760516138.3366678,-10.0175584779206,-0.09711845327577906,0.9899001666922709,-0.1428860374732673,15.286292526482487,-4.154008723441432,26.91279364136603
1760516138.3467808,-9.622602959353383,-0.09206166619019816,0.9803797245008932,-0.16751595063940422,14.883732223575059,-0.8879438667178223,26.53137908510051
1760516138.3567653,-9.234074472205196,-0.08476849660559267,0.9706395350141985,-0.18740757897755095,14.631911132918553,2.1137888048301323,26.03317945021237
1760516138.3667188,-8.85052529093664,-0.07560270125572194,0.9615315550985073,-0.20121362639232282,14.55613617205943,4.744094400115823,25.48341322278545
1760516138.3767507,-8.470714938619182,-0.0652413580325791,0.953657299005512,-0.2087031567812243,14.64677339179405,6.932546441321783,24.930767153207277
1760516138.3870378,-8.094115624596043,-0.05459462194096317,0.9473613155325491,-0.2106297028630404,14.866653690404208,8.64420591122654,24.4049305607388
1760516138.3966794,-7.72122045529935,-0.04466458614642101,0.9427481526412799,-0.20846127427170966,15.160912189841412,9.875850954479366,23.916938201668273
1760516138.4067347,-7.353583919866332,-0.03636688823665699,0.939716166531113,-0.2040301123246024,15.467675016789196,10.650778578047849,23.461884909169342
1760516138.416716,-6.993596871234434,-0.030363316080208185,0.938005757548545,-0.1991742064672925,15.728159773632338,11.013187172231094,23.023335212962873
1760516138.426667,-6.644067593429293,-0.026951609871362147,0.9372603838442289,-0.19543703753882294,15.895014460920612,11.022756531884506,22.57864294875779
1760516138.4368114,-6.307713172400049,-0.026032723828801153,0.9370946676842397,-0.19386875927338154,15.938037539357548,10.749592277300977,22.104422640725975
1760516138.4467995,-5.986657704475573,-0.027146839624086656,0.9371588415441391,-0.1949428758622697,15.846784856988405,10.269373755549147,21.581540735068792
1760516138.4568202,-5.682006937356604,-0.029555239716814737,0.9371878381640633,-0.19857917213571938,15.629982633651023,9.658458064431098,20.999154123121624
1760516138.4666827,-5.393545938167552,-0.032348010226108885,0.9370286090732761,-0.2042509500012192,15.312113382801728,8.988869456324304,20.357455451732033
1760516138.476814,-5.119594303561878,-0.03456614125188338,0.9366473574239642,-0.2111492313292833,14.927956421514486,8.323443998675415,19.66887537418421
1760516138.4867518,-4.857042274104496,-0.03532813443106133,0.9361227280891937,-0.21837243527292458,14.516146177681561,7.71170659330353,18.957577584634986
1760516138.4969158,-4.6015711625891385,-0.03394536647018741,0.9356289108918744,-0.2251068553749088,14.112881001805361,7.187140186310734,18.257214314762262
1760516138.5067854,-4.348037806469466,-0.030008564124583977,0.9354087897362825,-0.23076718244682917,13.746761244006079,6.766303663993019,17.60710912712533
1760516138.5168545,-4.0909863007657306,-0.023435417450239276,0.935737372936549,-0.2350793039397682,13.435414986372999,6.4498599479901015,17.04727139029723
1760516138.5266945,-3.8252415908240183,-0.014479001200828793,0.9368790344476957,-0.23810255126123744,13.184172807696733,6.225160605979998,16.61286101567036
1760516138.536687,-3.546531084947885,-0.0037006349053501416,0.9390442664792171,-0.24019828095001453,12.986668928787237,6.069751057379555,16.328853718043014
1760516138.5466816,-3.2520697084408767,0.008089333990582327,0.9423513938123992,-0.2419561094860957,12.826950932806756,5.955094184579985,16.20567241540973
1760516138.556768,-2.941036275236804,0.01991853380879379,0.9467977953764382,-0.24409172133348359,12.682524386329455,5.849960118371644,16.23644349871558
1760516138.5668342,-2.6148723184221763,0.03075942592915372,0.9522446997941805,-0.24733254320491993,12.527750184192776,5.72322136222714,16.396322471484524
1760516138.5769255,-2.2773519035065504,0.03964347446670917,0.9584188373459172,-0.25230874169663037,12.337113869882998,5.546099202401252,16.644043221931252
1760516138.5867562,-1.9343982752683813,0.0457680347339536,0.9649321582831385,-0.25946540187209516,12.088034171272067,5.294098705883649,16.92552916113744
1760516138.5967693,-1.5936521029781874,0.04858356794212317,0.9713178757662608,-0.2690073141073101,11.763012080020877,4.9488728337140575,17.17912448540534
1760516138.606773,-1.2638221958321891,0.04785292516059374,0.977078852142725,-0.2808818716557564,11.351010172831646,4.500096885608902,17.341806983166368
1760516138.6167693,-0.9538752249551126,0.04367715539051337,0.9817437134858857,-0.29479937687126634,10.848004959112679,3.9472136215133204,17.35564443993033
1760516138.6266909,-0.6721472965247359,0.03648439193349504,0.9849262128191755,-0.31028397696430404,10.256711813690725,3.300737098338723,17.17374825960269
1760516138.6369398,-0.42547889810544137,0.026984208032510865,0.986382419838472,-0.32674222935043806,9.585571754971774,2.582752103925743,16.765051355607344
1760516138.6467044,-0.2184748463339495,0.016099099633157598,0.9860569597812753,-0.34353084179029925,8.84720348251767,1.826338131950115,16.117383719499987
1760516138.6568491,-0.05297503331252671,0.004887854055874151,0.9841050865432519,-0.36000529584881374,8.056624224770554,1.0738421033421626,15.2385258708075
1760516138.6666877,0.07219352797130453,-0.005535185420093353,0.9808766660443302,-0.3755416368544466,7.229587393036289,0.3741241645496777,14.15516801516855
1760516138.676702,0.161121028971345,-0.014095823744766013,0.9768557920553445,-0.3895399665465786,6.381348237820884,-0.22099098196524888,12.909961395765045
1760516138.6867027,0.2203319944408109,-0.019881434449099594,0.9725645586134102,-0.4014276228285726,5.526052530168911,-0.6608217421093804,11.557083753181676
1760516138.6967769,0.25792181136342657,-0.022280575101835166,0.968453869428194,-0.4106766933188066,4.676783102764592,-0.9002795618300481,10.156920629187457
1760516138.7067635,0.2823966304833963,-0.021113421741737286,0.9648100797410192,-0.4168400574741894,3.846148616381418,-0.904390876995955,8.7705557463223
1760516138.7167108,0.3013777999345985,-0.01671913286537154,0.9617011764227686,-0.41960052679930754,3.0471934405920935,-0.6524867676084191,7.4547396153419845
1760516138.7268913,0.32037919672044307,-0.009974286726268147,0.9589733116641487,-0.41882213224955483,2.2943430245805776,-0.14152310969620277,6.25786196002764
1760516138.7368078,0.34186599688308444,-0.0022325409803988948,0.9562939330002178,-0.41459119292467456,1.60405678558059,0.612045374723667,5.2172203297789235
1760516138.7466962,0.3647584260787468,0.004808096577651163,0.9532276941222096,-0.4072365309960544,0.9948459206400818,1.5723245858884027,4.357610746538377
1760516138.7567782,0.38447090768960157,0.009293078159848226,0.94932895919074,-0.3973223193875967,0.486357614028902,2.6862622571583676,3.691027535748507
1760516138.7667558,0.3934943548137633,0.009431712710705281,0.9442380525551323,-0.38561325178424416,0.09735403684390036,3.888156364500621,3.217095914509412
1760516138.7769885,0.38244874649063454,0.0037253969506771136,0.9377721827000127,-0.3730183396388329,-0.1573798121436037,5.106048299904453,2.9238048348344026
1760516138.7867026,0.3414636821389741,-0.008821502824122399,0.9300022371433793,-0.3605230527679819,-0.27091089552317626,6.269292871593363,2.788174029746623
1760516138.7967875,0.2616961005563253,-0.028531409878116573,0.9213036123299526,-0.3491174718625798,-0.24826571432923,7.316315064814318,2.776661171212769
1760516138.8067007,0.13677176761197452,-0.054944050658652085,0.9123665457042298,-0.3397228968670593,-0.1099959027849342,8.201470031552818,2.845342937370189
1760516138.8167655,-0.036061827539897715,-0.08678517550456584,0.9041535657350047,-0.3331163198696304,0.10571350806770197,8.900047139528848,2.9401285726464925
1760516138.8269653,-0.2552611455566705,-0.12202796448643752,0.897801233953552,-0.3298546347224078,0.3433044161004682,9.410731204660294,2.997438911289926
1760516138.8366907,-0.5149305764234141,-0.15805405350270751,0.8944785743527821,-0.33020604306633194,0.5331771993010248,9.755143701255598,2.945876020944868
1760516138.8467436,-0.8054349617608847,-0.1919057523223918,0.8952289273559151,-0.33409908801084637,0.5983581799181359,9.974367880620182,2.70939552080548
1760516138.8568108,-1.1146061193784609,-0.2206020414236095,0.9008273670945831,-0.3410973284928308,0.4641440232653268,10.122631517484718,2.2123508777289245
1760516138.8667102,-1.4293425170305518,-0.24147823727081236,0.9116787197883155,-0.35040269783560013,0.06966787826052044,10.258634848398048,1.3864805927665935
1760516138.8767579,-1.7373201738251125,-0.25250677978355174,0.9277656987575862,-0.360886983673041,-0.6202977447650845,10.435365705028797,0.17945688773948745
1760516138.8867228,-2.028522517925009,-0.25255593345104915,0.9486409729461326,-0.3711483894537782,-1.60543147115718,10.68952818106752,-1.4359203153973745
1760516138.8967745,-2.2963468659452895,-0.2415334241740129,0.9734472162708879,-0.3795855513315434,-2.8441394925458416,11.031792873512831,-3.4532820242122333
1760516138.9070325,-2.5381271719674983,-0.22035082079584464,1.0009464533879031,-0.3844743704853293,-4.254099481004757,11.438934881097921,-5.826706713181379
1760516138.9169407,-2.755007885633191,-0.1906651487024577,1.0295423167125015,-0.38402996797209227,-5.720518151333756,11.848655372179989,-8.469008506423775
1760516138.9267023,-2.9512101894036338,-0.15443181843472126,1.0572835660173892,-0.37644542003731024,-7.112526735519644,12.15759985548811,-11.256054648352778
1760516138.9367094,-3.132850236950945,-0.11340646539683888,1.081843202847415,-0.35992042559515347,-8.30686068258629,12.222901734589803,-14.038588648988851
1760516138.9467158,-3.3065839618590953,-0.06878688307867988,1.1004787241816785,-0.3327136648701618,-9.216616640512349,11.867606684096302,-16.662316401596126
1760516138.9569886,-3.47842542825605,-0.021139973061233254,1.110002101523975,-0.2932553412536261,-9.821624421858107,10.890587005251284,-18.99566946316362
1760516138.966697,-3.6530686092166684,0.029365648144404705,1.1068180326657935,-0.240334442210799,-10.195953056703587,9.081777284059294,-20.962766383575126
1760516138.9767992,-3.8339184580844674,0.0825325975090532,1.0871050394855408,-0.17334053234657779,-10.527430117408594,6.243211631741638,-22.57702214939819
1760516138.986689,-4.023841637949384,0.1377002451123723,1.0471964066492239,-0.09251461884800773,-11.123985385459672,2.2149606694024047,-23.969110460408412
1760516138.9967792,-4.2264474223647515,0.19348846863119548,0.9841636482075763,0.0008419095007482476,-12.402369812193411,-3.097150298738418,-25.40199939416687
1760516139.0069594,-4.447560589704183,0.2478403117937081,0.896530094519097,0.10424477189978165,-14.856518750070457,-9.697134474753884,-27.265850979273374
1760516139.0169158,-4.696476432890447,0.29837193811817414,0.7849809834022728,0.21401982243989068,-19.00537741534251,-17.48312013058167,-30.046937250707266
1760516139.0267162,-4.986602375444547,0.34289518867248436,0.6529261290355223,0.32540639267866833,-25.32285886812536,-26.24357444636001,-34.26778973997689
1760516139.0367153,-5.335192768690123,0.3798638048216063,0.5068090237575015,0.43272854956187146,-34.155514268860095,-35.66530863296992,-40.4011291737826
1760516139.046705,-5.762057580875122,0.4085113699750159,0.3560847881986886,0.5296135927540676,-45.637151393768455,-45.350746572624146,-48.767566622849735
1760516139.056721,-6.2873346155793834,0.42862706890909086,0.21276640343361525,0.6093390250321079,-59.61460451731439,-54.842261665939105,-59.43476492433783
1760516139.0667043,-6.9286178787563975,0.4401296507138514,0.09041659935827856,0.665467552214631,-75.60353204567264,-63.653471079082884,-72.14077200908119
1760516139.0767033,-7.697904415519932,0.44268469308496866,0.0025442657759128374,0.6928471972050622,-92.79384056494314,-71.30871028516236,-86.26442076267163
1760516139.0866988,-8.598936337019937,0.43552351766170433,-0.03942137121553388,0.6888048639313378,-110.11786988234047,-77.39058146495466,-100.86016830407364
1760516139.097001,-9.62553598882143,0.41747137759037345,-0.028147628375044045,0.6541083467556663,-126.379882537707,-81.5911253283127,-114.76314444185624
1760516139.1068492,-10.761404686640418,0.38713646807711155,0.03816008833759354,0.5932432382583496,-140.42531134489778,-83.75625384639466,-126.75293844544649
1760516139.1167085,-11.981549842311257,0.34328390760018446,0.1553235305805709,0.5138362299235945,-151.31067745095933,-83.9092273000589,-135.74522461405707
1760516139.1267095,-13.255084792132314,0.2854481893294896,0.313821796191505,0.4254418416666094,-158.4311460108173,-82.2412430891821,-140.96648099618852
1760516139.1367066,-14.548771073915086,0.21467787084199064,0.5001827033494615,0.338085696447497,-161.57678536288006,-79.06630106817272,-142.0677052465661
1760516139.1469886,-15.83050846234919,0.1340922499270392,0.6987039389094982,0.26088234752115447,-160.9127859089344,-74.7496649764272,-139.15101728997286
1760516139.1567352,-17.072078675969376,0.04891602643531507,0.8931534004281423,0.2009111732013732,-156.90033297328802,-69.62929642036472,-132.71072687628734
1760516139.1666992,-18.2507367315015,-0.03411555235710732,1.0682332312748235,0.1624568598486319,-150.1862543986793,-63.95349245621885,-123.5143348447596
1760516139.176729,-19.349582868286497,-0.10781408827904781,1.2107116391549657,0.14667355465985596,-141.49039586034348,-57.85346436977201,-112.45955070749999
1760516139.18669,-20.35692782775697,-0.1657475872499516,1.3102371732650155,0.15167987897428947,-131.51236357592134,-51.358055224690766,-100.44043138168186
1760516139.1967294,-21.265032964626023,-0.2033014296722476,1.35993584005694,0.17304420186839553,-120.86798551020019,-44.44394574258763,-88.24485587379007
1760516139.206729,-22.06865684821878,-0.21838027812858088,1.3569135406202077,0.20458266908622544,-110.05538144924988,-37.103659015663276,-76.49274007966854
1760516139.2168067,-22.763789388778378,-0.21164735554957442,1.3027245413875934,0.23935993694087943,-99.44405723100687,-29.408415870241683,-65.61341016738466
1760516139.226739,-23.346834478966482,-0.18629561260405164,1.2037262851000603,0.27075309548125254,-89.27861476217831,-21.544401963816647,-55.85320476131069
1760516139.2368813,-23.814352019507258,-0.1474336269127177,1.0710577415306926,0.29341875212566293,-79.69050957249242,-13.809128684794462,-47.30134478096415
1760516139.2467146,-24.163331138434774,-0.1012433999851451,0.9198627552888612,0.3040002318333199,-70.71488825900836,-6.56791019495271,-39.92324705318359
1760516139.2567585,-24.39186997207922,-0.05409789199541598,0.7675132580459259,0.30144464519365427,-62.312541478997964,-0.18524167935118574,-33.59454950860084
1760516139.2667239,-24.500091265474104,-0.011789480888304614,0.6310269565313552,0.2868864676386438,-54.39755876318648,5.044786286282964,-28.133685624135335
1760516139.2768092,-24.491107733882927,0.02105081401000517,0.524349855191515,0.26317321348104933,-46.86921606827131,8.94704430287544,-23.333243105832054
1760516139.2868047,-24.371843242769696,0.041312516415858265,0.4562997628226398,0.23419385773126722,-39.64368267074373,11.483199708003342,-18.98984445919915
1760516139.2968316,-24.15351916928369,0.04753145942843228,0.4296751329591476,0.2041782767654438,-32.679516792853825,12.742782499006854,-14.930586113159356
1760516139.3067386,-23.85165193936312,0.03979387591175883,0.4415897800050936,0.17708778636471634,-25.991781394625473,12.918430879576876,-11.033209644884945
1760516139.3167155,-23.485483234972854,0.01947086776209412,0.48474921214526173,0.1561601374968717,-19.652595028097146,12.275559308191111,-7.237698867342664
1760516139.3268185,-23.076865886523034,-0.011137443167390642,0.5492196723170863,0.14362965071441017,-13.779574471232072,11.122291922601688,-3.548264491732177
1760516139.3368006,-22.648741484905333,-0.0491818303060148,0.6242465329600696,0.1406132920966094,-8.516212796980172,9.781670114021345,-0.026056537325864482
1760516139.346705,-22.22344495220743,-0.09163671237609768,0.699799695786584,0.1471349080671263,-4.008943792780543,8.56662885358738,3.225751885398279
1760516139.3567846,-21.821116806058903,-0.13565090036557245,0.7676767385034557,0.16225432316850324,-0.3849515112463602,7.758381597822345,6.081699462830453
1760516139.3667164,-21.458469893407113,-0.1788500225562668,0.8221201086346415,0.1842704510466889,2.2663538099898792,7.589259993195483,8.415055818794896
1760516139.3767247,-21.148054904991717,-0.2195492418376688,0.8599890917697222,0.21096878349511147,3.906346398231169,8.230913821611358,10.11669252527155
1760516139.3867333,-20.898039605087664,-0.25683804713994834,0.8805763583722347,0.23988229475909056,4.553796433017813,9.788042469161503,11.109325141620442
1760516139.3967943,-20.712411888717536,-0.2905235221917298,0.8851787394556879,0.26853649839589666,4.28503818479653,12.29689560986532,11.356019505944545
1760516139.4067304,-20.59147040077705,-0.3209535782828696,0.876530258671999,0.29465641952254584,3.228286357907684,15.727171470621462,10.863107098015263
1760516139.416916,-20.532475889932616,-0.3487698525596214,0.8581916072458781,0.3163231659201238,1.5530959929789663,19.985998402448132,9.678454628086538
1760516139.4269314,-20.530372353707754,-0.37464959617160126,0.8339717012839069,0.33207778776027874,-0.5437815334443783,24.9233500436473,7.886347109165049
1760516139.436753,-20.57852063249861,-0.3990883253072294,0.8074384741583855,0.340977551708563,-2.854671355895544,30.339088667396503,5.600213356420327
1760516139.4467947,-20.669406423558033,-0.42225885516194545,0.781558559014407,0.3426124436487563,-5.177663730853043,35.99234831769038,2.9542211450446914
1760516139.456991,-20.795291855945347,-0.44396411254873996,0.7584868181140662,0.33708825277451826,-7.331826134528507,41.61391491383497,0.09451690375573865
1760516139.4671314,-20.94878213106257,-0.4636835320336804,0.7395057664817893,0.3249799389185556,-9.169110627713104,46.92174009895834,-2.829360373083796
1760516139.4768047,-21.12328212383825,-0.48069683596009,0.7250943979923481,0.3072577632105758,-10.581568659984919,51.63897728412081,-5.67255932091119
1760516139.4869738,-21.31332369043926,-0.4942554751965031,0.715090062106017,0.285189753354077,-11.503239224925819,55.513149388448994,-8.302253335158673
1760516139.4967954,-21.51475111878169,-0.5037633922601135,0.7088993976737135,0.2602266585503707,-11.906948019112285,58.33445412494364,-10.60396179415833
1760516139.5068703,-21.72475820648293,-0.508928317532352,0.7057160689186577,0.2338778738569845,-11.797064495407975,59.95100453197475,-12.486482109728918
1760516139.5167153,-21.941775889855347,-0.5098533520658055,0.7047120615087649,0.2075877746571044,-11.19987689971249,60.279068055573816,-13.885017544101368
1760516139.5267055,-22.165215735930627,-0.5070534674791497,0.7051815411629777,0.1826220130070306,-10.15354113683237,59.306990935366585,-14.762184944166007
1760516139.5367908,-22.395084559705644,-0.5013982634093609,0.7066284143295105,0.15997357698888137,-8.699450946901703,57.092303235913874,-15.106813905675763
1760516139.5469089,-22.631500275051163,-0.4939958905213127,0.7087988324893238,0.14029847101273332,-6.87637547115175,53.75237879455949,-14.930721350642559
1760516139.5570114,-22.874156593062395,-0.48604018270515126,0.7116668852582319,0.12388920588526603,-4.7179450785168155,49.44991600491482,-14.263877062677242
1760516139.5667875,-23.12179949172844,-0.47864443106393517,0.7153855968104355,0.11068976979481313,-2.25323590978319,44.37534339672284,-13.148523857135391
1760516139.5768123,-23.371786388098965,-0.4726837943344782,0.7202167239063202,0.10034888726522415,0.4905037756323854,38.72888630573334,-11.632881001358305
1760516139.586707,-23.61979553306357,-0.4686656986377714,0.7264523152886732,0.09230147155212827,3.4844008732961744,32.70523171943829,-9.76506731095097
1760516139.5967717,-23.85973672060002,-0.4666440008167661,0.7343395550871432,0.08586393748368348,6.6953391746973585,26.48332276907994,-7.587854366212822
1760516139.6067214,-24.083887938277737,-0.46618892401577783,0.7440199116785933,0.08032828107167232,10.08554154457776,20.222791467326285,-5.134779477664851
1760516139.6167269,-24.283252417735582,-0.46642141741466997,0.7554948660800274,0.07504170829403987,13.615185527782454,14.067085211630749,-2.4279663817520536
1760516139.6267104,-24.44810060226634,-0.4661154244683941,0.76863123519327,0.06946331964592753,17.24806477899779,8.151806410842447,0.5222557814313566
1760516139.6369069,-24.568631335117654,-0.4638608423611361,0.7832145911153053,0.0631976874863026,20.959326001184305,2.6155581963386085,3.7160586340901367
1760516139.6467917,-24.635659906600594,-0.4582656625259675,0.7990461910829891,0.05601410529363597,24.743379485601036,-2.390022111370464,7.161353504498874
1760516139.6567757,-24.64123166557042,-0.4481669205480201,0.8160603693368759,0.047863612879901915,28.619473614054,-6.6942327527215815,10.869769250536995
1760516139.6667044,-24.579080669403197,-0.4328221652180751,0.8344255621752471,0.03890117647003567,32.63237158855561,-10.107706376091333,14.851574370211388
1760516139.67688,-24.44489779034559,-0.4120615920285713,0.8545918933872207,0.029511592827943585,36.84615365460138,-12.430521260635976,19.10976172468991
1760516139.6867442,-24.23642323062754,-0.38638794432920964,0.877260985159958,0.020329822652708628,41.33033388002724,-13.468055395406404,23.633524394164183
1760516139.6968327,-23.95341687028249,-0.35701303713631033,0.9032718050051262,0.012241549377502025,46.139104780579224,-13.05340557529895,28.391405445054055
1760516139.706741,-23.597575912112536,-0.32581771556843586,0.9334138672589568,0.006347613021883577,51.286373687502795,-11.074041076085855,33.324588037091495
1760516139.7168381,-23.17246071382944,-0.2952216737531461,0.9681944745999785,0.003876129165757574,56.72090919638759,-7.499230431686353,38.34113962743441
1760516139.7267137,-22.683462018995147,-0.267956480980384,1.007599404449322,0.006029940931067296,62.3068594206597,-2.403791144880591,43.31245399460063
1760516139.73678,-22.137806239111672,-0.2467507514330821,1.0508940217133338,0.01376853300104758,67.81478576633569,4.016768613315836,48.07344385361625
1760516139.746744,-21.544561376728538,-0.23395764285515522,1.0965109479201836,0.027544785513921487,72.92715680429946,11.44418053708962,52.42797935474267
1760516139.7568338,-20.91458438520006,-0.23117584963159277,1.142060226038927,0.04704220774331693,77.2601990461818,19.45127293688329,56.16048975832286
1760516139.7667305,-20.260346638424274,-0.23892826454014493,1.1844807742563535,0.07097603960390383,80.40140703824547,27.532104630942598,59.05358279319707
1760516139.7767859,-19.595587816176927,-0.256462577914658,1.2203310569257566,0.09702352091778929,81.95916740161924,35.145891837936105,60.910215013363285
1760516139.7867124,-18.93477687453316,-0.2817268775549689,1.2461939389474996,0.12193335749330522,81.6181923463393,41.769594410619725,61.577687868812916
1760516139.796739,-18.29239745871737,-0.3115539647324626,1.259146048568419,0.14183425247205686,79.19229149832644,46.95192511511411,60.96985957753035
1760516139.806921,-17.682116686266635,-0.3420576767664352,1.2572182885115668,0.15272141798394115,74.66511213538922,50.36040991712372,59.08371350244176
1760516139.8167238,-17.115928875759852,-0.3691979463234166,1.2397600557373956,0.15105584906018707,68.21045763610203,51.81351741934563,56.00699747832182
1760516139.8267143,-16.60337701640974,-0.3894152851518409,1.2076273485158202,0.1343758541885943,60.18682439276573,51.29218273873942,51.915080049363524
1760516139.8367407,-16.150938845107046,-0.4001938582464047,1.1631491569851073,0.10180658285884008,51.10537480049954,48.92906188823726,47.057205690642725
1760516139.8467088,-15.761627855583573,-0.40041371305410933,1.1098773287419232,0.05436622646755029,41.575580286309886,44.978584511347435,41.73438047482061
1760516139.8567986,-15.434819198712871,-0.3904074204415293,1.0521721058308198,-0.004999146737786534,32.23691886912985,39.774892801748585,36.27248479114575
1760516139.8667722,-15.166283966065702,-0.3717242912496355,0.9947010209440813,-0.07167723454190847,23.687320260613554,33.68678609961131,30.99451090648911
1760516139.8767908,-14.948411833382355,-0.3466874745057297,0.9419288621805625,-0.1399260036796596,16.419155246210718,27.078221562049894,26.195201487042755
1760516139.8867629,-14.770617725446336,-0.31787432011193845,0.8976611693939219,-0.20361515686775639,10.771684865342703,20.280072234655155,22.120288809242812
1760516139.896789,-14.619946541558619,-0.2876494483940261,0.8646866622198023,-0.25705923118335966,6.905641161485332,13.574912605798053,18.951471822909195
1760516139.9067717,-14.481886979720667,-0.25784108137207257,0.8445505773160611,-0.29580217079010773,4.801773539867424,7.193111019433048,16.797484585236052
1760516139.9168475,-14.341366055629177,-0.22959263040927752,0.8374777710583767,-0.31721394491247185,4.28146061347842,1.3165095898189054,15.691136602453675
1760516139.926755,-14.18383341277493,-0.2033688201193522,0.8424473917533352,-0.3207923068642259,5.044440055431296,-3.914380797598678,15.591943673789341
1760516139.9367402,-13.996297228503739,-0.1790693510506809,0.8574012148146594,-0.3081214846884412,6.716801470681278,-8.39300424088403,16.3937975603327
1760516139.94671,-13.768173671884082,-0.1562041816815268,0.8795508509858195,-0.2825092588458492,8.901811432286095,-12.041421604828976,17.936948166881955
1760516139.9567473,-13.491859779475002,-0.13409729827926448,0.9057392740743593,-0.24838607082641234,11.2267482703178,-14.80814551266317,20.023340477665826
1760516139.966719,-13.163007787736431,-0.11209476951210255,0.932809980278381,-0.21059043086852286,13.380353543864215,-16.669260032269417,22.43406890546095
1760516139.97675,-12.780534731799527,-0.08975271276908234,0.9579409709200173,-0.1736763836122726,15.137385596529683,-17.631909486586725,24.947448215310096
1760516139.9868717,-12.346425907276842,-0.06697618150764667,0.9789090260211247,-0.14135993546393225,16.368821928245506,-17.73832348787537,27.356052561318382
1760516139.9970284,-11.865386925825733,-0.04408044357521376,0.99426086898493,-0.1161789675930684,17.03831003804317,-17.068039134317118,29.4811370509903
1760516140.006749,-11.344383666801383,-0.021758834917907015,1.0033798609013342,-0.09938921886441843,17.187301363216395,-15.736175070101703,31.18316770301983
1760516140.0168517,-10.792099585632847,-0.0009645356080615548,1.0064480899628256,-0.09107183667942358,16.91265980276985,-13.886570338641178,32.36771547611304
1760516140.026729,-10.218340758740585,0.017263376259728562,1.0043136740281013,-0.09039428093153183,16.34117906716784,-11.680088886132696,32.98663494206918
1760516140.0368416,-9.633424675700036,0.03198692016846976,0.9982828368462022,-0.09594931285308549,15.605272778547922,-9.279932359567429,33.03511433005788
1760516140.0467181,-9.04759100372263,0.04252787258778963,0.9898673332350976,-0.10609754502935961,14.82321208899838,-6.836838961279573,32.54569225414195
1760516140.0568414,-8.470465306837545,0.04856998771097921,0.9805288617364961,-0.11925456407073465,14.085938187459881,-4.477168704812415,31.58057015006273
1760516140.0668244,-7.910587041032618,0.050198897032063386,0.9714668679198237,-0.1340856751049409,13.45101742794194,-2.2960402268399855,30.223479928244085
1760516140.0768414,-7.374989266025246,0.04789437050664379,0.9634871206283507,-0.14959314415740868,12.943057437899228,-0.35622301885695384,28.572052101260475
1760516140.0868244,-6.868810674675377,0.04249361479339119,0.9569659352274719,-0.16510180771895688,12.559060827950951,1.3080566904667166,26.73118792262031
1760516140.0968814,-6.3949442914419485,0.03513134921791977,0.9518994143309905,-0.18016866657274147,12.276796662318386,2.6843454681718537,24.807505934261115
1760516140.1067963,-5.953767531563246,0.02715031242468948,0.948010226454716,-0.1944558339351398,12.06424591659697,3.774541795692984,22.904622611829147
1760516140.1168187,-5.543025875684005,0.01997819295465675,0.9448797959974365,-0.20760958482216985,11.888418510970892,4.588766830893309,21.118902232293685
1760516140.1267302,-5.157939912264173,0.014979194603106202,0.9420776012836819,-0.2191815520225169,11.722250480895001,5.141612156012265,19.535371029863832
1760516140.136775,-4.791575308047279,0.013299416608456911,0.9392667692274673,-0.2286141180880346,11.548796946943718,5.450862229724256,18.223675468978957
1760516140.146827,-4.435469345469441,0.015729890687909847,0.9362734884410756,-0.23529390992846344,11.362478960999026,5.53798933759924,17.234195250873032
1760516140.1568208,-4.0804608540209575,0.02260887767905489,0.9331155604257293,-0.2386595334701067,11.167655940621039,5.42930382508131,16.594636637237027
1760516140.166848,-3.7176368190666467,0.03377667257523728,0.9299919676243268,-0.23833728610520452,10.975208127560318,5.156655509966041,16.307585821497106
1760516140.1769657,-3.339295179508413,0.048585470856720776,0.9272402944413265,-0.23427365510532794,10.798063484973285,4.75693228525329,16.349553222026618
1760516140.186819,-2.939825618209065,0.0659588494450533,0.9252719203129254,-0.22683448727004502,10.646667399196861,4.270120592562314,16.671957355537966
1760516140.1967509,-2.516421136022162,0.08449181206858737,0.9244961883585378,-0.21684583624174858,10.525292368736087,3.736197657017689,17.204288675809135
1760516140.2068448,-2.0695480949675855,0.10258150916082943,0.9252450898259216,-0.20556058466694146,10.429856987461038,3.1914742582296713,17.85940803249063
1760516140.2167492,-1.6031184598747474,0.11857927602416919,0.9277101481683292,-0.1945481818340491,10.347602522599498,2.665139380612996,18.540632529969393
1760516140.2267191,-1.1243236263462622,0.13095580324565492,0.9319020825793662,-0.185519623577643,10.25860090113867,2.176710235022405,19.149993309024985
1760516140.2367947,-0.6431087498993608,0.13847033973653788,0.9376395081225023,-0.18011194291055999,10.138704772354574,1.7349418212548433,19.596853610635364
1760516140.2470021,-0.17130189983765143,0.14032799799521312,0.9445661442125721,-0.17966471770133907,9.963279319196609,1.3385433848242545,19.80597872721313
1760516140.2567687,0.27852703022467734,0.13629735454982278,0.9521905819289292,-0.1850267118482115,9.71094065709082,0.9787797357018406,19.72416012685669
1760516140.2667458,0.6943270618560353,0.12675282952222622,0.9599408466118975,-0.19643162721656993,9.36658687013764,0.6436980239271383,19.32461230728395
1760516140.2767513,1.0657392197536548,0.11261499835873011,0.9672262648497721,-0.2134719424172156,8.923216252888265,0.32334666416963076,18.608588667602795
1760516140.2867477,1.3849763071230679,0.09519057029031779,0.9734994455359337,-0.23517691815900565,8.382323011806667,0.015015521974760731,17.604003878520192
1760516140.2967813,1.6472782003972213,0.07595015858632373,0.9783111774897861,-0.26017275478143503,7.75297614413835,-0.2726681729031668,16.361273020137634
1760516140.3067565,1.850931626280115,0.056304934475322296,0.9813513406391904,-0.28688293119857383,7.049958171179851,-0.5178928358484592,14.947004096044648
1760516140.3167872,1.9969545803079847,0.03743878492083173,0.9824706767370451,-0.31372421974888604,6.291503437682001,-0.686793935654784,13.436502538344
1760516140.326763,2.0886015076767315,0.020224844973598,0.9816824321805436,-0.33926703386873536,5.497182151933725,-0.7376605283665502,11.906172549545422
1760516140.3369465,2.1308351183073353,0.00522180634132962,0.9791482153301997,-0.3623471618557131,4.686325553989545,-0.6276008848906147,10.426805515986983
1760516140.346863,2.1298582236240673,-0.007276637987797419,0.9751554646812757,-0.3821293020442872,3.877139758941503,-0.32048060771889025,9.058473331014252
1760516140.3567834,2.0927402605948617,-0.017170281338552494,0.9700922389459928,-0.3981276867394298,3.0864042001141723,0.20532312492564,7.847369356344676
1760516140.3667758,2.027130425565877,-0.024482723740214686,0.9644198236844774,-0.4101890773409646,2.3294758678701104,0.9507411623643349,6.824550064746619
1760516140.3769653,1.9410232227473818,-0.0293089029491083,0.9586391261316771,-0.41844432950728044,1.6202595945254386,1.892465795587499,6.006218534488034
1760516140.3867602,1.8425250515421767,-0.031790074815601754,0.9532469332403624,-0.4232384641642868,0.9708526999286168,2.982629201020395,5.395021785541525
1760516140.3969781,1.739561811632598,-0.03212205792892507,0.9486833257806917,-0.4250525470566989,0.39070545186090044,4.15181076749751,4.981816384606207
1760516140.406759,1.6394754468984967,-0.03059478865804621,0.9452784337991014,-0.42442990508129974,-0.11467504097654282,5.315047773068272,4.7474562437975525
1760516140.4167664,1.548489532251675,-0.02764972924500215,0.9432105549034394,-0.4219138276631583,-0.5452554688702146,6.380184953603755,4.664328725475375
1760516140.4267712,1.4710826507830101,-0.02392885658671136,0.9424860385510146,-0.41799644737156116,-0.9078713946908392,7.257670569185185,4.697570507043025
1760516140.4368253,1.4093865034384032,-0.020279301538980592,0.9429455990479152,-0.4130727902199871,-1.2170577190937653,7.870810471851268,4.8060946779947775
1760516140.4468284,1.362796629265835,-0.017680102388460094,0.9442951125762147,-0.4073939288047704,-1.4949244489907414,8.165516650979068,4.9437172521853965
1760516140.4567838,1.327999557002049,-0.017081153822612317,0.9461541387481975,-0.4010206540902992,-1.7698043494428042,8.118668973996005,5.060750136739788
1760516140.4668052,1.2995418189690118,-0.019186142955811253,0.948113448228294,-0.39379148988559526,-2.073571688734639,7.744269811857216,5.106400453941055
1760516140.4767544,1.2709025945033054,-0.024250748732285533,0.9497933088877535,-0.3853285616868692,-2.4377500002899883,7.0965891312256195,5.03216859798516
1760516140.4868302,1.2358477030680242,-0.031980140636889524,0.9508960603341361,-0.3751029700125318,-2.888778303879978,6.269533833335727,4.796174599798393
1760516140.496873,1.1897210138720933,-0.04158609503213903,0.9512491313584186,-0.36256565004223545,-3.4430572724152313,5.391606985615959,4.3679913463696955
1760516140.5068393,1.130323573294361,-0.05201359821480103,0.9508383922819635,-0.34732766460537906,-4.102608991568198,4.6160631280297615,3.733182636341348
1760516140.5168602,1.0581466124765935,-0.062288318732757704,0.9498354980599615,-0.32935527193998204,-4.852322884504059,4.106195721124336,2.896429307811911
1760516140.526798,0.9759219128043947,-0.07188956354726941,0.9486233691963514,-0.309134887609631,-5.659785736655444,4.016144474782788,1.881989706921198
1760516140.5368507,0.8876542368647419,-0.08103532388411369,0.9478186726644411,-0.28776277079503565,-6.478543039449349,4.4682440470564835,0.7303799358201283
1760516140.5469599,0.7974256074009822,-0.0907804534702551,0.9482809993678528,-0.2669238177946773,-7.255261405423684,5.528744846460748,-0.509365320211026
1760516140.5569184,0.7082770841142451,-0.10286582269747431,0.9510912562077656,-0.2487405304615816,-7.940679260731179,7.1846124361275345,-1.791711492349513
1760516140.566738,0.6214008084074268,-0.11931240506006482,0.9574820894513781,-0.23549504022370019,-8.5035536033929,9.324853147746193,-3.089888562362545
1760516140.5767574,0.535748427569508,-0.1418345188946742,0.9687118822558671,-0.22925566176461631,-8.946174643467398,11.730163165498288,-4.412623691840556
1760516140.5868225,0.44801228020833983,-0.17123014866390884,0.9858868916140905,-0.23147366000752506,-9.319531422622894,14.074430247745621,-5.820074094409464
1760516140.5967457,0.35280837625848377,-0.2069434580614013,1.0097474308190506,-0.24264339056038706,-9.735907506962647,15.940634247342905,-7.436317534100647
1760516140.606764,0.24284418210596623,-0.24695576100838668,1.0404424316553145,-0.26211990086236897,-10.376532654670157,16.852121003430167,-9.455384635458904
1760516140.6168249,0.10891702980592337,-0.28806741520595164,1.0773292922648385,-0.28815171153371255,-11.491828220996217,16.318365318412386,-12.137634964949838
1760516140.626762,-0.0602735621813452,-0.3265259286556952,1.1188558536209408,-0.31812466302730646,-13.39173725560961,13.892344726037878,-15.793698551637776
1760516140.6367934,-0.27837180481159524,-0.3588577580810722,1.162591310409893,-0.34895188916155173,-16.423829285955996,9.23438430447066,-20.754520199758257
1760516140.647023,-0.5614433064613925,-0.3826793582724899,1.2054459581044301,-0.3775042993801676,-20.93773656926268,2.1748668363088783,-27.328210048797704
1760516140.656963,-0.9276296538115849,-0.39722096683866587,1.2440549834157164,-0.4009623962001841,-27.23637670314216,-7.233726487453158,-35.74705120242549
1760516140.66679,-1.3961763951943331,-0.40334966079453205,1.2752383545756614,-0.4169945171386569,-35.51737032842202,-18.68521609759339,-46.110593732959195
1760516140.6767714,-1.98576113956519,-0.40306470283963264,1.296430641889151,-0.4237405262285802,-45.811731461240555,-31.616213120498994,-58.33279342468802
1760516140.6867661,-2.7122338182100965,-0.3986944405055098,1.3059995465086967,-0.4196830404619163,-57.93068256939119,-45.23453824478982,-72.10248617591674
1760516140.6967993,-3.586070131082427,-0.3921790759387361,1.3034053907116763,-0.40355725613255333,-71.43431273855578,-58.57961000480792,-86.86715369353207
1760516140.7067792,-4.609974236260634,-0.3847444842326463,1.2891833871110643,-0.3744304442922497,-85.63603357287585,-70.61188032479276,-101.84950946394262
1760516140.716778,-5.77711301996379,-0.3770150326044411,1.2647647989923374,-0.33198055690969847,-99.65225455255138,-80.324925590584,-116.103798710979
1760516140.7268307,-7.070414631698569,-0.3693768560435438,1.2321853593167988,-0.27687768654509826,-112.4963415105998,-86.86789925253363,-128.61262579608885
1760516140.7368112,-8.463219083569113,-0.3623352724545799,1.1937499562176703,-0.21108485288305126,-123.20197408852741,-89.65870056381111,-138.41510347216422
1760516140.7469013,-9.921328225617946,-0.3566964535674562,1.15173249909809,-0.13789371728080493,-130.94979347114406,-88.46458064696131,-144.7448413237412
1760516140.756994,-11.40619567156849,-0.35353018954423837,1.1081770832636708,-0.06161210882800017,-135.16962725529973,-83.43220922512242,-147.1472619569243
1760516140.7668521,-12.87871637238502,-0.3539541174048746,1.0648206148706383,0.01302612267125023,-135.59974615273347,-75.06251310461523,-145.54710917233803
1760516140.776842,-14.302938085396603,-0.3588173159095789,1.0231038031785575,0.08154754308858013,-132.29839483173862,-64.13972167432328,-140.25057615518472
1760516140.786755,-15.649077304731971,-0.36837904417428124,0.9842134102986845,0.14032922850630508,-125.61393109183649,-51.63240905134782,-131.88538227405954
1760516140.7968836,-16.895435635904736,-0.38208092280789524,0.9491091583574505,0.18696705759116083,-116.12558567543326,-38.585415630673765,-121.29698444881421
1760516140.8067596,-18.029083096718303,-0.3984891420727594,0.9185153876042602,0.22038666619735303,-104.5681736317862,-26.017567663846805,-109.42540687813734
1760516140.8168132,-19.045417028955047,-0.4154396270367908,0.8928827386661984,0.2407347080866069,-91.75261546782461,-14.834189726150065,-97.18586393720815
1760516140.8267965,-19.946871191785867,-0.43036743397784155,0.8723396402946249,0.24912994435040872,-78.49106843730154,-5.758247252536922,-85.37057801074353
1760516140.836792,-20.74112672999901,-0.4407560362367915,0.8566587384163211,0.24736154234190014,-65.53214397553576,0.7186516825209526,-74.58202847731344
1760516140.846776,-21.439175982753586,-0.4446113925804346,0.8452661303093327,0.23759968489810204,-53.5092937152857,4.363963062483016,-65.20136706704218
1760516140.8568137,-22.053533395347763,-0.44085615411127266,0.8373171078703205,0.22214801769917467,-42.904312283442884,5.207837957649575,-57.39056560446518
1760516140.8669615,-22.596799091961195,-0.4295558613921336,0.8318383054138784,0.20324345972370253,-34.0272848726324,3.5201414019934254,-51.12273447671805
1760516140.8769727,-23.080680450894047,-0.41192867267162353,0.8278988481568375,0.182906312112459,-27.013176554717603,-0.23839578203888703,-46.23179503250376
1760516140.886759,-23.51548073089704,-0.3901401872510013,0.8247525078421057,0.16284867960741212,-21.83341209583892,-5.485127138278572,-42.47083615482147
1760516140.8967814,-23.90998384821571,-0.36692985641384085,0.821907614033017,0.1444458594158818,-18.319056023200393,-11.59452475282679,-39.5686674918382
1760516140.9067628,-24.2716108773755,-0.34514482323255863,0.8191166036125098,0.12876342260112886,-16.19157463663351,-17.9753105337219,-37.27618924531256
1760516140.916775,-24.606701608675184,-0.3272670702834286,0.8163064338831061,0.11662109479212361,-15.097865674374594,-24.13421097618302,-35.39737827318362
1760516140.9267964,-24.92078197144982,-0.31501350468141426,0.8134839960969023,0.10866792847377889,-14.647552805422205,-29.717445782159857,-33.80300874054753
1760516140.9367802,-25.21871042150459,-0.30907316602901447,0.8106510138226124,0.10544140500819475,-14.451383380866378,-34.52502464861439,-32.42815291080494
1760516140.9470503,-25.50464753807127,-0.3090253732782067,0.807754890611295,0.10738657976192709,-14.159231491862911,-38.49746049941661,-31.256852364621867
1760516140.9570262,-25.78185435941686,-0.3134555265238052,0.8046851503217936,0.11482254921729121,-13.494799221662223,-41.678929429782684,-30.29895919799972
1760516140.9668698,-26.052382958309394,-0.32024969719790264,0.801302238411859,0.12786172629685352,-12.28257853415716,-44.16467039982923,-29.56481000297856
1760516140.9767716,-26.31676129378924,-0.32701125516199053,0.7974695776833244,0.14630581757653763,-10.462242824904079,-46.04295878498969,-29.04298354176948
1760516140.9867532,-26.57378098705173,-0.33151494248973334,0.7930648324445191,0.16955263453925418,-8.087071781815002,-47.34281240408454,-28.68503999361334
1760516140.9967756,-26.820469624546455,-0.33210519125524474,0.7879689269967226,0.1965471192437236,-5.305973142043856,-47.99750523594417,-28.39929059715733
1760516141.0067823,-27.052280825581146,-0.3279596279361595,0.7820510333039336,0.22580018523101403,-2.332162310151899,-47.831131279425456,-28.053855313177948
1760516141.0167637,-27.263487358145635,-0.3191770611390755,0.7751695635685624,0.25548209330076244,0.5955664476936361,-46.571284171004926,-27.487886158736206
1760516141.0269816,-27.447731843030237,-0.3067029278385969,0.7671981095580686,0.283576780282433,3.2517596951967542,-43.886058810378394,-26.52890905073884
