timestamp,angle,linear_acceleration_x,linear_acceleration_y,linear_acceleration_z,angular_velocity_x,angular_velocity_y,angular_velocity_z
1761284411.448218,-7.650939889596505,-0.10307698649583637,0.9431815013035476,-0.3027948370578906,11.011347186158028,37.55132506043699,38.27433496593691
1761284411.4582186,-7.2923858676603635,-0.12546589219144574,0.9370767408513188,-0.3071390159171172,9.259659627097165,37.07111188980603,38.46583676628893
1761284411.4682143,-6.9451895095927405,-0.14173503025764175,0.9323523961751096,-0.3099474916907776,7.465135613914685,36.058487098836565,38.36171748992468
1761284411.4782019,-6.607391589159339,-0.1519737548161812,0.9287770341310662,-0.3108985999674078,5.745760329411274,34.583544511272244,37.99844438951025
1761284411.4881918,-6.277587567396022,-0.1567106803705158,0.9260663549246824,-0.3097425291927484,4.207784177937074,32.73214921556285,37.41433357092477
1761284411.4982347,-5.955032208957527,-0.1567785186658158,0.923976242477383,-0.30641288425388946,2.938163701025603,30.596886039850883,36.647434705145834
1761284411.5082002,-5.639678123149834,-0.1531739650248404,0.9223923475565218,-0.3010902910651481,1.999694012930686,28.269279341647945,35.73483455202924
1761284411.5182798,-5.3321524681363,-0.14692293577247378,0.9213895070504085,-0.2942132044664886,1.4281056966741246,25.833791706911963,34.71266032071723
1761284411.528346,-5.0336766559696295,-0.1389615576812893,0.9212427273991807,-0.28644105591962205,1.230584489729579,23.363801550280005,33.61610703933717
1761284411.5382168,-4.745934810273964,-0.13004504761425442,0.9223841689433337,-0.27858038550340464,1.385577959773031,20.919530059759005,32.479086112936535
1761284411.5482478,-4.470898678546692,-0.12069670357687558,0.9253132272181,-0.2714865349167445,1.8441737411158896,18.54771063580962,31.333465884646145
1761284411.558211,-4.210620567010219,-0.11120605622926964,0.9304764028764118,-0.2659536371885861,2.5335663385542855,16.282632276054553,30.208191165443978
1761284411.568905,-3.967011989575485,-0.10167868591998042,0.9381394576497485,-0.2626058345127517,3.3630244201661217,14.148032454891437,29.128691419130988
1761284411.5782235,-3.741631206096437,-0.09212979695909737,0.9482767035555462,-0.2618036630270332,4.232301446544908,12.159204174929886,28.116870703889965
1761284411.5882201,-3.5355026100830176,-0.08260036601565335,0.96050069890443,-0.2635799033021263,5.041754472937083,10.324674192230681,27.19168784813333
1761284411.598207,-3.3489834661785007,-0.0732636668472964,0.9740494966402642,-0.2676163090309197,5.702841201005975,8.646939505070769,26.370030791608464
1761284411.6081998,-3.1816829474512103,-0.0644876640894332,0.9878398683312414,-0.27326620356689346,6.14740733811661,7.122037947466478,25.66741907645423
1761284411.6182015,-3.0324303407256563,-0.05682787331520677,1.0005866968201371,-0.2796209021895103,6.334318113821904,5.738175020292756,25.09812133578913
1761284411.6282115,-2.8992864823076885,-0.0509436803667143,1.0109799994575668,-0.28561296008665576,6.252437817107659,4.474119956160576,24.67451822509804
1761284411.638209,-2.779595013190699,-0.047454449691757515,1.017897621042995,-0.2901456648934924,5.9196015495338665,3.298374636937668,24.40583838281297
1761284411.6482038,-2.670076496995257,-0.04677545188203773,1.0206128261151406,-0.29223288906337813,5.377935900145766,2.170010940517571,24.296600022426553
1761284411.658238,-2.566975259586849,-0.048989827301005096,1.0189397170981929,-0.29112618393962014,4.686509185063869,1.041594880195024,24.345144231219653
1761284411.6682398,-2.4662688013088934,-0.053807214436263594,1.0132625871673941,-0.28640411492884915,3.912667814203023,-0.13602025610554316,24.542583293613053
1761284411.6786065,-2.3639357043015066,-0.06062445237614743,1.0044302187378733,-0.27801036131839874,3.123481890065091,-1.407811341618229,24.87238352365867
1761284411.6885192,-2.2562521761324255,-0.06865671673085666,0.9935480357437989,-0.2662472160110792,2.3785236413167343,-2.8087018334012837,25.31071770751971
1761284411.698335,-2.1400633235450086,-0.07708114067403195,0.9817355133776774,-0.2517444172970382,1.7248199905624184,-4.358753402641498,25.827666171894396
1761284411.708282,-2.0129677938589627,-0.08514255037022798,0.9699159634356935,-0.23542175250851696,1.1943521567362103,-6.060265328095141,26.389273639815148
1761284411.718251,-1.8733689740548771,-0.09219798263737952,0.9586830602324456,-0.21845325563965437,0.8040271613520787,-7.897289762770603,26.960337810794666
1761284411.728411,-1.7203774714394715,-0.0977036126575337,0.9482623509009486,-0.20222973252181659,0.5576972785751854,-9.837718635053083,27.507626314243577
1761284411.738332,-1.5535874068413051,-0.10116530697202504,0.9385648915134196,-0.18830882859627177,0.4495770189106302,-11.837676051758606,28.003051972368596
1761284411.748274,-1.372781806889424,-0.10208116783666085,0.929314692316307,-0.17833883504098028,0.46829027428338094,-13.84745580444896,28.426247500211552
1761284411.7582414,-1.1776423387007509,-0.09990336626106576,0.9202211615039273,-0.17394409777670058,0.6007496116159449,-15.817786457334538,28.766001509113206
1761284411.7682242,-0.967542903256602,-0.09403992357183047,0.9111618545157972,-0.17656599217709257,0.8351000427742736,-17.704978111311604,29.02013379371478
1761284411.7782204,-0.7414945702672185,-0.0839060981636552,0.9023394879645642,-0.1872632499960388,1.1620409422339955,-19.473680366206093,29.193565555756006
1761284411.7882457,-0.4982804081797508,-0.06902022290661569,0.8943805405146096,-0.20648772196714282,1.5740042533217544,-21.09657247680719,29.2945691316896
1761284411.798263,-0.23677498389642107,-0.04912335385358466,0.888350825051823,-0.23386411841451388,2.06198056638386,-22.55109771092385,29.329480996050755
1761284411.808244,0.04360569420057321,-0.024292855023440706,0.8856756865423085,-0.26801175420844203,2.610287786574685,-23.814045668633177,29.296534144337254
1761284411.8183112,0.3424156415009714,0.004976872051079839,0.8879685766583184,-0.30645054855869386,3.1902160162245954,-24.85522402932283,29.179845329920227
1761284411.8282485,0.6577556332718768,0.037739761480657476,0.8967909502537539,-0.3456319495354979,3.754079738789962,-25.631689096430165,28.944838657321586
1761284411.8383315,0.9860029869750246,0.07260856754662139,0.91338440010511,-0.38112730124939,4.231516650126161,-26.084118935536644,28.536352789862843
1761284411.8482823,1.3217467065327602,0.10780346935696943,0.9384238124497755,-0.40798897650041344,4.5297059583488775,-26.136891833109996,27.88031317681458
1761284411.8585086,1.657938042760868,0.1412352691900244,0.9718324014481652,-0.4212724210312954,4.538533462080353,-25.70311530721398,26.889239681019895
1761284411.868254,1.9862288148477847,0.17062760307172015,1.0126822090440866,-0.41667449984056554,4.140773791176335,-24.69508858768634,25.4711669005589
1761284411.8782833,2.2974450998375855,0.19368873882429133,1.0591902447717778,-0.39121252270057477,3.2263139873471958,-23.03951024544702,23.54092514509538
1761284411.8885677,2.5821358627697575,0.20834258001293723,1.1088151291043764,-0.34384422997200415,1.7084994753920868,-20.695409520824153,21.032255108040218
1761284411.898298,2.8311422343500956,0.2130154329713768,1.1584530116188358,-0.27591481834069376,-0.4599906687534411,-17.671623130021032,17.908969608205407
1761284411.9082623,3.0361450524943616,0.20694671142476478,1.2047162318205837,-0.19131725091745347,-3.2745947080040545,-14.039960572852946,14.173390219004157
1761284411.9182472,3.1901554752480057,0.1904537816006898,1.244258210371907,-0.09627426569912358,-6.672278661418671,-9.940245462997742,9.870610798025849
1761284411.928328,3.287910408944101,0.1650542389043338,1.2740964202445753,0.001297928254902196,-10.53284544010505,-5.57439516383126,5.087743311223213
1761284411.9382694,3.3261257643687054,0.1333598870316499,1.291889316789504,0.0928033085187859,-14.688955637356539,-1.188661712705965,-0.05191659293442017
1761284411.948342,3.3035584753057208,0.09871692792546186,1.2961378181326626,0.1702166897924682,-18.944144336444463,2.954168620865887,-5.399042940991429
1761284411.9582703,3.2208451883511096,0.0646583416191837,1.2862960933308987,0.22733399717757222,-23.09631277939741,6.608035855890754,-10.79126610116994
1761284411.9682467,3.0801256927029623,0.03431458500333031,1.2627845008220087,0.2607278297729915,-26.9625031981019,9.575670707172645,-16.067029579237833
1761284411.9782631,2.884511844502278,0.009949803092823435,1.2269055318574316,0.2701527070480048,-30.399974448374472,11.73235636063244,-21.0782902696815
1761284411.9884076,2.6375056235837326,-0.00726614801500771,1.180679016553846,0.25830325145720395,-33.31936329341608,13.036064227400844,-25.700490439001843
1761284411.998283,2.342484863495958,-0.01723755737957294,1.1266308324305025,0.23003889480258313,-35.687957260650485,13.522288835663035,-29.839080946840053
1761284412.0087707,2.0023602182726603,-0.020737347446545533,1.0675773237089614,0.1913300683153656,-37.523810429909204,13.286013464388445,-33.43276854586957
1761284412.0192964,1.6194712360997432,-0.0191024962084522,1.0064399783500075,0.1481979761756249,-38.88341423737862,12.456254605146771,-36.454231991413366
1761284412.0289633,1.1957418449092516,-0.013907691633607727,0.946106448463658,0.10585235613634614,-39.84634200535782,11.16975517626594,-38.9091439788309
1761284412.0385864,0.7330620202239323,-0.00667804300956228,0.8893337191065316,0.06813977841016816,-40.49989118003446,9.549659221017219,-40.83402569516173
1761284412.0486062,0.2338099669917992,0.0013155162120301578,0.8386746159765841,0.03733025838285264,-40.92574003735672,7.6929399646667695,-42.29295290510889
1761284412.0583522,-0.29861179379099834,0.009154743926179291,0.7964030675741204,0.014202356458525878,-41.18949555501088,5.667701798272779,-43.37264963141147
1761284412.068263,-0.859371212397892,0.016266550218364227,0.7644164382107246,-0.001657888467105949,-41.333101534686016,3.5189475719757692,-44.175257492580954
1761284412.0784578,-1.4420644557128919,0.022332308706384984,0.7441044962958842,-0.011447225153647376,-41.369656896226644,1.2795384219032055,-44.80826986356897
1761284412.0888865,-2.0389220835415314,0.027153859951176765,0.7361943822969373,-0.01672116429377814,-41.280434478883656,-1.0178012021773344,-45.37197177623295
1761284412.098826,-2.641371122151671,0.030522496961155676,0.7406071969871979,-0.01902869394652942,-41.01478808088037,-3.33136080386888,-45.94624759758921
1761284412.1089077,-3.240864180605186,0.03213154907511843,0.7563841092710928,-0.01964931803652414,-40.49465500494948,-5.606950160558809,-46.58019884554311
1761284412.1182718,-3.8298031111773585,0.03155751681285871,0.7817373999235125,-0.019449223822872706,-39.625287854374676,-7.781007859476169,-47.28824592319159
1761284412.1282802,-4.402353349773279,0.028313879387441926,0.8142418744673496,-0.018852437168985978,-38.31185784927927,-9.789414137910896,-48.05427962367198
1761284412.1382916,-4.954982847447526,0.021960926657409768,0.8511250224565874,-0.01790660079473913,-36.4786928754188,-11.579589532822204,-48.84207107156788
1761284412.148382,-5.486642840168302,0.012239054044691269,0.8895807018969767,-0.016410553280722225,-34.086348005559366,-13.122587489084687,-49.60797786063864
1761284412.1583173,-5.998595040806509,-0.0008134895200300897,0.9270384160441514,-0.014064159455755258,-31.142442650649155,-14.421812473831322,-50.31214566920185
1761284412.168806,-6.493954084344368,-0.01679192438117786,0.9613510951320843,-0.010602773584908147,-27.704326446301778,-15.515723354876258,-50.92599740255915
1761284412.1783273,-6.977049319978402,-0.03492378502902511,0.9908946105789658,-0.00588939667862842,-23.873818658165803,-16.473240489012127,-51.43548620165737
1761284412.1882806,-7.452720582335506,-0.054135435935260205,1.0145915926443572,4.668046115395784e-05,-19.785828550013463,-17.382215007600745,-51.84074579403718
1761284412.1983092,-7.925654541036183,-0.0731717163016875,1.0318806368787896,0.0070204198878412475,-15.593467496486682,-18.33283992260421,-52.15333552063838
1761284412.2082758,-8.39984720790228,-0.09074704356866345,1.0426526250231634,0.014735475802999075,-11.452374636924343,-19.398979635473466,-52.39235046742017
1761284412.2182715,-8.878248695968997,-0.1057057579227684,1.0471717169980206,0.022843084807249458,-7.506579021199865,-20.62090283504778,-52.580408383422615
1761284412.2283227,-9.36261233078302,-0.11717108860927543,1.0459926140797535,0.03099800935061666,-3.8775404095202988,-21.992765028012478,-52.74012214098884
1761284412.2383127,-9.85353614273393,-0.12466301306958395,1.0398805390056192,0.038899682197895455,-0.6572330985454644,-23.457427745339864,-52.891288153326826
1761284412.2482839,-10.35065582555963,-0.1281668634180193,1.0297371781705758,0.04631302557338436,2.0946052962157626,-24.909951738950955,-53.04876982133372
1761284412.2583609,-10.852929210234251,-0.12813952713632187,1.0165340573427837,0.053069011060856944,4.349547515158686,-26.209596870185216,-53.22095438144296
1761284412.268282,-11.358945806110846,-0.12544907235043448,1.0012535712979398,0.05904927192037311,6.106781666051722,-27.19868866725626,-53.40867898784593
1761284412.2785137,-11.867200737141268,-0.12125508138360015,0.9848371905620597,0.06416190485533559,7.387766206967479,-27.725529518644628,-53.60459701825848
1761284412.2900002,-12.376287586299393,-0.11684824301413205,0.9681407417331849,0.06831710654025885,8.2303414657473,-27.667828487809704,-53.79302096805946
1761284412.299521,-12.884984987882577,-0.11347544953580417,0.9518977789031964,0.07141106081141024,8.683195881429752,-26.95300577668322,-53.95028393046731
1761284412.3083024,-13.392233732360115,-0.11217834472447306,0.9366927887905125,0.07332386252325895,8.801259692176359,-25.572214334086322,-54.0456021611948
1761284412.318365,-13.897022573925947,-0.11366942637550777,0.9229455631337848,0.07393270737205278,8.642260009418475,-23.585922663948068,-54.042340522099536
1761284412.3283055,-14.398218862461315,-0.11826260551544561,0.9109066494280801,0.07313692890914847,8.264398877026071,-21.120226998941348,-53.89954000882859
1761284412.3383641,-14.89438965155976,-0.12586575494973584,0.9006617920790408,0.07088842489702453,7.724945795023139,-18.354461822907094,-53.573589322181746
1761284412.3482928,-15.383656998928886,-0.13603169447829555,0.8921413092929465,0.06722008987236434,7.0794751804788465,-15.501922125526875,-53.01999004032412
1761284412.3582754,-15.863619797140114,-0.1480532327045763,0.8851294291657194,0.062265698827298245,6.381516419016397,-12.786407194990145,-52.195233414458784
1761284412.3682857,-16.331358558976312,-0.16108054231893654,0.8792698041340848,0.05626655957403259,5.6824809047436675,-10.417702479234634,-51.05883845575692
1761284412.3783026,-16.78352309590816,-0.17423751541231938,0.8740671624668337,0.04956231396850084,5.031826955905002,-8.568990114898549,-49.57557742184729
1761284412.388331,-17.216488235028535,-0.1867180814983539,0.868890531544992,0.042565078121215946,4.477474434040975,-7.358624588669015,-47.71783867452164
1761284412.3983414,-17.626551371748914,-0.19785223574564556,0.8629885178551722,0.035718168985636276,4.066473070805961,-6.837928627367729,-45.46796844387451
1761284412.408302,-18.010139571162973,-0.20714195989476894,0.8555291845351282,0.0294437025310329,3.845859865845018,-6.98584490797014,-42.82032570378468
1761284412.4182775,-18.363994762340592,-0.2142765082200752,0.845674510983173,0.02408699087757402,3.863505242632966,-7.710549345654327,-39.78271926127583
1761284412.4283075,-18.685314137667827,-0.2191424238307319,0.8326921620681529,0.01986817706905986,4.168560064315199,-8.857563024002944,-36.37690853895987
1761284412.438301,-18.971837865328066,-0.22184404001293792,0.8160969704491342,0.016850870734823015,4.810954819878699,-10.223516755910943,-32.63794922377522
1761284412.4483268,-19.221893052001946,-0.2227434563291663,0.7958044610471374,0.014932971460924198,5.839402019537484,-11.574515464478482,-28.61233175634537
1761284412.458306,-19.434414747487246,-0.22251575474521343,0.7722724912094845,0.013858308205841646,7.297607593894363,-12.667966713641034,-24.355069273565984
1761284412.468295,-19.60896609788543,-0.22219971095087349,0.7466061017119885,0.013242879883953507,9.218860269068692,-13.276650495856964,-19.926127864673255
1761284412.478289,-19.74576886697328,-0.22321210180061518,0.7206036174966985,0.01260905816604389,11.619657229984321,-13.213553904321385,-15.386819478306505
1761284412.4882982,-19.84573509727937,-0.22728926008278783,0.6967266042865508,0.011425046548396827,14.493335465103275,-12.35552494709241,-10.796915754652785
1761284412.498299,-19.910467718921595,-0.23632579176759236,0.6779813901610594,0.009152688494545575,17.804709893389383,-10.663270613666421,-6.2132019028236645
1761284412.508319,-19.942183083578954,-0.25209915953287165,0.6677059016931381,0.005310330532433812,21.486520979749894,-8.194906431982472,-1.6899186818931133
1761284412.5184538,-19.94351135698929,-0.27589804912374805,0.6692633451626909,-0.0004453009580511663,25.43819922751148,-5.110360672558216,2.7189553293110276
1761284412.5284898,-19.917153943886305,-0.30810453120561215,0.6856542627668505,-0.008224132827131421,29.527169999287626,-1.664500335515754,6.956247984655356
1761284412.5382953,-19.865414181372355,-0.3478056210772504,0.7190713123388865,-0.01781246834896707,33.59269875246631,1.81215167918464,10.958203149325245
1761284412.5482905,-19.789656894597407,-0.3925224888872546,0.7704381394466,-0.028612149116010017,37.45214090465577,4.944844282245725,14.652745517352061
1761284412.5583167,-19.689783180813944,-0.43814282609706345,0.8389954705378724,-0.03963437894437264,40.9094378937304,7.356205766865898,17.960965440246255
1761284412.5683906,-19.563822539493422,-0.47912350805373277,0.9220196087986918,-0.04956992723326772,43.765795953398154,8.714246186788724,20.802879622711714
1761284412.578403,-19.40774353968513,-0.508997134298965,1.0147698668383673,-0.056949776865222304,45.832635635123964,8.781338681229158,23.1075512416678
1761284412.5883224,-19.215567131247585,-0.5211678963827888,1.1107492965190562,-0.060395106019311876,46.94694032250103,7.457687123065764,24.826405049960766
1761284412.598293,-18.97983381212734,-0.509921730997284,1.2023196024326905,-0.058931488533560915,46.988810586912,4.812541707787475,25.9473510855836
1761284412.6083426,-18.692427929986223,-0.4715094296544613,1.2816369412193913,-0.05231282505141228,45.90015141836103,1.0970778179930716,26.506476254086632
1761284412.618569,-18.345702745820713,-0.4051024928215135,1.3417800379743112,-0.041273297891414894,43.70202596473161,-3.265669148821893,26.593896758545313
1761284412.6284263,-17.933785308561482,-0.31339205227327604,1.3778488503427408,-0.02761175722078996,40.5067040030537,-7.7161110323278965,26.351076453455352
1761284412.6383176,-17.45388068885093,-0.20263095651975904,1.387763336288453,-0.014028358793179622,36.51955539119719,-11.617614617351153,25.9584490887978
1761284412.6483417,-16.90735383175586,-0.0820282177425979,1.3725347890935218,-0.003693478077909076,32.02655872516443,-14.334718337667862,25.614249822842748
1761284412.658295,-16.30036002520605,0.03742841341204052,1.3359258359102932,0.0003725136379651204,27.365818731442534,-15.319657050687024,25.507651695328946
1761284412.6683195,-15.643838104758803,0.144491211856658,1.283603866819381,-0.004062225964674672,22.88568326724,-14.19306345189275,25.791086684283382
1761284412.678303,-14.95278485639328,0.22920725885181256,1.2220379702417905,-0.017982953302883204,18.89642772472767,-10.804086150646564,26.557379382241585
1761284412.6883543,-14.244885734545681,0.28422361613531577,1.1574324124871151,-0.040989622710142906,15.625370589292196,-5.258517229014203,27.82657274343095
1761284412.6983833,-13.538741920134203,0.3056374988773554,1.0949299707459899,-0.07149703673444519,13.18556536249236,2.090060673643017,29.545145061087034
1761284412.708468,-12.85203732759536,0.293288301060671,1.0381982284667537,-0.10717313304335743,11.56560166347643,10.683762199978354,31.59734904883579
1761284412.7183464,-12.199981467612284,0.250492983193386,0.9893858325575222,-0.14544846980993523,10.643128922234022,19.83004507128139,33.82558569478078
1761284412.7283292,-11.594255143272633,0.18332274797632786,0.9493467828510133,-0.1839401760611551,10.218849216644282,28.785386072017324,36.05493336096197
1761284412.7383108,-11.042535048996674,0.0995916073018108,0.9179974573294015,-0.2207002320341008,10.062676150169857,36.83999218039185,38.1166771383306
1761284412.7483354,-10.548541172056598,0.007758908982475918,0.8946866501486574,-0.25427866020657036,9.961055523511355,43.39202969297966,39.86682256756978
1761284412.7583103,-10.11246759490297,-0.08406848206419502,0.8785014625818457,-0.283653448765833,9.754845690853516,48.00289343858869,41.19753435463416
1761284412.7684493,-9.731625298153643,-0.16890277370790907,0.8684770868212955,-0.3081075804813006,9.360418941953336,50.42883606840121,42.04147232007438
1761284412.778321,-9.40113571376342,-0.24135042451125105,0.8637110202698567,-0.32712887985980355,8.77161538576661,50.6280900976879,42.37052536686948
1761284412.7898755,-9.114553942832197,-0.29780286853980925,0.8633997938948628,-0.34037680219741734,8.045188138911065,48.745812824274445,42.19118825047434
1761284412.7983246,-8.864356175328934,-0.33639610980836426,0.8668238545248332,-0.34771663368412753,7.275900055874393,45.0814200534674,41.53879619636287
1761284412.8083644,-8.642281181939207,-0.3568119875649804,0.8733079313027625,-0.34928654685431765,6.568686507324587,40.04413070843124,40.472234814445066
1761284412.8183343,-8.439558781257437,-0.3599923897249662,0.8821814127891006,-0.3455511878406775,6.014405535041014,34.10296960947926,39.06985246695977
1761284412.8285623,-8.247083241177158,-0.3478248298907207,0.8927566101115653,-0.33730652178944376,5.673400376724129,27.737229109600012,37.426390414282196
1761284412.8383803,-8.055594559239752,-0.3228388694922523,0.9043331184175267,-0.32562309405716144,5.5683570654794625,21.392597733084195,35.65006116988304
1761284412.8483481,-7.855915733225941,-0.2879319736311061,0.9162254053834725,-0.3117369277143751,5.685587531929254,15.44693008017211,33.85863813507005
1761284412.858542,-7.639265609322407,-0.24612838603249354,0.927801689673066,-0.2969124295504838,5.982403931288098,10.188085176441236,32.17363277890947
1761284412.8683925,-7.39763690716609,-0.20037146348753232,0.9385191637055006,-0.2823077895806911,6.39775760370115,5.8045961491932605,30.712236177637138
1761284412.8783147,-7.124208751459775,-0.15335544618920377,0.947944836973914,-0.2688710036071654,6.86356511980848,2.3883740702388776,29.577491960929343
1761284412.8883777,-6.813756485462912,-0.10740793521910508,0.9557596888191603,-0.2572858937359799,7.314789208322724,-0.05265228708587422,28.84791520676971
1761284412.898336,-6.463026316895987,-0.06443334998753884,0.9617513771145267,-0.24797457477942977,7.697093333276444,-1.5750282294845739,28.568254518979185
1761284412.9083314,-6.071052667137176,-0.02591981955897632,0.9658035858043138,-0.24114804789974245,7.9715687985529415,-2.2770429910202434,28.743157943921915
1761284412.9183452,-5.6394040645513055,0.007000395207532937,0.9678875929306363,-0.23688362658700915,8.116562531809672,-2.276522489376138,29.335126664277805
1761284412.9283216,-5.172341921616377,0.03346010672160191,0.968056469871512,-0.23520121799402233,8.126992205793032,-1.6924274724062671,30.267437811219693
1761284412.9386587,-4.676864589271636,0.052768274755473556,0.9664382931269659,-0.2361128273179564,8.011737669365894,-0.6325440749787461,31.43187033880014
1761284412.948616,-4.162594009969739,0.06435543608011811,0.9632242119800148,-0.2396300478292902,7.789779761048681,0.8117957247885141,32.700262367176606
1761284412.9584715,-3.6414554122389213,0.06777598968117299,0.958650009673638,-0.24572880302496622,7.485764771764794,2.5644487456515113,33.93832667902718
1761284412.9686673,-3.127110556834552,0.06277229075517925,0.952973786760805,-0.2542845592924553,7.125638789534947,4.558338732360533,35.01985504611368
1761284412.9783835,-2.6341345558559635,0.04938560181806889,0.9464548140847479,-0.2650009484836603,6.732919059244951,6.726929094179523,35.839466440973446
1761284412.9885094,-2.176970872185084,0.02808260743679981,0.9393379082804938,-0.2773580210191918,6.326017372579606,8.995954503365999,36.32235119644923
1761284412.9983802,-1.7687479896657585,-0.0001411758751647917,0.9318448937857972,-0.29060231859102065,5.916797775670571,11.277736211191568,36.42997019391644
1761284413.0083268,-1.4200797307342772,-0.033715156349401566,0.924172524123644,-0.30379037936991055,5.510309445404599,13.46960171298503,36.16131512045821
1761284413.018333,-1.1379869575736048,-0.07052393742608068,0.9164962085878223,-0.315883337094551,5.1054914196766585,15.45685350695462,35.55002035664243
1761284413.0283706,-0.9250682082659814,-0.10801531025843994,0.9089798882142145,-0.3258777356551001,4.696631401648561,17.119680061362995,34.65819849741648
1761284413.0383437,-0.7790173961249509,-0.14337279035506978,0.9017922918457072,-0.33295012381069394,4.275402330198688,18.342676084818752,33.56821126560158
1761284413.048411,-0.6925487341576061,-0.17373203249316657,0.8951279730298172,-0.3365909732829151,3.8333007179021035,19.025387568586186,32.37362141927602
1761284413.058337,-0.6537509628630588,-0.196418769446092,0.8892290156092617,-0.3367055571713626,3.364234703229743,19.092441174940205,31.17034728041153
1761284413.068379,-0.6468588652932832,-0.20918727571934417,0.8844015888805241,-0.333664212226477,2.866888843307059,18.502138568798852,30.048676181499317
1761284413.0783355,-0.6533999895483639,-0.21043993073837197,0.8810221013637601,-0.32829125931035447,2.3463885645511935,17.25269399063244,29.08640650325076
1761284413.0883353,-0.6536451815082023,-0.19940818995298373,0.8795310615989625,-0.32179027852503556,1.8147651684877926,15.385487747101303,28.343089837648733
1761284413.098341,-0.6282589617249372,-0.1762733671639612,0.8804169460458484,-0.3156120297446991,1.2898308056982442,12.984851370290928,27.85523234475971
1761284413.1083837,-0.5600098246616988,-0.142205139249527,0.8841939987454656,-0.31127800523295446,0.7923244128091094,10.174111662653186,27.632427529764282
1761284413.118374,-0.43536858307397597,-0.09930058221406737,0.89137585682256,-0.3101766166554628,0.34155552895734775,7.10797824050337,27.654666034685082
1761284413.128349,-0.24580840666455736,-0.05041829454600859,0.9024437624967081,-0.3133522141124779,-0.04981551022163315,3.9618256944436068,27.87134440079496
1761284413.1383626,0.01136416310470357,0.0010816383803343597,0.9178067270633223,-0.32131190971230306,-0.3808754108067311,0.9188701228927856,28.202605092961527
1761284413.1485178,0.3327665469257738,0.05166395553760116,0.9377515998515563,-0.3338805789899036,-0.6662943643760801,-1.843466869063796,28.543494218432638
1761284413.1584928,0.7093217980747974,0.09796765314744002,0.9623825281435924,-0.3501356479301315,-0.937884368389407,-4.166652314529443,28.771049082529935
1761284413.1683295,1.1272014911055062,0.13712644748306724,0.9915514885320876,-0.3684456116878687,-1.2432464409160862,-5.922404956006252,28.753942068366275
1761284413.178344,1.569179407587275,0.16701171332939255,1.0247849871891728,-0.3866189232897884,-1.6414155815990765,-7.021484223197568,28.36384721113087
1761284413.1903715,2.0161965001389417,0.18636751715516012,1.061217633683786,-0.4021472549662173,-2.195975739851307,-7.419527007692935,27.487352738605924
1761284413.19839,2.4489366829778447,0.19483454408177453,1.0995508676501544,-0.41250692925029503,-2.966582848246171,-7.119991456088665,26.03704832160685
1761284413.2083745,2.8492504017408864,0.1928844585419759,1.138060583278785,-0.4154714419721081,-4.000131755309638,-6.174428527898031,23.960381611051613
1761284413.2183533,3.2013168802640215,0.1816969759354938,1.1746740367441273,-0.40938777899731466,-5.322920148144829,-4.680022062836948,21.245032503533896
1761284413.2283697,3.4924846310070237,0.16300553976042367,1.2071209967475531,-0.3933757935406521,-6.935135177115931,-2.773775403738472,17.919917897971757
1761284413.2384093,3.7137638611427297,0.13892396312758568,1.2331418846591662,-0.36742068138541795,-8.808864286876846,-0.6223551917153335,14.051488612607434
1761284413.2486825,3.8599698158292344,0.11175955156365579,1.250719295442842,-0.3323462988671412,-10.89059782800545,1.5930957244920614,9.735644701768468
1761284413.258498,3.9295416911803276,0.08382109083966743,1.2582985405931753,-0.2896831532197768,-13.108731879098299,3.696772743440396,5.086288979392246
1761284413.268348,3.9240867778577457,0.05723463188239485,1.2549722474359573,-0.24146961865866728,-15.385744750998251,5.540638448507097,0.22213827852726428
1761284413.2784994,3.8477176216930937,0.03378027416725217,1.2406091156853314,-0.19003197729030416,-17.653463274280682,7.025799483771544,-4.746230636597121
1761284413.2884016,3.7062597638982195,0.014761449339376516,1.2159057140991885,-0.13777479217649044,-19.86837745743254,8.118051825466088,-9.727087241851288
1761284413.2983725,3.506413299419782,0.0009185927139665021,1.182345135817108,-0.08699508303373782,-22.022929921096342,8.852933430926518,-14.65425649138626
1761284413.30835,3.2549560553838677,-0.007599374789327386,1.1420632346721973,-0.03972912983257928,-24.14893418731808,9.327448548377326,-19.48863955467163
1761284413.3186054,2.9580768882885886,-0.011194813220920601,1.0976432657724478,0.0023549464377322846,-26.31112920678759,9.678861340675258,-24.21425064248344
1761284413.32844,2.620917446059377,-0.010711884808805543,1.0518723079520769,0.038008643734590696,-28.591724619101072,10.054464737058513,-28.829640214009718
1761284413.3383775,2.247373861475805,-0.00727375193143806,1.0074944175191396,0.06640261390259314,-31.069370352549665,10.578724890937249,-33.33669408072868
1761284413.3484106,1.840166735713565,-0.0020976214495625526,0.9669886050713127,0.0870933111844809,-33.79731737527724,11.324938321965014,-37.72945764191095
1761284413.3583844,1.401137005249391,0.003673922676462325,0.9323894406480854,0.09998108876492869,-36.78541425963723,12.297461416772647,-41.9855913908331
1761284413.368378,0.9316808976607421,0.009090613323334688,0.9051591575321171,0.10527726006803866,-39.98937570912224,13.428095303452196,-46.06234839887723
1761284413.3783417,0.43321320167089794,0.013441052561997069,0.8861150797912312,0.10348423418045657,-43.30902093649758,14.586996536477551,-49.897820525944034
1761284413.3887095,-0.09244759168495266,0.016229827548578612,0.8754144318191505,0.09538151884538863,-46.595397017340204,15.605296451052125,-53.41696548509012
1761284413.3983688,-0.6428479501132428,0.01710915877901669,0.872597157352091,0.08200581058823092,-49.66519327304094,16.30419393924324,-56.54091381772595
1761284413.408605,-1.2148508867811032,0.01580309961433893,0.8766836226316925,0.06461419626211484,-52.31979730521142,16.524227800591483,-59.19748835530442
1761284413.4183748,-1.804751829054969,0.012061881309861232,0.8863176866507034,0.0446229831739837,-54.36583657744012,16.148970949411943,-61.33085180865402
1761284413.4299672,-2.408503894103269,0.005668471485208657,0.8999380117719834,0.02352014914711897,-55.634103953491476,15.119265393052622,-62.908658567320245
1761284413.4399343,-3.0219808560189394,-0.003505323325202818,0.9159534521052339,0.00275680342599886,-55.994312293863494,13.436691211726094,-63.92580140986054
1761284413.4483511,-3.6412115639833904,-0.015419434012623892,0.9328944852946685,-0.016368837314474288,-55.364040343729904,11.157466346075122,-64.40457108276273
1761284413.458357,-4.262544560893207,-0.02980091212812152,0.9495158854717594,-0.032815034709712594,-53.711361837090955,8.379750523899645,-64.39163437349886
1761284413.468371,-4.882735397816777,-0.04612719629321682,0.964838488160123,-0.04586626213596921,-51.05180579184242,5.228015264224637,-63.952632118545495
1761284413.4783556,-5.498975974438913,-0.06367114026481488,0.97813617096794,-0.055153955943127934,-47.44127565214222,1.8377839744120033,-63.16540803014006
1761284413.4883847,-6.108894641955502,-0.08159727041005528,0.9888893727617332,-0.06062636761007078,-42.96714905461318,-1.656997214969886,-62.11291745863799
1761284413.4984431,-6.7105488339819885,-0.09907925138659086,0.996732141587278,-0.062479685052343185,-37.739823529233895,-5.13296489559249,-60.876736610688184
1761284413.5085278,-7.302417320017354,-0.11540169464533118,1.0014155781800909,-0.06107081335131168,-31.8864351599449,-8.482830920300554,-59.531811661088454
1761284413.5184715,-7.883385760844534,-0.1300180091465526,1.0027999056376706,-0.056832638924688164,-25.547494259382045,-11.618178162610013,-58.14271050982662
1761284413.5283818,-8.452712691371623,-0.14255569982649546,1.0008739699737603,-0.050207596790347614,-18.876026094227882,-14.47062199482294,-56.761272533366494
1761284413.5383604,-9.00996500567208,-0.15278184745581228,0.9957887886689939,-0.041607879540314995,-12.03783092866607,-16.99226293376398,-55.42531306592978
1761284413.5483758,-9.554920449678118,-0.16055511858232918,0.9878851414803772,-0.03140296879041771,-5.211017439065585,-19.15598462458051,-54.15800568328678
1761284413.5583575,-10.087444902684474,-0.16579157800981673,0.9776970256451054,-0.019929216580684448,1.4168474751810787,-20.955717338811617,-52.96771991504221
1761284413.5704272,-10.607359284267195,-0.16846059748867726,0.9659222196926595,-0.007513065170612613,7.654932120878763,-22.406432088058683,-51.84832650763558
1761284413.578353,-11.114312498626306,-0.16861043632304756,0.9533632113186208,0.005500912899589186,13.318721837371857,-23.54342015516179,-50.7801656824589
1761284413.5884023,-11.607675350581676,-0.16640916798032515,0.9408504404070102,0.018724880255268906,18.242153985159096,-24.420340984842493,-49.73193492984807
1761284413.5984747,-12.086469995641728,-0.16218150464274855,0.9291627176794883,0.03171223911291681,22.290788309107807,-25.10556844433713,-48.6636974040955
1761284413.608373,-12.549350628148089,-0.15642568261970713,0.918957991308575,0.04395810982775698,25.374121214942793,-25.676541156059443,-47.53107596139782
1761284413.6183784,-12.994649994007373,-0.14980216176046432,0.9107229056611752,0.05492114938626003,27.45512815473778,-26.21213444561314,-46.29051183720761
1761284413.6283677,-13.420500052359003,-0.14309288015873362,0.9047427998715933,0.06406895962228674,28.55541612079277,-26.783472859007713,-44.90525697135882
1761284413.639936,-13.82502443815143,-0.13713482996322207,0.901087151283925,0.07094360084486563,28.75494033498686,-27.443996246201113,-43.35156552487451
1761284413.6483867,-14.206587914080455,-0.13273528938148318,0.899602287847598,0.07523641506255321,28.18600342060895,-28.219883248507568,-41.62438305256901
1761284413.6584413,-14.564076577939215,-0.1305786130564098,0.8999052799648073,0.07685477652143088,27.02206899138903,-29.102073069228393,-39.74171881652093
1761284413.668413,-14.897174438068717,-0.13113654674173528,0.9013791000233335,0.07596059019789014,25.462631855397916,-30.041105010722536,-37.746839971628084
1761284413.6784437,-15.206597560014588,-0.13459609031757325,0.903176110454327,0.07296379495479176,23.7158889839956,-30.945823522242456,-35.7074716090592
1761284413.688436,-15.49424563205046,-0.14082036456930627,0.9042412381432018,0.06846367809816298,21.98119822412013,-31.686674747325704,-33.71136053306684
1761284413.6984193,-15.763232986983333,-0.14935672809315437,0.9033658020022266,0.06314334718908313,20.433291776891377,-32.10386002080941,-31.85789230716609
1761284413.7087033,-16.01776888383295,-0.15950057674306103,0.8992780126521294,0.05763406274940505,19.209967905374434,-32.02006592801963,-30.24595380369959
1761284413.718425,-16.26287163851757,-0.17041295257951852,0.890768801889563,0.05237354896294521,18.404573784648523,-31.256957300482256,-28.958890083765912
1761284413.7284195,-16.503922261393466,-0.18127819346631815,0.8768450536415046,0.047485333418468466,18.06405116251983,-29.654198989442545,-28.04813759566117
1761284413.7384088,-16.746087751061182,-0.19147836132072044,0.8568986907959634,0.04270528003532192,18.192648501884797,-27.08950326246214,-27.517779715680376
1761284413.7484837,-16.993668091132644,-0.20075644859752476,0.8308787019192838,0.0373769303202463,18.76061891736118,-23.498029768903475,-27.312691121011788
1761284413.758408,-17.249440251068823,-0.20933993683699756,0.7994510407594502,0.030528307147707177,19.716406875363433,-18.889302129073574,-27.312963519294556
1761284413.7684135,-17.514083409939555,-0.2179982658002072,0.7641262029428151,0.021029474169714187,21.000151744777206,-13.359633409519859,-27.336830692365982
1761284413.77841,-17.785768826076655,-0.22801122177760533,0.7273271947626273,0.007814619465078143,22.555985557277257,-7.098006224600602,-27.153295973713565
1761284413.7884657,-18.059983157815072,-0.24103136288101717,0.6923652991545147,-0.009861920552716502,24.340684097897594,-0.3836292281048762,-26.504196601863505
1761284413.7983906,-18.329626345308967,-0.2588345074333538,0.6632917274270459,-0.032177371102752136,26.32677994461282,6.425943758463633,-25.133760941790506
1761284413.8084066,-18.585388466910683,-0.2829692464512214,0.644602441779576,-0.05854891116159214,28.499245214856394,12.916319114197155,-22.82216292053475
1761284413.8184261,-18.8163707822754,-0.31433917732181377,0.6407915680039591,-0.08754955893687534,30.846189660797208,18.6465639716741,-19.41846960865053
1761284413.8288393,-19.010881870405104,-0.35277782749527087,0.6557757317743746,-0.11697417864592646,33.345456943800606,23.1864516850093,-14.867937627778385
1761284413.8384058,-19.157316787174256,-0.3966999292720559,0.6922461191114123,-0.14407497575523961,35.950205795729666,26.157778072171883,-9.228962090236804
1761284413.8483956,-19.24501917393264,-0.4429241405134367,0.7510408547489679,-0.16594797889638763,38.57718564963726,27.27583809711387,-2.676139575545115
1761284413.858493,-19.26503367621893,-0.4867527356036704,0.8306556550606965,-0.1800093839301145,41.10120033876952,26.386216429086932,4.512208792091311
1761284413.8684187,-19.21067679177057,-0.5223598217995956,0.9270143736930799,-0.18447038630675022,43.358163272325804,23.49156424123846,11.981321105066705
1761284413.87839,-19.077884285622964,-0.5434838389229526,1.0335976311656019,-0.17871583169291178,45.15744028815188,18.763498936469794,19.338859710834452
1761284413.888418,-18.865326824913087,-0.5443506434514702,1.1419786037786195,-0.1635158416832074,46.302304132774694,12.536441665570788,26.200027230450598
1761284413.8983798,-18.574316262474937,-0.520685217183672,1.2427469050164257,-0.14103601554563674,46.61572601280905,5.282853589073823,32.232320767474754
1761284413.9083748,-18.208548146637675,-0.47062264660569275,1.3267222692899525,-0.11464532163671125,45.96767170774953,-2.42773986330598,37.19313588508468
1761284413.918384,-17.773739129851602,-0.39531966014894737,1.3862769210951333,-0.08854496058174002,44.29960200360854,-9.981094798538518,40.95444146783483
1761284413.9284093,-17.277221012605594,-0.2991061422732638,1.4165151299900431,-0.06725604838813766,41.641909766405675,-16.775653696672947,43.51075708629349
1761284413.9384232,-16.727547627858858,-0.1891030673185273,1.4160355002611626,-0.055012402812084596,38.1205347675218,-22.278326970046663,44.96931952195325
1761284413.948412,-16.134158023256585,-0.07435613920925524,1.3870662718422322,-0.055118656679162256,33.95015138517792,-26.072428826451674,45.52426163267355
1761284413.9584067,-15.507120348979614,0.035344830708010644,1.3349218906594935,-0.06936542030936875,29.41328056494433,-27.89250878582573,45.41944814984462
1761284413.9683895,-14.856957539068349,0.13072335125734177,1.2669252318247142,-0.09763127719864696,24.827277237457462,-27.64232707570062,44.90675412729101
1761284413.9783666,-14.194532802899873,0.2041253786868331,1.1910855565999177,-0.13780667065630342,20.50390871773935,-25.394516106136543,44.20738465686948
1761284413.9884236,-13.530955072419891,0.25032632141726224,1.1148564113679589,-0.18611224527499656,16.708505637802265,-21.37333179059519,43.48292613863552
1761284413.99855,-12.877454104300215,0.26696774518072275,1.0442219723450004,-0.2377637454824416,13.626632812911366,-15.924464763674424,42.82035569900324
1761284414.00841,-12.245172807078687,0.2546242970411012,0.9832258471498831,-0.28781539566429715,11.345177327069553,-9.477232307808196,42.2319661133697
1761284414.0184147,-11.644834059602768,0.21654405340425004,0.933925828672891,-0.33195909617654007,9.851557621675711,-2.5042643557733326,41.6681152185697
1761284414.0284014,-11.0862658743134,0.15812620469956745,0.8966728520072638,-0.36709159567855076,9.050215969562514,4.517548082450627,41.038685488821365
1761284414.0385814,-10.577812121666323,0.08620970842072427,0.8705793172165711,-0.39155767952237897,8.79119953919649,11.142640152866159,40.23838287388015
1761284414.0486279,-10.125705227590172,0.008255968292579071,0.8540453678235665,-0.4050831520459976,8.90305974001318,16.987648162366387,39.17127777134598
1761284414.0584047,-9.733512557023122,-0.06848051642231344,0.8452348255847804,-0.4084870684249382,9.222343423311097,21.75641771003908,37.770916379195725
1761284414.0684888,-9.40177209158386,-0.1376945748642907,0.8424270115990892,-0.40329297348030796,9.614263999291433,25.257598654177826,36.01360490873005
1761284414.0784593,-9.127902314333484,-0.19459689917098572,0.8442123943047654,-0.39134888944757495,9.982501944284575,27.41305215188995,33.9238692926706
1761284414.0884447,-8.90641825597165,-0.23624376214539017,0.8495416230572768,-0.3745310671781492,10.269160745724726,28.255719260752173,31.572418673102813
1761284414.0984378,-8.729427784352323,-0.2616085226577806,0.8576685172729664,-0.35456391745953286,10.447869377498058,27.91673377874348,29.068005678124365
1761284414.1084485,-8.587332619063439,-0.2714132969163248,0.8680403487789009,-0.33295060459674425,10.513688859758354,26.60307397240026,26.545235722954114
1761284414.1184516,-8.469625827946935,-0.2677711794033802,0.880183531119179,-0.31098276379880263,10.473091965479302,24.568503845306886,24.150568919986828
1761284414.1284356,-8.365667764467819,-0.2537104588676753,0.8936166396978917,-0.2897864695647194,10.3362561760899,22.081618854299865,22.028536017668678
1761284414.138519,-8.265338081863554,-0.23266112359399477,0.9078042350366574,-0.2703641053405374,10.112658440412723,19.395271767860798,20.30970438940944
1761284414.149128,-8.159499479110837,-0.20798029132750243,0.9221503139961088,-0.253604978264516,9.809825977014993,16.721406090362773,19.101348104332047
1761284414.1587927,-8.040258831266046,-0.18257795547338032,0.9360215896951591,-0.2402567035005475,9.43431256607375,14.214375484426185,18.48121459588902
1761284414.1683996,-7.901057097054556,-0.1586798174366261,0.9487877886741205,-0.23086843457108058,8.993645817171553,11.964325890391148,18.494302889162515
1761284414.1784096,-7.736645905635808,-0.13773471281291974,0.9598672376290527,-0.225729350258417,8.498103617995378,10.000466741320968,19.15221665909908
1761284414.18846,-7.543011187181377,-0.12044766438477783,0.9687691447028555,-0.22482734710048857,7.96158340327836,8.302458400623891,20.43446160905623
1761284414.1996984,-7.317289801833933,-0.10690267527602286,0.9751269958670146,-0.22784476771286863,7.401327227907962,6.817046834462988,22.291023850698533
1761284414.2084732,-7.057705957173945,-0.09673442180255164,0.9787192829749557,-0.23419566742883088,6.836681065760764,5.476660042306728,24.645664028987493
1761284414.2184286,-6.763538993468486,-0.08931280106057234,0.979475062444068,-0.24309835262086527,6.287291361136284,4.216907323942613,27.399548902480394
1761284414.2285497,-6.43512499361822,-0.08391406065184101,0.9774640103486782,-0.25367043190488214,5.771164267328425,2.990599868746786,30.435070963122826
1761284414.2384732,-6.073888211713435,-0.07986159127237032,0.9728739595721304,-0.2650307649706471,5.302909443336705,1.7767967792759702,33.61992276353596
1761284414.2484233,-5.682388749388162,-0.07662492256017576,0.9659819853625132,-0.27639189471743075,4.892367035589963,0.584271219954357,36.811652603411204
1761284414.2584355,-5.264358076007074,-0.0738682502744517,0.9571260162623951,-0.28712778323776833,4.54373683896845,-0.5504278318934808,39.863009046314865
1761284414.268446,-4.824679460355503,-0.0714443649400799,0.9466819900615542,-0.29680617127464426,4.255289215106178,-1.569495030837486,42.62835511080964
1761284414.2784376,-4.369265617377283,-0.06933828672543509,0.9350480636743816,-0.30518275051940374,4.019703503238197,-2.403617632935795,44.971261859436886
1761284414.288547,-3.9047963002362476,-0.06757479040153533,0.9226345657435754,-0.3121633992090189,3.8250308076851534,-2.983220107712226,46.77307647459861
1761284414.2984588,-3.438302591020235,-0.06611154426728257,0.9098576293409909,-0.31774780181504403,3.656220537489754,-3.249326674148976,47.94187694355083
1761284414.3084311,-2.976616695588034,-0.06474317831936971,0.8971353688190774,-0.32197090530456995,3.497097907533344,-3.1623493993622698,48.420892416969465
1761284414.3184311,-2.525740274994624,-0.06304170567529656,0.8848864786122861,-0.32485807183426285,3.3326330751472937,-2.707614375592369,48.1952788574133
1761284414.328482,-2.090215238599404,-0.06035539220477098,0.8735310948399803,-0.32640641273782817,3.15128961063081,-1.8971289425704638,47.29613579203606
1761284414.3386211,-1.672601804923147,-0.055879637895453256,0.8634929957333237,-0.32659871088103765,2.947176134195651,-0.7677894180840253,45.800840251455625
1761284414.3484917,-1.2731714964240546,-0.048798074413585864,0.8552015278294428,-0.3254477066842486,2.7216671543943156,0.62320428164992,43.829140157282346
1761284414.3594227,-0.8899011380175151,-0.03847175994800326,0.8490910759157161,-0.32305930325656856,2.4841376969822053,2.2045923424013028,41.534943532447414
1761284414.368582,-0.5188070694953499,-0.02463532295616843,0.8455952538284773,-0.3196966015874099,2.2514971003361173,3.897682323848403,39.09429713985523
1761284414.3784313,-0.15459401872638648,-0.007549216093951117,0.8451327718237492,-0.315824754716014,2.046322658992861,5.622198581287042,36.69058866328043
1761284414.3884606,0.2084742802529078,0.011937651259721625,0.8480828738072295,-0.31211956581114725,1.893581163420789,7.300581185194765,34.49842293185999
1761284414.3984573,0.575625833907037,0.03244090543421213,0.854750550450449,-0.3094294480877593,1.8161705575806846,8.860584223509624,32.66781180324561
1761284414.408482,0.9507111643309583,0.05220639450237757,0.865324895545316,-0.30868946834891975,1.8297904214039908,10.236699971490182,31.31024686598412
1761284414.4189029,1.33554689940454,0.06935613033530812,0.8798365010086172,-0.3107961321661393,1.9379224145795384,11.371384167096961,30.487945784642527
1761284414.428532,1.7295466754143838,0.08216165666021004,0.8981199478234461,-0.3164600916952172,2.127913132892455,12.217055718495542,30.20716218856382
1761284414.438476,2.129644541211874,0.0892874220910242,0.9197853502378185,-0.32605873016268383,2.3692245837935064,12.739373836099855,30.416001265812724
1761284414.4484844,2.530459016076375,0.08995788969996524,0.9442009211972731,-0.3395105966640954,2.614770124350474,12.921554434804337,31.00674768342297
1761284414.4589937,2.9246166815598635,0.08402332967929524,0.9704889178574905,-0.3561896460135141,2.805824711954968,12.768783243564682,31.82233845958199
1761284414.4684544,3.3031564184527835,0.07192342966329933,0.9975405560022154,-0.3748911840508228,2.8802759697821267,12.311401007031815,32.66633840582951
1761284414.4784553,3.6559625341907878,0.05456950818350809,1.0240602566927317,-0.3938568317586328,2.783051170415147,11.605631872087963,33.31560980399791
1761284414.4884973,3.9722137994609863,0.03318145874101133,1.0486526464189025,-0.41086596326451896,2.4766453004087197,10.731160860739463,33.53478811932431
1761284414.4984655,4.2408681601412646,0.00912053394818139,1.0699619453066347,-0.42340371446418484,1.9491385753117976,9.785622430163219,33.09164871901472
1761284414.5085897,4.451210883837951,-0.016249683513525175,1.0868583528256897,-0.42891182150622875,1.2172393844686151,8.876738593677784,31.772465705172678
1761284414.5185182,4.593467456678456,-0.041661116744872356,1.0986414237376034,-0.4251110482325353,0.3227965551985836,8.113193261893231,29.396537892171416
1761284414.5286784,4.659431362871084,-0.06600392152010802,1.105207481318469,-0.41035646365859657,-0.6773190431822229,7.595282166909534,25.829184381717162
1761284414.5384712,4.643007149479381,-0.08836889825109001,1.1071221996118008,-0.3839618084651665,-1.7264542575692623,7.40608900400516,20.992634935291683
1761284414.548645,4.5405497734078395,-0.10807999287204906,1.105558117086997,-0.34641910910306156,-2.785695831756452,7.603658517103264,14.874290921038638
1761284414.5585332,4.350911616780545,-0.12471359202897415,1.1020945718033124,-0.29945145730256506,-3.8501323182441625,8.214517079582171,7.5318160590975785
1761284414.5684638,4.075188485477887,-0.13808736671153285,1.0984205785496401,-0.24586954216630347,-4.960388583075234,9.228910133243067,-0.9054986895693459
1761284414.5784478,3.716255060085591,-0.1482000785339145,1.096013420530005,-0.18924661047367025,-6.2067343973617355,10.59818530681958,-10.23962212428011
1761284414.5885472,3.2782470463992706,-0.1551217708441735,1.095874592535678,-0.1334677206480898,-7.724281004584012,12.23480087354449,-20.21136351918945
1761284414.5984488,2.766145744144009,-0.1588612174635407,1.0983870591240903,-0.08223523988990933,-9.679181096523518,14.015503105521622,-30.5128977297896
1761284414.6084316,2.185558452260401,-0.15925556573837354,1.1033207863832963,-0.03861819858842013,-12.247173638597188,15.788288407665798,-40.805107492162605
1761284414.6185675,1.5427014661752503,-0.15592652992552666,1.1099701224154632,-0.00472022035321492,-15.587141927171883,17.38370821627688,-50.739029511546605
1761284414.6284606,0.8445156682723526,-0.14833218862306105,1.117371192337065,0.018485263001968653,-19.813401363078402,18.630629405971007,-59.979968067000804
1761284414.638503,0.09879848095674404,-0.13592029021196356,1.1245326300354894,0.031138148620255556,-24.970972367691868,19.3755403721696,-68.23214036309129
1761284414.6485412,-0.6857704165727767,-0.11836239849880789,1.1306240720363205,0.034316954127903025,-31.017939160787808,19.503021180459665,-75.26123557361797
1761284414.6584601,-1.4997999256613868,-0.095821537114522,1.1350955175625157,0.029762649855496884,-37.81809228798086,18.953620411938832,-80.912151573795
1761284414.6685138,-2.3335858355384063,-0.06918458204176833,1.1377274790487348,0.01957135500148812,-45.14553306712439,17.734851043563722,-85.1195175719885
1761284414.6784616,-3.177699493320803,-0.040184500015598014,1.1386227511315017,0.0059168042071475625,-52.701088212350356,15.921841948410096,-87.90945112725092
1761284414.688459,-4.023672689664262,-0.01135572020043527,1.1381483594881259,-0.009160365417863981,-60.138592120211605,13.646274741464433,-89.3922086996846
1761284414.6984212,-4.864652727947849,0.014194559675840894,1.1368316075335219,-0.023885445858941822,-67.09759782233061,11.074944258362509,-89.74669496699713
1761284414.7084665,-5.695899732488015,0.033171510062879446,1.1352139610801393,-0.036814147954128865,-73.23805267977747,8.381738472120109,-89.19891265324115
1761284414.7184677,-6.515022589010147,0.0425729683605279,1.133673585548647,-0.04684958744266713,-78.2721080969674,5.718344230867054,-87.99715542549833
1761284414.7284558,-7.3218925852593255,0.04018635916479361,1.132241303992114,-0.05323421891350721,-81.98867148541501,3.189246565425542,-86.38697369824115
1761284414.7385771,-8.118226749850752,0.025018582413468392,1.1304490998986707,-0.05553497775922051,-84.26750908259484,0.8357131976310519,-84.58870576776981
1761284414.7485404,-8.906888238095535,-0.002420012710652007,1.127255510360536,-0.05363378660856228,-85.08141826894462,-1.3682069469256186,-82.77978568448158
1761284414.7584743,-9.690999946257536,-0.040038158674421453,1.1210832492728242,-0.04772791415926751,-84.48688649328557,-3.5067302269501623,-81.083257451972
1761284414.7684925,-10.47300073890947,-0.08432011327246572,1.109982900578943,-0.038334946110645585,-82.60542344802884,-5.701733030586133,-79.56305993734408
1761284414.7785466,-11.253784846827907,-0.13070136331750326,1.0919089376628528,-0.02628765802747048,-79.59907134130877,-8.083979016955974,-78.22578116987184
1761284414.7885573,-12.032052574111608,-0.17410837265725224,1.0650692450755719,-0.012699322455016676,-75.64420958328859,-10.761480808447683,-77.02779338690134
1761284414.798523,-12.803968215671931,-0.20957928080708324,1.0282939036603849,0.0011168066129302744,-70.90762508640394,-13.791295818230557,-75.88608429110995
1761284414.8084705,-13.563176516925903,-0.23287454792400153,0.9813655556897736,0.013779797008266195,-65.52810345405243,-17.16076954071993,-74.69082193749276
1761284414.8185434,-14.301179695671179,-0.2409959476161515,0.925260228439326,0.02401813514462437,-59.60579215496439,-20.78250792975131,-73.3178019274067
1761284414.8286312,-15.008028186290698,-0.23254868107859958,0.8622602748141608,0.03087233435622652,-53.20049521127432,-24.504494684977974,-71.63940416571893
1761284414.8387222,-15.673234202154996,-0.20789832986600462,0.7959149415614778,0.033892587363175124,-46.33893610570228,-28.13343452654446,-69.53342191344167
1761284414.8484545,-16.286784499013052,-0.1690959163694448,0.7308349974994257,0.033292416741462494,-39.029844953036445,-31.4663823849489,-66.8899328017523
1761284414.8584473,-16.84011531830451,-0.11957695854722472,0.6723187597672526,0.03001796822441462,-31.284480918787594,-34.32373492162358,-63.61703305624585
1761284414.8684483,-17.326922964512278,-0.06368167962415608,0.625825699230334,0.025702213936635528,-23.139023811504472,-36.5762080161358,-59.64655763398897
1761284414.878459,-17.743715719644474,-0.006081755465727479,0.5963421347926163,0.02249238585792046,-14.674492977001842,-38.159593403782374,-54.940761474701276
1761284414.8884828,-18.090058915601915,0.04877945035752602,0.5877118976473307,0.0227619917347954,-6.029858355159904,-39.07360492327589,-49.50035287360363
1761284414.8986018,-18.368513954311066,0.09713067657061056,0.602021749372633,0.02874054853149907,2.595049657054333,-39.364539097630086,-43.373379681221245
1761284414.908578,-18.584312833329847,0.13612975720939136,0.6391329380449223,0.04211174102872528,10.948546669009897,-39.095196691378604,-36.66351270500837
1761284414.9185889,-18.744835091352353,0.16391267313662689,0.6964413776967882,0.06364213275958339,18.74775496665027,-38.30875483402557,-29.535513551799564
1761284414.92866,-18.858963414712374,0.179465074698668,0.768936202767644,0.09290568614757688,25.708779470948766,-36.9952306771289,-22.215320975494222
1761284414.9385338,-18.936392066053948,0.18238549276034766,0.8496096726837837,0.12816238699124238,31.582613034147432,-35.06934103900891,-14.98238165255989
1761284414.9485345,-18.98695434010174,0.1726279378141934,0.9302411624992851,0.16643114453291005,36.19154846635835,-32.36690602300084,-8.152663237399405
1761284414.958601,-19.02002476251318,0.15030733418778025,1.0025220913634063,0.20376788461202167,39.45983217536135,-28.66378240611952,-2.052189828419674
1761284414.9685144,-19.04403924643211,0.11562331632831205,1.059399780887518,0.2357225234172568,41.432137634693895,-23.71715382433649,3.017212831139755
1761284414.9784784,-19.066158426317152,0.06891026862405043,1.096403880662588,0.25791147498140815,42.27471220566756,-17.32447580245968,6.816246101981919
1761284414.988699,-19.09206743617942,0.010773969911945552,1.1126271762041893,0.2666174701650571,42.25696736661364,-9.391163936980288,9.205024740186937
1761284414.9984674,-19.12585612691256,-0.057738530084726104,1.1110546484544213,0.2593256383653442,41.71537056311098,0.005062363831930034,10.171977912183987
1761284415.008473,-19.16988023126606,-0.13495900864371027,1.0981117117848451,0.23512299867280967,41.00556617550821,10.56670134008524,9.848484611592776
1761284415.0184767,-19.224512207077296,-0.21839980794991984,1.0825316840738923,0.19491370506402658,40.45126555486781,21.7584711565476,8.504731536912669
1761284415.028463,-19.287769630905355,-0.30454421250283126,1.0737763267672573,0.14142050829944736,40.29869824916149,32.82789395571134,6.52533187885061
1761284415.0384703,-19.354916575655903,-0.38868188612076143,1.0802672659167012,0.07895492289670046,40.68348257237327,42.867684245205474,4.366988085511064
1761284415.0484707,-19.41820235972246,-0.46487923170645096,1.1076916360097226,0.01295694856452077,41.61381072787482,50.91576487754446,2.504105966727379
1761284415.0584915,-19.46690079037111,-0.5261747718672996,1.1576722889525741,-0.05066340291519,42.971243846935856,56.08119839912278,1.3708801018907182
1761284415.0684805,-19.4877553992224,-0.5650729127932261,1.2270971428865518,-0.10631190694424202,44.52881922357522,57.67825822983019,1.3092602125287625
1761284415.07847,-19.46585268495905,-0.5743775666836956,1.3083339557319251,-0.14951703634783567,45.985081165400025,55.347560349313,2.5311003392906724
1761284415.0884807,-19.38586121010983,-0.5483398567482082,1.3904053996719412,-0.17762779657654287,47.01106482596362,49.14323481921228,5.099923157951968
1761284415.0984774,-19.233504694886275,-0.4839810098273775,1.460983924849304,-0.19026624585990606,47.304758902313665,39.56851419771059,8.93378732245635
1761284415.1084952,-18.997089316465384,-0.3823145571035702,1.508823336583186,-0.18941815954831379,46.644686251405865,27.548524869959543,13.826726832021281
1761284415.118491,-18.6688830526112,-0.24909125198939136,1.5260430626701185,-0.17909913250239537,44.932187985119484,14.338134104564906,19.483147821109384
1761284415.128508,-18.24615221639015,-0.0947103058951539,1.5096363846226442,-0.16462375285043337,42.21225680028505,1.373844844202613,25.558077723511555
1761284415.1384912,-17.731701172523554,0.06686472888148386,1.461782204857392,-0.15161619765314063,38.66646635075766,-9.90963814974484,31.696419649261657
1761284415.148582,-17.133834589078063,0.22002787478755875,1.3889523134672124,-0.14498989754994218,34.578394135522274,-18.26840831213703,37.56605013148931
1761284415.1584902,-16.465756183032983,0.349843766420018,1.300209518321089,-0.14814244182666564,30.27964311062992,-22.811017756614454,42.881984598487456
1761284415.1685042,-15.744510327481693,0.4441983227553474,1.2052777299396953,-0.16254027385984643,26.089912250002943,-23.10485228145546,47.421051514607555
1761284415.1785004,-14.989635339980238,0.4953417038261103,1.1128933125347444,-0.18773618067586142,22.265454819665415,-19.211380484043044,51.02799283566416
1761284415.1885064,-14.221713722124662,0.5006079161804301,1.0297286772489505,-0.22173205474260055,18.96681645658949,-11.649663019188978,53.61459720085589
1761284415.1984951,-13.460980211941237,0.46232146117355427,0.9599499773236785,-0.2615229668203339,16.250688972339336,-1.3008516012239333,55.15366495236016
1761284415.2084932,-12.726103263773759,0.3870499450424441,0.905309184939582,-0.3036546765496795,14.084139617659774,10.72545113572356,55.669605518151045
1761284415.2185378,-12.03321082828575,0.2844224393570393,0.865593424362605,-0.34467913637956027,12.374148151867235,23.239695330445336,55.22740338888019
1761284415.2285063,-11.3951993877201,0.1657328345495598,0.8392445285663518,-0.3814672437818216,11.002596825048453,35.114404831140064,53.921530050850016
1761284415.2385364,-10.821344639952184,0.042520962054382785,0.8239924303633654,-0.4114003452029829,9.857182847095974,45.40273132655499,51.86608607951565
1761284415.2485538,-10.317211216877105,-0.07470402357180883,0.8173927174718162,-0.432489606799679,8.851710950488142,53.42186300377427,49.18706226188645
1761284415.2585058,-9.88482786521215,-0.17746139918999496,0.817207278243243,-0.4434636252254834,7.933544898308654,58.795069410315634,46.01717503302866
1761284415.2684958,-9.523057755443858,-0.2599201941107427,0.8216122844787311,-0.44383575909922934,7.08003685662881,61.45156552857203,42.493281749857566
1761284415.2785215,-9.228066760814324,-0.31910323844081545,0.8292554708302211,-0.43393545375314885,6.288260407810667,61.58864111671271,38.755899424503404
1761284415.2885222,-8.99379031050481,-0.3546992066118386,0.8392084607660004,-0.41487720143926216,5.562889377156255,59.6052390097154,34.949871974615405
1761284415.2985685,-8.812324914349256,-0.3685664166282186,0.8508659269849765,-0.3884492446725888,4.9060060398913015,56.01960151942681,31.22489156862422
1761284415.3084834,-8.674214591757309,-0.3640495219172869,0.863833862893326,-0.35692404991436416,4.310895126633802,51.38491127851845,27.734537136470777
1761284415.3185942,-8.568650097038104,-0.3452419547842194,0.87783151270341,-0.3228129093912058,3.76028866604248,46.21566355697439,24.6328178986512
1761284415.3285215,-8.483636065822362,-0.31631523791383853,0.8926144535935069,-0.2885999490821165,3.2284413159065237,40.93417815439839,22.067843144548466
1761284415.3385336,-8.406200119902367,-0.28100696536129255,0.9079164267924427,-0.2564941847686123,2.685845206527913,35.84208451132229,20.173003833787703
1761284415.3485372,-8.322717491497277,-0.2423201505126941,0.923406213594663,-0.22823369728787019,2.1052161055265493,31.11681072043754,19.056716831706016
1761284415.3587532,-8.219407059893463,-0.20244488328639862,0.9386595104398967,-0.20496587179251868,1.4674834092405795,26.828930891069348,18.792182894179344
1761284415.3685045,-8.083021583225664,-0.1628737689047931,0.9531487496798803,-0.18721408786454405,0.7667886718277023,22.97327560280836,19.408699937456323
1761284415.3785138,-7.901708371297399,-0.12464956573218662,0.9662528858750731,-0.17492670528190482,0.013823752846846485,19.505319505039385,20.88589174758952
1761284415.3885732,-7.665963187799724,-0.08866215416374043,0.9772852511024787,-0.16759138091537779,-0.76288015954347,16.374614428282666,23.15183385257049
1761284415.3985252,-7.369552820705727,-0.05590797264835802,0.985533840727509,-0.16438906853183677,-1.517908680031735,13.54878941017164,26.0855650086003
1761284415.408521,-7.010255738900416,-0.02764003889081917,0.9903074135227609,-0.16435925631960543,-2.192231548361087,11.024488660619161,29.523933920075283
1761284415.418562,-6.59027577746141,-0.005366624444733634,0.9909832919847888,-0.16655150704577965,-2.7187154302378165,8.824919079923536,33.27221132022679
1761284415.4285486,-6.116222561372288,0.009305687005432483,0.9870573305569202,-0.17014641415746978,-3.0296150243749773,6.986692964722263,37.11746335156421
1761284415.4397936,-5.5986175478617675,0.014951515400328623,0.9782002094783561,-0.17453819317696553,-3.065472121291847,5.540772664605592,40.8433840843415
1761284415.4487662,-5.050961194051186,0.010666935078917193,0.9643242586997873,-0.17937803456854567,-2.784485011046617,4.4931999232883575,44.24516993581663
1761284415.4586198,-4.488465456071978,-0.003605629600233631,0.9456607664430405,-0.18458087085513333,-2.171080770716582,3.810848086207101,47.143133431549025
1761284415.4686098,-3.92660179651303,-0.02684257240819132,0.9228407149190748,-0.19029939672843182,-1.2422435292191734,3.4158892067146183,49.394070362143054
1761284415.4785547,-3.379634748949706,-0.05685449646347622,0.8969644290161707,-0.1968698812834056,-0.05020970847342184,3.1904818325992204,50.899758944784395
1761284415.4902108,-2.8593098147637606,-0.0903865080483413,0.8696399225494853,-0.20473586216999343,1.3194912086053296,2.990888296927689,51.61219574153334
1761284415.4999795,-2.3738470332369737,-0.1234041786273645,0.842968134480016,-0.21435827448743966,2.754952456059761,2.6682677103142542,51.535194312216625
1761284415.5085351,-1.9273595088463047,-0.15153020928947528,0.8194579265684556,-0.22612240377365286,4.129084412974427,2.0920920134114427,50.72189750842592
1761284415.5185318,-1.5197703117894255,-0.17056936316728338,0.8018644488610502,-0.24025146676694326,5.313457968730232,1.1717088310406265,49.26779634261368
1761284415.528553,-1.1472444925169099,-0.17704640101581964,0.7929576684714049,-0.2567337392967765,6.192590709704093,-0.12791422296678778,47.299197002006736
1761284415.5385294,-0.8030896502549085,-0.16868096150830716,0.7952398166007704,-0.27526659923535046,6.676437851653123,-1.778916647578216,44.9577798410824
1761284415.5485528,-0.4790127981016092,-0.14472853703572217,0.8106407417246058,-0.29521830224451506,6.709281779771284,-3.6926405996295304,42.38278461644892
1761284415.5585995,-0.1665621007479426,-0.10612923402000199,0.8402290964862259,-0.31560881482548975,6.273911022878743,-5.730285813842009,39.69310509771154
1761284415.5686045,0.1414532539272555,-0.055433351630823254,0.8839826538279844,-0.33511561029438286,5.39076650134328,-7.7200150564048045,36.97189240626889
1761284415.5785782,0.4497666990158739,0.0034859077864687624,0.940658938805585,-0.3521159146560509,4.1124887635819265,-9.477598287910455,34.25606561311053
1761284415.588529,0.75983655100862,0.0658821747960471,1.0077957360143366,-0.36477819047622,2.514921891220059,-10.827395171826597,31.532479566537127
1761284415.5985765,1.069490200590183,0.12667463266271584,1.0818512219512055,-0.37120978692015977,0.6860206680737235,-11.620762947130997,28.741515650332477
1761284415.6085303,1.373038127082495,0.1809992257319847,1.1584701921932021,-0.36965465050651286,-1.2858014089230403,-11.749770874244005,25.787706928112225
1761284415.6185532,1.6618029477010352,0.22470654979627291,1.2328433899706575,-0.3587171229009122,-3.3225555031565976,-11.155121788141136,22.55590967675305
1761284415.628533,1.924966852258351,0.25475930660659646,1.3001172088913517,-0.33757256144267334,-5.365846295435523,-9.828153884176666,18.93068221130122
1761284415.6385427,2.1506197835941134,0.2695025022925111,1.3558108627728496,-0.30612429210421527,-7.383665774748657,-7.807652241034719,14.816032897879834
1761284415.6499856,2.32688454194107,0.268792135197665,1.3962026935049214,-0.2650830944055381,-9.37411163154559,-5.172924420435273,10.152603966874038
1761284415.6586292,2.4429974374090646,0.25397113230199236,1.4186522185365935,-0.21596597991948768,-11.365077127521896,-2.034967514091492,4.929708722135471
1761284415.6685643,2.49023356422811,0.22768623389330692,1.4218275636428421,-0.16101675800768328,-13.40899108244908,1.4727222561649094,-0.8095582548483645
1761284415.6786838,2.4625871396673333,0.19355640860791315,1.4058109127939487,-0.10304436869811523,-15.57243920543007,5.2029934172814905,-6.970759263093572
1761284415.6885364,2.357149535656194,0.1557277816540531,1.372064234264648,-0.04517780947403175,-17.921833028635767,9.00369432249735,-13.417422847920287
1761284415.6985347,2.1741657322797603,0.11837115299535236,1.3232573607962095,0.009440945487851762,-20.50757378218647,12.726613111524737,-19.985419687120338
1761284415.7088346,1.9167878690318845,0.0851900671486684,1.2629834871747427,0.05797617784994381,-23.349807111668984,16.236831571695447,-26.49993074406926
1761284415.7185435,1.5905775975098242,0.05900779158738022,1.1954023708908381,0.09816716345912904,-26.42869287153467,19.4219240671046,-32.79243549873826
1761284415.72857,1.2028329082406164,0.04148832366957713,1.1248557090937519,0.12849704359621267,-29.681227549964326,22.199820850809445,-38.71553995721088
1761284415.738567,0.7618265305943975,0.033021020267816524,1.0554970199281262,0.14824501719820557,-33.00529000166766,24.523934777857143,-44.154153577588055
1761284415.7485561,0.27604147317097694,0.03276851524049977,0.9909738011970504,0.1574392634112996,-36.270072570576126,26.384365528391115,-49.032271287980926
1761284415.758651,-0.24652155585313873,0.03885331885401869,0.9341921867912171,0.15674825615695698,-39.330823181576676,27.804506555597523,-53.315217272519035
1761284415.7685463,-0.7989053296085235,0.048644574028201826,0.8871829062167983,0.1473490247790366,-42.045188683725385,28.83304082946704,-57.00759311165903
1761284415.7795413,-1.375583050414031,0.0591010432174539,0.851073161879394,0.1307970855973603,-44.28849238078079,29.532020633748292,-60.14740741612575
1761284415.7885478,-1.9726456917125856,0.06712714425193989,0.8261533680062876,0.10890492970278406,-45.965842133639775,29.962376095626237,-62.79706025193371
1761284415.798544,-2.587782849901142,0.06990538165754265,0.8120132624742901,0.08362453559425324,-47.019797834370046,30.168680537336925,-65.0321000844744
1761284415.808537,-3.220069678528742,0.06517848941844714,0.8077142119733107,0.05692805252478945,-47.43317218729206,30.16526632139178,-66.92896354349874
1761284415.8200526,-3.8695912023693504,0.05146382595289533,0.8119666725902801,0.030686370902200232,-47.227203449077436,29.925833157533393,-68.55316312576814
1761284415.8285484,-4.536950523438273,0.028190032789984772,0.8232899931306162,0.006552730383717058,-46.4557678177946,29.37853673008208,-69.94950549117621
1761284415.8396811,-5.222718622340642,-0.0042477954458021916,0.8401401342281639,-0.014136269619187914,-45.19655614990049,28.408193510591484,-71.13584621937758
1761284415.848649,-5.926892856090564,-0.04451533239663069,0.8609966918126251,-0.030429626821439657,-43.540315183869176,26.86664220606615,-72.10158684689802
1761284415.858538,-6.648438452749261,-0.09045007597017905,0.8844040256419541,-0.04179328546983999,-41.57941387302959,24.591331688971223,-72.81155233741293
1761284415.8685486,-7.384985899667589,-0.13925564625298018,0.9089665678799101,-0.048104569029905356,-39.39714512397101,21.430745103837673,-73.2150149465391
1761284415.8786175,-8.132739539604943,-0.18776950457851918,0.9333122911485499,-0.049617661414949804,-37.05921481033368,17.273470812228933,-73.25853524425072
1761284415.8891952,-8.886617674680323,-0.23277945068356232,0.9560567087783947,-0.046909493127398456,-34.60866205025099,12.076133664731339,-72.90024999591029
1761284415.898569,-9.640599488837443,-0.2713473710776599,0.9758043411522098,-0.04081076929187437,-32.06492552097814,5.884722828248806,-72.12264810645338
1761284415.908563,-10.388211695393512,-0.3010850934960862,0.9912066325025272,-0.03232264355877295,-29.42696966743911,-1.1554380984107766,-70.94103945620023
1761284415.9185765,-11.12306010975384,-0.320327890208317,1.0010697052939528,-0.022520209505838464,-26.67950515706105,-8.803831354888533,-69.40582261800506
1761284415.928565,-11.839306072153468,-0.32817605582534265,1.0044890590413849,-0.012447358385939354,-23.80068442738843,-16.7430574981172,-67.59797989480285
1761284415.9385574,-12.532006340170406,-0.3244191429418755,1.000982128781159,-0.0030106719357008847,-20.769472479018425,-24.60876865187646,-65.61858419746895
1761284415.9491434,-13.197272498036554,-0.30939956234004923,0.9905878397397586,0.005117386033383073,-17.57121990796523,-32.02674549859311,-63.57420261773553
1761284415.9585679,-13.832250893171407,-0.28388842579592927,0.9739047072014153,0.01157363123104642,-14.200643921436507,-38.65173041942292,-61.560740130775216
1761284415.9685655,-14.434962797182548,-0.24902692201600102,0.9520492186622531,0.01634429068759344,-10.662203831158847,-44.20276398461014,-59.64839339785124
1761284415.9787555,-15.004065942373819,-0.20634275141810826,0.926535221116177,0.01975815323959909,-6.96849506458905,-48.49072135061505,-57.87001608630934
1761284415.9892077,-15.538599411622897,-0.15780803779933694,0.8990968560431566,0.02242730655221708,-3.137669468641661,-51.43512394293111,-56.214492481571085
1761284415.9986277,-16.037759329766324,-0.10588337020870062,0.8714913196944093,0.02514193147523827,0.8089376749976452,-53.06872565171043,-54.62589753141867
1761284416.0085998,-16.500733160771883,-0.053496724865199755,0.8453162043703789,0.028737880108420905,4.847814993144431,-53.52961054010637,-53.00848582575348
1761284416.0185614,-16.926604065461813,-0.003926211496553858,0.821862249227997,0.03396175161204219,8.952086287141059,-53.04157288213612,-51.23699138691107
1761284416.0285988,-17.314326107935614,0.039420345055143996,0.8020061224313727,0.04135559914394905,13.088002443106125,-51.884476993880114,-49.17131000605476
1761284416.038587,-17.66276469846816,0.07331310960497388,0.7861387393995029,0.05117504077538565,17.209915713777082,-50.357183168749664,-46.67429621560552
1761284416.0485857,-17.970793536482923,0.09505729971653444,0.7741257729968634,0.06334509546615331,21.25534718663275,-48.73647359724035,-43.63107756883135
1761284416.0590694,-18.23743924694824,0.10284257397349413,0.7653055354538246,0.0774515269914725,25.142153998414642,-47.23615860278661,-39.96796699709756
1761284416.068655,-18.462066317452454,0.09601787630957447,0.758538835578544,0.09276356502023836,28.769657251172262,-45.97107821116904,-35.668784510284695
1761284416.0793002,-18.644594997177514,0.07522891426024526,0.7523284928758948,0.10828499142896401,32.024930803657796,-44.93089027704766,-30.786262107610536
1761284416.0896811,-18.78574151055826,0.042372766066165385,0.7450186204494443,0.12283118184863341,34.794385732396826,-43.968213146959265,-25.44631728492133
1761284416.0985904,-18.887263125892307,0.0003516738917848019,0.7350666660937032,0.13512749574891364,36.97949767246408,-42.804764017899686,-19.8434550096928
1761284416.1086311,-18.952181257249663,-0.04735635605307021,0.7213594890678594,0.1439200980669265,38.51427881916677,-41.05755111981687,-14.226437914241808
1761284416.1185915,-18.984944979633468,-0.09725164982929349,0.7035241491435856,0.1480861934318573,39.38119611968042,-38.28496064303257,-8.874607131537017
1761284416.1285932,-18.991486907190506,-0.1463943725498631,0.6821704621840751,0.14672870157273618,39.62196347226574,-34.04983938396428,-4.066736916254283
1761284416.1385844,-18.97911741473457,-0.1928928251063249,0.6590033533351802,0.13924203951631553,39.34019529273471,-27.99362459531059,-0.045880499491726935
1761284416.1485767,-18.956207180522263,-0.2361822022940533,0.6367664662841807,0.1253423558637876,38.69433876635846,-19.912597334487817,3.014985335355957
1761284416.1585643,-18.931625207127222,-0.277011136856299,0.6190229581830545,0.10506720493413475,37.88134098061987,-9.825064871542912,5.040962434584966
1761284416.1686058,-18.913930686965372,-0.3171096077430528,0.6098228334250374,0.07876236139491324,37.11353587677883,1.982517508261575,6.071544454183819
1761284416.178604,-18.910363936054342,-0.35858241418134945,0.6133148926453981,0.04708051096811004,36.592458330614235,14.941202261651755,6.261313031113188
1761284416.1885574,-18.925741411097892,-0.403142644245403,0.6333271292557645,0.011012423467481798,36.48323241320039,28.224225957030665,5.863592025662845
1761284416.1985989,-18.961415641657496,-0.45134431201932484,0.672898985916229,-0.028045909073102403,36.89215562323694,40.812663314529914,5.198699203625033
1761284416.2085717,-19.014487637185056,-0.5019761241219431,0.7337474984555701,-0.06821514430213776,37.849075069795184,51.59773578789717,4.611278462969684
1761284416.2185748,-19.077443380612127,-0.5517485206945646,0.8156944917115089,-0.10710059845828243,39.295953142271564,59.509210083319736,4.423220996871171
1761284416.2287629,-19.138332458420198,-0.595364086150412,0.9161480980388061,-0.1418822197467653,41.083682906501615,63.65411453847321,4.889670930433007
1761284416.2386043,-19.181528811916916,-0.6260139452846339,1.0297903933159802,-0.16958693512312265,42.97999054843326,63.44669599837076,6.165496319331425
1761284416.248626,-19.18902367027841,-0.6362828314196238,1.1486499394151672,-0.1875468763000526,44.69109971307129,58.70987985295251,8.288237650813683
1761284416.2586906,-19.14211305079893,-0.6193702116315479,1.262709294031614,-0.1939667501556824,45.89794895042676,49.730928265480145,11.18080228999877
1761284416.268555,-19.02327470934551,-0.5704549982026478,1.3610963716715279,-0.18845664015102528,46.304155080966126,37.25939960981157,14.673324241266416
1761284416.2785652,-18.817998590612024,-0.4879641491975098,1.4337402524047365,-0.1723658647949165,45.6885732924007,22.443183296761983,18.539484256609132
1761284416.2885954,-18.5163466082493,-0.37446672558791694,1.4731748445080814,-0.14878953232823933,43.95180242566213,6.707309636960318,22.53933857347434
1761284416.2986085,-18.114063618230283,-0.23692643324901372,1.4760259239061855,-0.12219745741811008,41.144904993541275,-8.410589261676266,26.459335582752633
1761284416.3086228,-17.613124952891894,-0.08613884838240053,1.4437194814433845,-0.09773049912311392,37.47100308456316,-21.44601793733194,30.14118384788141
1761284416.3185754,-17.021672275520874,0.06463262528663659,1.3821551637923069,-0.08030195680399756,33.256266724325464,-31.186788564576734,33.494390649429086
1761284416.3286216,-16.353353325395435,0.20157313827998025,1.3004280643786772,-0.07371094205401882,28.894682662238097,-36.8170511108414,36.49174991835307
1761284416.3386486,-15.626144729705176,0.31235796212194405,1.2089884010199943,-0.07999097275641191,24.77832223416397,-38.002971491956316,39.15139208830019
1761284416.3486137,-14.860802537549826,0.3878617576088112,1.1177609988433097,-0.09915752593580862,21.229071171563994,-34.90776892632421,41.51178758397793
1761284416.3585846,-14.079143945736405,0.4232059533673773,1.034678502191021,-0.1293954821224125,18.447512629468584,-28.137584204576832,43.60666667967928
1761284416.368663,-13.302392621134272,0.4180288306772741,0.9648840444094435,-0.1675915816364214,16.490012812728146,-18.63236474935479,45.445544007415805
1761284416.378669,-12.54979402914683,0.3760655382844961,0.9106316528603433,-0.21002578078093143,15.27753944108753,-7.524221420403616,47.003304798159796
1761284416.3892646,-11.837625016444736,0.30424898547075585,0.8717372965188899,-0.25302060889701916,14.631564745209163,4.011946193114085,48.2199142521981
1761284416.3986626,-11.178616438409449,0.21157220411146233,0.846347391381047,-0.2934036845775299,14.325887607161953,14.893695582542554,49.00922332285838
1761284416.408626,-10.581723636820696,0.10791474793295494,0.8317875439198668,-0.32873174034787334,14.14021103081035,24.236573715724973,49.27431813789135
1761284416.4186807,-10.052142881948988,0.0029717406176926735,0.825302148599987,-0.3573127225712881,13.90257765050376,31.421707656447317,48.92603765558303
1761284416.428616,-9.59148015677285,-0.0946330400713137,0.8245665847991054,-0.3781141402677768,13.512554490449691,36.123798033236696,47.901197744687686
1761284416.4386277,-9.19801209365947,-0.17800588266021042,0.827930060289088,-0.3906499867481541,12.943478084475784,38.30267678113485,46.177619003503175
1761284416.44865,-8.86701447645434,-0.24239000052647244,0.8344157290513285,-0.39490542188034283,12.227909019390173,38.16466038675144,43.784040855303644
1761284416.4586906,-8.591155754652515,-0.2853119386197887,0.8435532640804013,-0.3913110692913036,11.433946911076944,36.10183727749689,40.8040946482972
1761284416.4686801,-8.36095743866479,-0.30647853233165,0.8551388015358204,-0.38074074009156694,10.640501524751356,32.6187073778903,37.374397756053106
1761284416.4787838,-8.165315330366075,-0.30746138608668083,0.8690076440942521,-0.3644911689252734,9.917546154643603,28.256294155150808,33.677367233268946
1761284416.4893124,-7.992063947591981,-0.2912313387808972,0.8848747547864123,-0.34421025066170785,9.314200329244391,23.523577154900448,29.929563691676808
1761284416.4986022,-7.828558107548747,-0.26162043396875084,0.9022606293870945,-0.3217623320633533,8.854605709378799,18.844456346875894,26.366407352433804
1761284416.5086467,-7.662243918899403,-0.22278864929378425,0.9204894972080224,-0.29904431032498324,8.539745657063344,14.525532357880348,23.224151461969804
1761284416.5186267,-7.481197466650553,-0.1787604652208011,0.9387320512972981,-0.2777862416327581,8.352717250033681,10.746345989207066,20.720212092936514
1761284416.5286245,-7.2746215700837356,-0.13307810472080644,0.9560670740549377,-0.25937916827168905,8.265206380934295,7.570124375031808,19.03335867243864
1761284416.5386376,-7.033303289830794,-0.08859645186026027,0.9715486167814131,-0.244767486838264,8.24362006371443,4.970155459763505,18.285717209899524
1761284416.5486088,-6.750039484709387,-0.04742031583357181,0.9842775634091203,-0.2344246570373472,8.25410313079129,2.8650460327875473,18.528798420265634
1761284416.558605,-6.4200301937637425,-0.010961250527872907,0.9934807500570788,-0.22840679661550994,8.266255445884433,1.155494363379808,19.73565671768677
1761284416.5685956,-6.041221823535834,0.019926498044497115,0.9985959375801605,-0.2264586069553204,8.255685022356383,-0.2441624328765925,21.80074583633141
1761284416.5786467,-5.614560510209205,0.044779744552356636,0.9993514672912251,-0.22813685058364444,8.205617375723591,-1.384653979235341,24.548100648913728
1761284416.5887427,-5.144098743515135,0.06337672199892218,0.9958224249261441,-0.23291940937766945,8.107724821173763,-2.2733261278670014,27.747289284018944
1761284416.5986326,-4.636893961273158,0.07563900357032351,0.9884455702071293,-0.2402794250627661,7.96224339877951,-2.878455976996915,31.135393375805943
1761284416.608592,-4.102652996955332,0.08160026282278926,0.9779834000962516,-0.24971862238866468,7.777383849975354,-3.1438556194677845,34.44235417454346
1761284416.6186008,-3.5531108641257236,0.0814352631234825,0.9654397466991081,-0.26076642888338053,7.568043361177225,-3.0095554460849563,37.41654981203664
1761284416.6285908,-3.0011777217974447,0.07552513153141915,0.9519404945034706,-0.2729588300862447,7.353872350003625,-2.433531146733249,39.847512797065846
1761284416.6386154,-2.459931708779842,0.06452601909880343,0.9386001680875007,-0.28581241077652675,7.156814572466374,-1.4096004123916328,41.58322385764361
1761284416.6486156,-1.9415681365518962,0.049407744592197135,0.9263972911625626,-0.2988059290302856,6.998298859961585,0.022314782303226196,42.54029157115557
1761284416.6586251,-1.4564321229775063,0.03143592081615778,0.9160786766988123,-0.3113763252043993,6.896315079717512,1.7756123710840863,42.706349802296124
1761284416.6691864,-1.0122592133874788,0.01208486399372356,0.9081056676548219,-0.32293079746165854,6.862658333238758,3.7260664585460215,42.135008734679815
1761284416.679443,-0.6137250010697767,-0.007112281270566437,0.902645296152995,-0.3328728606968193,6.900667615044508,5.7284170982371085,40.93456760309318
1761284416.6891022,-0.26236093488533624,-0.024750084863965835,0.89959959383948,-0.34063777983906157,7.003798869953631,7.6368825133917095,39.25234368150858
1761284416.698691,0.04316508085261315,-0.0397344699917957,0.8986604690094505,-0.34573076859695057,7.155325540395702,9.325371222953729,37.256813354661276
1761284416.7087517,0.30646735909987616,-0.05142124039452004,0.8993767955167773,-0.34776056325800225,7.329319772676922,10.703556526743375,35.11977376483908
1761284416.7193553,0.5326778387406836,-0.05967537249913222,0.9012225989999261,-0.3464629449210773,7.49283526907375,11.726154106826218,33.000464501995744
1761284416.7286427,0.7276476632018034,-0.06483266286213486,0.9036579438200418,-0.3417138526596697,7.608954845387871,12.394332896105059,31.033121135238865
1761284416.7386353,0.8972667066201694,-0.06756558878440762,0.9061769530717821,-0.3335378115353876,7.640199142667106,12.749779349531677,29.318845341336935
1761284416.7486289,1.0470224622623157,-0.06867718995169926,0.9083414477004647,-0.3221206412942218,7.551809421511034,12.863205749968019,27.9220412180667
1761284416.758595,1.1818607763968132,-0.06886554217576261,0.9098036408295109,-0.30783275211415045,7.3146110015049,12.819860116040743,26.871065456623224
1761284416.7687156,1.3063367123671417,-0.06851057301458077,0.9103246489984741,-0.29126125489066274,6.9074358785682115,12.704787804274538,26.162256481850864
1761284416.7786255,1.4249727551385964,-0.0675315306818985,0.9097953213275157,-0.2732400994072078,6.319302580634536,12.590248677184716,25.7662033929524
1761284416.7886293,1.5426883717469682,-0.06535032275277866,0.9082627875220347,-0.25486282306794744,5.551603034580066,12.526975084512385,25.635002648958586
1761284416.7985969,1.6651379566216546,-0.060977580620882064,0.905962001888036,-0.23746378425667353,4.620367016882086,12.540113635048302,25.709307783078614
1761284416.8086033,1.7988000502316523,-0.0532159022552229,0.9033466284305457,-0.22255806467628086,3.558308125005048,12.629918929168943,25.924175971094954
1761284416.8185945,1.9507053099891416,-0.04094909596094134,0.9011074220858547,-0.2117351012213691,2.4159580408209758,12.77661356453685,26.213033928870164
1761284416.8286023,2.1277722057559,-0.023462374362741997,0.900161127334245,-0.20650785523659038,1.2609549006759544,12.948291858258226,26.50950316154846
1761284416.838628,2.335821980139241,-0.0007245252678071169,0.9015937436184376,-0.20812959208496656,0.1746064457701239,13.110364486868143,26.74729502442682
1761284416.8486,2.5784405197277254,0.026434541551813948,0.9065513343955649,-0.21740226046871106,-0.7547312811837845,13.23486719844101,26.85881626037346
1761284416.8586009,2.8559163670020578,0.05629866664502343,0.916086237593398,-0.23450975182793177,-1.4411753070040096,13.30798990284617,26.773395492006003
1761284416.8686068,3.1644935465860127,0.08641034835761818,0.9309804173266667,-0.25891111599571565,-1.8125796624150834,13.334433437254102,26.416078170207502
1761284416.878604,3.4961295152701783,0.11386711167731409,0.9515765226143246,-0.2893189548631128,-1.8216796004261768,13.337733089797048,25.70776705662716
1761284416.8886101,3.838847952839406,0.1357147242672412,0.9776498208842885,-0.3237678226851492,-1.4549922121091277,13.356502906062278,24.567192309006405
1761284416.8986197,4.177646475640903,0.1493582207339685,1.008350240881181,-0.3597557709347442,-0.7376596130994792,13.437471614492017,22.91485903863231
1761284416.9086063,4.495801144034394,0.15291062818327633,1.0422334030372302,-0.3944304293327823,0.2667770825741837,13.62689181560082,20.6787951606395
1761284416.918621,4.776340187043061,0.14542144186193168,1.077384833591394,-0.42479315508038146,1.4616482615524404,13.962165198903785,17.801643297821876
1761284416.9287112,5.003451289090949,0.1269595338606248,1.1116251890055733,-0.4479056146954962,2.7264850505677245,14.46529511138869,14.248419370049943
1761284416.9386494,5.163628757313513,0.09855532659304486,1.1427667722690151,-0.4610947964477808,3.9287531103276394,15.139189050017437,10.014084393010759
1761284416.9486728,5.246438410580943,0.06202933315944094,1.1688747034515192,-0.46216000278855457,4.936036688264611,15.96708170588992,5.129921394185413
1761284416.9586117,5.244858674089116,0.01974771836946487,1.1884789313006385,-0.4495846555776592,5.626775524341937,16.914600022175865,-0.3324193910210694
1761284416.9686546,5.155229116431542,-0.025649260730846554,1.2006967763827514,-0.4227421763400136,5.898026483164953,17.93337885075095,-6.260368456676759
1761284416.9786148,4.976892085440898,-0.07150165789386351,1.205256764690163,-0.3820637019428823,5.669339131291884,18.964807355384988,-12.504332588425
1761284416.9886398,4.711645524776116,-0.11533005507418465,1.2024438956684513,-0.3291230146016662,4.882612578982053,19.942625974555302,-18.886486606140974
1761284416.9986293,4.36313512824479,-0.15495801647138968,1.1929982302353366,-0.2666018145245287,3.4986142621148475,20.793812048192194,-25.214155526705238
1761284417.008621,3.9363025739845363,-0.18855270699217982,1.177994379540082,-0.19811966083516255,1.4915212129783937,21.43832614072788,-31.296614557336515
1761284417.01859,3.4369764016202864,-0.21460260778961798,1.1587208268100184,-0.12793603228346226,-1.1567731389770461,21.789358505249478,-36.963346409533465
1761284417.0286162,2.8716484701069267,-0.23187252643425801,1.1365731769888983,-0.06055302030850048,-4.460826649354411,21.756162593346748,-42.081274708161914
1761284417.0386472,2.24742967199496,-0.2393864122093447,1.11297382858644,-0.0002655927688827952,-8.432818339794236,21.25110123489473,-46.568332145319594
1761284417.048637,1.5721326327966263,-0.23647789718842657,1.089325243754858,0.0492805427410734,-13.079748650784058,20.201267277479598,-50.40094986641987
1761284417.0586524,0.8543942305373139,-0.22291652336643264,1.0669892610102045,0.08545964059521517,-18.396385733341983,18.563363137383362,-53.61370690945218
1761284417.0686424,0.10373281046550586,-0.19907828059002655,1.047265240683793,0.10691022465080294,-24.354529726002568,16.338931246763302,-56.290437960382896
1761284417.0786297,-0.6695608229391298,-0.16610192910432284,1.031330170213301,0.11361980711383164,-30.89010479326056,13.58601497544061,-58.547453026966565
1761284417.0886376,-1.4547688512758394,-0.125969551217042,1.0201186292977966,0.10684582836959285,-37.890547260423645,10.423310851273467,-60.511119860553734
1761284417.0989022,-2.2413408128669694,-0.08146994556561984,1.0141609224754569,0.0888960642263534,-45.185940790532534,7.0240639185975855,-62.29391027120867
1761284417.1086879,-3.0196734274702335,-0.036035813027407416,1.0134435451561885,0.06281132275917133,-52.54799288636907,3.5991709081419394,-63.97458662007315
1761284417.1188,-3.7819415874392606,0.00652493720839223,1.0173699443135462,0.032002439429888396,-59.70017232976535,0.3714614316348982,-65.58796199307908
1761284417.1286557,-4.522811308718213,0.0423683303063044,1.0248573137444796,-0.00010825504322210709,-66.33938581803663,-2.454991210808478,-67.12647111882158
1761284417.1389127,-5.23988175727521,0.06798846144064116,1.0345326428615058,-0.030401686359967105,-72.16562711653829,-4.725814397376486,-68.55113591775851
1761284417.1487603,-5.933758335876464,0.08059656319510848,1.0449461186714237,-0.05630839935682522,-76.91347138672536,-6.3627110515450624,-69.80661007965783
1761284417.158659,-6.60772746922288,0.07847353952111477,1.054730522603742,-0.07597567593995996,-80.37927581454755,-7.380791285272314,-70.83527089124516
1761284417.1686351,-7.2670703894379685,0.06125274349119449,1.0626794111616986,-0.0883553340510287,-82.43973278740258,-7.893252515221537,-71.58748989738784
1761284417.1789253,-7.918111984217169,0.030077654105623707,1.067758789304969,-0.09321867552123403,-83.05974335565575,-8.101319630193698,-72.02742764233582
1761284417.1886675,-8.567146031998677,-0.012418541708783625,1.0690885638164431,-0.09110681070357879,-82.28969144956456,-8.26949350825222,-72.1351334684897
1761284417.1986415,-9.219401196889965,-0.06233981302219159,1.0659303274997254,-0.08322386658187612,-80.25380579662922,-8.68869488683363,-71.90630527739653
1761284417.2086277,-9.87820418438078,-0.11494428782557904,1.0577031340843268,-0.07128087067606012,-77.13226326298052,-9.632432808403703,-71.35094993337262
1761284417.2186282,-10.544455068311098,-0.1651841153653449,1.0440281807183422,-0.057300708325528436,-73.13995292788086,-11.313061229845633,-70.49167189966161
1761284417.2286644,-11.216465330602553,-0.208268173917316,1.024787047953566,-0.04339815817012868,-68.50445826665532,-13.845836376737534,-69.36172207291847
1761284417.2386646,-11.89014230136894,-0.24015257733471307,1.0001725775321415,-0.03155112361599362,-63.445103637514066,-17.227421980018303,-68.00251005785519
1761284417.2486396,-12.559453512077011,-0.25790130799904953,0.9707153915144167,-0.023378202509005474,-58.15424176291806,-21.332809915023677,-66.4601627949032
1761284417.2586443,-13.217078632116207,-0.2599032187593013,0.9372770346637848,-0.019934970827377656,-52.78161370577473,-25.9310099355639,-64.78091503080171
1761284417.2686698,-13.855151973896191,-0.2459599224037857,0.9010079596642357,-0.021540477933937846,-47.42261861827236,-30.71631352194903,-63.005520477217516
1761284417.278669,-14.466007558160744,-0.21726789126643561,0.8632727902854617,-0.027649139865023584,-42.11151409127767,-35.349335723380555,-61.16327745453153
1761284417.2886624,-15.042854469742526,-0.17631497304031896,0.8255471821926623,-0.03679000219310585,-36.82070383988035,-39.50084827046909,-59.26651986550989
1761284417.2986908,-15.580327316701796,-0.12670289186199096,0.7892930719267187,-0.04659990162240016,-31.467143834098326,-42.89167193989458,-57.30650836075457
1761284417.3086414,-16.074871532640337,-0.0728967779374794,0.7558241089174803,-0.053974015559892986,-25.926350363927575,-45.323315996910736,-55.25162319039399
1761284417.318664,-16.524935669653033,-0.019896247945368425,0.7261791250460218,-0.055344825916425706,-20.0535234210553,-46.696127104342054,-53.04865156828567
1761284417.3286803,-16.930955315206965,0.027173384146008103,0.7010248841585771,-0.04708074130474158,-13.710097503687551,-47.013843785919775,-50.627750587617044
1761284417.3387318,-17.295128635810507,0.06353609101371986,0.6806066500498873,-0.0259730519925145,-6.792885594970384,-46.37518059757524,-47.91128389608208
1761284417.3486712,-17.621002683414872,0.08527206821065969,0.6647552688213156,0.010240531449828371,0.7378345550356101,-44.95419821958781,-44.826153568681036
1761284417.358669,-17.912911832672723,0.08980148155102953,0.6529454606932041,0.062383156503518104,8.835260205405493,-42.97185480071116,-41.31853503647132
1761284417.3686795,-18.175333289499505,0.0762721255798192,0.6443877932028352,0.12945538007163326,17.351800188554797,-40.66157963606182,-37.36917955772031
1761284417.3788233,-18.41224557051985,0.04576986256848474,0.6381307224741881,0.20844489759136223,26.03670714351808,-38.23225762345929,-33.00682025803673
1761284417.3886502,-18.626587543871405,0.0012813147519463478,0.633149323368092,0.2944076015248432,34.547551584810954,-35.83274849662719,-28.31688517948623
1761284417.3987024,-18.819910792963384,-0.05262718702809633,0.6284027531137466,0.3808733372601565,42.475881045016436,-33.52278175020624,-23.442851340631787
1761284417.4086554,-18.992292352658417,-0.11039674631502228,0.6228543465721118,0.46058025721634066,49.385541015722566,-31.255343214769525,-18.578261901748284
1761284417.4187644,-19.142529035010096,-0.16625162866044535,0.615469580388178,0.5264648042445095,54.86026009135958,-28.87506787661161,-13.94868573602972
1761284417.428637,-19.268574889217547,-0.21503548813143622,0.6052376769959075,0.5727340431798275,58.555400097248736,-26.13543799971417,-9.784641625373155
1761284417.4388587,-19.36812281688901,-0.2529548276489805,0.5912882060495057,0.5957555705617508,60.247402488829266,-22.734812222346704,-6.288499736443219
1761284417.4486575,-19.439191264672306,-0.278091907567229,0.5731628512221365,0.5944926153071622,59.87370948264181,-18.367861071945736,-3.6002035750997696
1761284417.458676,-19.480578779128145,-0.29060703980517477,0.5512348451765269,0.5703476154176764,57.55622011782792,-12.785568726147694,-1.7678365507186526
1761284417.4686654,-19.492095633002045,-0.29262553266958957,0.5271764666192347,0.5265067105948501,53.603004658182904,-5.854477067075381,-0.7291406731917384
1761284417.478677,-19.47454900644364,-0.28786187889209036,0.5043185668241064,0.46706211928412117,48.4859403512691,2.394956526838391,-0.3088371205513689
1761284417.4886816,-19.429514197536072,-0.281054843934905,0.4877470788431269,0.39623194971752745,42.795406222847845,11.739841909205246,-0.2341316471982905
1761284417.498667,-19.358950507176953,-0.27727700617401035,0.4840173530565654,0.317902716228684,37.1762562520061,21.762200178919986,-0.16761485897620695
1761284417.5090115,-19.264719253494928,-0.2811618336918104,0.5004226515030993,0.23555095526867176,32.251589531895796,31.874170108839653,0.246454221576878
1761284417.5187001,-19.148052268087692,-0.2960894361686934,0.543837292581867,0.15242862529077614,28.542711949354832,41.36895828930824,1.3291728713337536
1761284417.5287662,-19.00902623046369,-0.32340632312821443,0.6192705015775266,0.07179170747972691,26.395719931921168,49.49213105242158,3.315735090914431
1761284417.5386949,-18.846129955220977,-0.3618124844558241,0.7283854705484377,-0.003035650510837849,25.92710541125091,55.5257596103908,6.314769610629244
1761284417.5488672,-18.656045628845177,-0.40709236479212657,0.868311735058101,-0.06884610068601629,27.000879344044403,58.87661684032121,10.286156473780924
1761284417.558784,-18.433758006273518,-0.45235262432617523,1.0310772884689807,-0.12292068157450746,29.245672643845595,59.15841834847064,15.042547606080271
1761284417.568716,-18.17303721317856,-0.4888441386978704,1.2039127664669633,-0.16344699676072888,32.11210941982369,56.257036476995836,20.275655808291294
1761284417.578735,-17.867241126698865,-0.5073140182061665,1.3705466274088587,-0.18985382736202452,34.961557571908045,50.36768637474013,25.603452849860535
1761284417.5886855,-17.51030422706571,-0.49969474227137695,1.5134214695531554,-0.20298383347455917,37.170654048545224,41.995321633709985,30.62992376731976
1761284417.5986886,-17.097748523218478,-0.4608186204369606,1.6165266333668586,-0.20507400259424274,38.23310432687169,31.913967325535538,35.00614965310197
1761284417.608713,-16.627563301451357,-0.38977301441961726,1.6683015913510526,-0.19953849759081987,37.84070819828268,21.086720305246093,38.481039811387525
1761284417.6186793,-16.100836218110924,-0.2905264575890962,1.663908384658915,-0.19055750671060157,35.9288400299444,10.554836169996285,40.93222794275302
1761284417.6286647,-15.52206211411643,-0.1715941586658265,1.6062213398536087,-0.18249415757973358,32.67770027425753,1.3108523110610406,42.372042492998595
1761284417.6386802,-14.899096993225264,-0.0447600149335885,1.5052004120556006,-0.17920935690521098,28.469229590747442,-5.824419965928419,42.92901480945136
1761284417.648668,-14.242760785418868,0.07685509366440776,1.3758036576633879,-0.18340921351286602,23.80902744407316,-10.300034208534948,42.81067505639043
1761284417.6586957,-13.566129066288095,0.1809126644926613,1.2350337189608314,-0.1961983428056107,19.230307965368596,-11.891130300745258,42.25696812154198
1761284417.6686678,-12.883593866657614,0.2576896430538211,1.0989147862594892,-0.21698210868654277,15.200532746321795,-10.704778478986407,41.49457600271845
1761284417.6786654,-12.209808709496906,0.30128994240488033,0.9801119275653244,-0.243755704839858,12.049852645301966,-7.137768728469499,40.70078084939539
1761284417.688679,-11.55864761374838,0.310101070054074,0.8866122892320905,-0.27368171412864406,9.93426452432029,-1.7982307211532251,39.98215744108957
1761284417.6986883,-10.94229479738551,0.2865453858870949,0.8215302472989656,-0.3037597541265246,8.83714988010558,4.591538221535253,39.369589254213054
1761284417.7086744,-10.370548421211652,0.23629352838476714,0.7838133729909347,-0.33138097412110185,8.603302486545335,11.293212641574138,38.82783193690544
1761284417.7187085,-9.850380275475255,0.1671548374943816,0.7694817384042205,-0.3546349983212798,8.99250353220862,17.637276119953082,38.27558976265027
1761284417.7286828,-9.385753477876895,0.08785636971151427,0.7730205978861286,-0.3723520750887617,9.737085089448618,23.08574083217388,37.61095339377127
1761284417.7386882,-8.977669827682625,0.006892875085944363,0.7886219316210771,-0.38396098362786,10.59003795874095,27.269280330966655,36.737022457106136
1761284417.7486835,-8.624402159587907,-0.06841169729152095,0.8110889327390745,-0.38928546330986524,11.355707174591634,29.99935752276652,35.58344563129337
1761284417.7587981,-8.32186277640831,-0.13254110803666758,0.8363408327279565,-0.388384857830503,11.90163299189029,31.2584701590421,34.1211553067191
1761284417.7687128,-8.064060322922378,-0.18208701773766092,0.8615552648427349,-0.3814919408703653,12.155354712640298,31.173063110814237,32.369304952341736
1761284417.7787282,-7.843599682136433,-0.21572888027431078,0.8850472532504058,-0.3690436399309328,12.092622821044214,29.974460296724455,30.394860093875298
1761284417.7886782,-7.652182299197503,-0.23395103625593133,0.9060049548140924,-0.35176125121033036,11.723328351197866,27.953606203057262,28.30616118532636
1761284417.798691,-7.481069247876455,-0.23858085500566664,0.9241883375421319,-0.3307243367896212,11.079465323096176,25.415464921101186,26.242084122849963
1761284417.8088367,-7.321476769523589,-0.2322414453033705,0.9396617572643656,-0.3073927117239277,10.206913701920753,22.638484176802283,24.3583875060441
1761284417.8187196,-7.164883463065894,-0.21780687533734233,0.9525924215014192,-0.2835527132255251,9.160810222773872,19.843545773227152,22.812673422549793
1761284417.8286855,-7.003240285298082,-0.19793243088870752,0.9631181660613076,-0.2611867368042758,8.003202608498901,17.175364302972095,21.749221011153953
1761284417.8387158,-6.829090312057138,-0.17471329558270304,0.9712752010290671,-0.24228301763723173,6.8014927855392715,14.697513039421601,21.284825408813727
1761284417.849151,-6.635624103221023,-0.14950493415109117,0.9769759849925648,-0.2286141911588912,5.62654410875553,12.400360056513946,21.496701569809183
1761284417.8587096,-6.41671375927623,-0.12291675974916136,0.9800311839325214,-0.22151824047090637,4.549889767358879,10.219451691860524,22.41346631525309
1761284417.8687,-6.166976870529492,-0.09496647613763766,0.980210905384979,-0.22171437393856205,3.639971353016705,8.060555317227792,24.010117367340474
1761284417.8786986,-5.881914430877302,-0.06535736678148334,0.9773365384056102,-0.2291805059776927,2.957654802306795,5.826888068699898,26.207700744125713
1761284417.8887203,-5.558143831972051,-0.0338189923375032,0.9713872113315261,-0.24311089979593817,2.5514264567872136,3.4441225890644467,28.877961816796923
1761284417.8987355,-5.193715278959961,-0.0004383852116098494,0.9625977861465271,-0.26196467152636116,2.452720484933843,0.8795305462555951,31.852741557669244
1761284417.9087212,-4.7884671349768055,0.03409220179096614,0.951521996221242,-0.28360902563066104,2.671840861806977,-1.8471035203709731,34.93729751303545
1761284417.9192426,-4.344351961889712,0.0683720424144939,0.9390371469708937,-0.3055536037944561,3.194979243008233,-4.661700046401341,37.92623128759333
1761284417.9287465,-3.8656557810618497,0.10036810272113916,0.9262768049483584,-0.32526076665029174,3.9829070500397576,-7.442780554449398,40.620413652773756
1761284417.9387374,-3.3590394920942934,0.12766823117211523,0.914494546977062,-0.3404980472644656,4.9719696476391455,-10.035527485768101,42.84325181838786
1761284417.9487197,-2.8333524269333563,0.14786392124725362,0.9048817637295918,-0.3496745253905062,6.077906049577816,-12.270760215468254,44.454778776242115
1761284417.9587898,-2.2992014092074693,0.15897278847213206,0.8983788572520592,-0.3520834217837162,7.202645933903792,-13.98612098614517,45.36227452619241
1761284417.9687102,-1.768298046913064,0.1597932046886428,0.8955233816891006,-0.347980190807301,8.243603262678219,-15.046535776539702,45.52642447872751
1761284417.9788861,-1.2526410781392279,0.1501091867562635,0.8963664887244823,-0.3384708954508261,9.104277935543756,-15.361066823689137,44.962418139641905
1761284417.9887702,-0.7636105590776937,0.13072202684183662,0.900467064934892,-0.32524867239687605,9.704483840983382,-14.893751864022489,43.735916059813626
1761284417.998778,-0.31105705932941885,0.10334030351219861,0.9069549857839247,-0.3102574341988514,9.988459728599446,-13.667022551747511,41.95441408551637
1761284418.008754,0.09753169056902984,0.0703847144540008,0.9146484880259398,-0.29536532771091756,9.92950523129204,-11.75766110355172,39.75511355239842
1761284418.018742,0.45770827266968594,0.03475924957089642,0.9222117800729231,-0.2821106605715998,9.530469764980916,-9.286601182008376,37.29087134594518
1761284418.0287232,0.7685175890298898,-0.0003781758930927403,0.9283403851107349,-0.27155863774825767,8.820215494036457,-6.404804023130977,34.71606481427911
1761284418.0387402,1.0326695344246937,-0.031830990133486115,0.931959582988294,-0.2642838546819022,7.846918453805111,-3.2777498350160976,32.174174556115275
1761284418.049198,1.2563992781529676,-0.056564435754069595,0.9324152186329685,-0.2604688402829982,6.66964183722572,-0.0708254855427675,29.788514887198133
1761284418.0592883,1.4490048749058193,-0.07189849280067045,0.9296285218036178,-0.26008247936256834,5.3499003925935735,3.062749930781249,27.65685289295453
1761284418.0687757,1.6220778242011016,-0.07569969973512196,0.9241828554905686,-0.263079423567713,3.944820499950695,5.990609641943604,25.849767901279872
1761284418.0790763,1.7884749985708126,-0.06656901703604301,0.9173159632811525,-0.269552889455803,2.502934476739663,8.606432043864546,24.411735244811023
1761284418.0888193,1.9611175045937914,-0.044011920220585546,0.9108071792747976,-0.27978609039933106,1.0627687428437018,10.832170590462042,23.363354201644388
1761284418.0987444,2.151732169967674,-0.008571201878529647,0.9067695423521545,-0.2941787016926065,-0.34645962731289803,12.618316214422695,22.70308838897365
1761284418.108727,2.369663062798486,0.03809723035255201,0.9073737741038358,-0.3130613165060715,-1.7031793155932737,13.943340076501812,22.407365650672624
1761284418.1187608,2.6208704888076606,0.0932233020776238,0.9145405518860885,-0.3364406349152814,-2.9919131836807624,14.813128545247908,22.428734214197924
1761284418.1287382,2.907208632449766,0.15301199615509625,0.9296409998793951,-0.363736942750282,-4.2024639929499585,15.260469583772446,22.69274415223293
1761284418.1387584,3.226040478040293,0.21283607471705407,0.9532460306603135,-0.3935841629106017,-5.329853234127141,15.343862015650187,23.095044293961678
1761284418.1493027,3.5702190270537777,0.2675415761184953,0.9849621779177283,-0.42375995295197405,-6.374506134578669,15.144519401241885,23.500606280748897
1761284418.1592987,3.9284402998134387,0.3118660702013123,1.0233802731828097,-0.45129361655801226,-7.341965024452496,14.760598364064696,23.74685883491418
1761284418.168812,4.285952600602941,0.3409512693426189,1.0661455289885908,-0.47276136938903046,-8.241633782950503,14.298294657190207,23.65183420904365
1761284418.1788137,4.625581893590805,0.35090403486413957,1.1101446783781617,-0.4847304350938255,-9.084612274009254,13.860306375494815,23.027340590302945
1761284418.1895711,4.929002196191053,0.3393297606726006,1.1518022970020387,-0.48427122771085335,-9.881296069778736,13.533041898846486,21.695945532616744
1761284418.198766,5.178146588843293,0.3057437029712401,1.1874706224731681,-0.469435424773559,-10.63978959968439,13.374639288253258,19.509511829540983
1761284418.2087471,5.356626751476312,0.25177290612825354,1.21387271358879,-0.43960355936064804,-11.366112732020602,13.406173338837522,16.366443037939298
1761284418.2188807,5.451013428161406,0.181093631811934,1.228529683686407,-0.3956336215483712,-12.066663128623723,13.608208129800468,12.224810123985614
1761284418.2287805,5.45183067359011,0.099092897259231,1.2300927717018186,-0.3397832382511986,-12.752620760528858,13.924046643973641,7.109140470385907
1761284418.2387424,5.3541379333415104,0.012287963655574968,1.2185179206986496,-0.27542610975933973,-13.445242423194111,14.269726925737729,1.1097149160998923
1761284418.2487454,5.1576219496622215,-0.07241807375335745,1.1950550723614715,-0.20662709257986617,-14.180551526207827,14.549282576287608,-5.625532214267676
1761284418.258895,4.866194113325763,-0.14853167680137178,1.162064625414207,-0.13766281637683092,-15.011916076769523,14.67240628645361,-12.905266468825182
1761284418.2687738,4.487172281966137,-0.21069199205613612,1.1227073584440141,-0.0725694808588578,-16.00941607898742,14.570817437012849,-20.51303409301776
1761284418.278801,4.030193241326147,-0.25521779084031815,1.0805708906231422,-0.014775764236956578,-17.25559896768734,14.209620456269578,-28.226892481090417
1761284418.2887661,3.506033181646515,-0.2804128039311569,1.0392940824393355,0.03314906164220295,-18.838003965086134,13.590832079806313,-35.837539476159805
1761284418.2988052,2.925507191260129,-0.2866057297063847,1.0022368796762453,0.0696233664507426,-20.83948174380056,12.74790042579487,-43.1623549526749
1761284418.3089955,2.2985864686205257,-0.27593646854227316,0.972222385344688,0.09406183373252418,-23.327669694839535,11.732103192778773,-50.0535262481487
1761284418.3187878,1.6338259903013947,-0.2519289852215149,0.9513563454452397,0.10677787396766078,-26.344954974428834,10.593774100970736,-56.39964199995278
1761284418.3293173,0.9381430968698398,-0.21891709784722585,0.9409162753736093,0.10880643787931767,-29.899968453476045,9.362902110415595,-62.12155398047355
1761284418.3392987,0.2169327948448726,-0.18141248001626203,0.9413032479669114,0.10168733641335406,-33.96128256163504,8.034305270347563,-67.16454851958325
1761284418.348973,-0.5255483998259146,-0.14351983694702544,0.952056969601262,0.08725060612088599,-38.453691748491366,6.561939044914475,-71.4896224934646
1761284418.359189,-1.2856451581453239,-0.10850305101609231,0.9719360578785654,0.06743354015668077,-43.257333149106685,4.864878489173923,-75.06667912385245
1761284418.3691945,-2.0597542255403294,-0.07857495495270313,0.9990547633815147,0.0441445097679929,-48.209969317664935,2.8444411885828127,-77.87160526307747
1761284418.378759,-2.843896912147195,-0.054920790447094546,1.0310535389572495,0.01917767550575523,-53.11286245928945,0.40858062492241776,-79.88765721701307
1761284418.3887963,-3.6335017507689433,-0.037896235114668414,1.0652779790850904,-0.005827400769377982,-57.74056878290605,-2.5027798410000663,-81.1099760356293
1761284418.3988395,-4.423421010486081,-0.027301688990999252,1.0989516118529057,-0.029397152120906482,-61.85453551543717,-5.898340709921851,-81.55105623547303
1761284418.4087663,-5.208143890704926,-0.02264036496256347,1.129341434203173,-0.05022775544600738,-65.21970383962312,-9.727132766255819,-81.2449004708552
1761284418.4187877,-5.982129017445209,-0.023301963741414994,1.1539194043259657,-0.06719983869889606,-67.62264535922039,-13.88329673913282,-80.24823205844957
1761284418.428791,-6.740163885168006,-0.028650395980671158,1.170518180176313,-0.07941315633475675,-68.88925876381042,-18.222341979680486,-78.6381280442568
1761284418.4388897,-7.477666029818523,-0.03802126913307941,1.1774727733641477,-0.08623903070427343,-68.89980156602034,-22.584470828139512,-76.50644320833153
1761284418.4487805,-8.190864356929653,-0.05065447820195167,1.1737369241011104,-0.0873801329724328,-67.59911425058166,-26.819088743546704,-73.9521941514954
1761284418.4588773,-8.87683278548555,-0.06560129265184773,1.158963574277808,-0.08292302996233897,-65.00043329855679,-30.804723813067234,-71.07351765595872
1761284418.4687583,-9.533384574101335,-0.08165057650601974,1.1335402346472585,-0.07336775658952706,-61.18218807642552,-34.46014501390664,-67.96082137106694
1761284418.478775,-10.158865698661975,-0.09731111569911241,1.0985717279632086,-0.05961958766180329,-56.27838731312948,-37.74506613186416,-64.6922947220377
1761284418.4888225,-10.751902236283332,-0.11086762904362235,1.0558063619121465,-0.04293140181638304,-50.464235148288296,-40.651718199468945,-61.33216587942726
1761284418.4989202,-11.31115767419117,-0.12050547906602493,1.0075080035194846,-0.024791457209547178,-43.93919333446763,-43.190886013800494,-57.931248839189784
1761284418.5087507,-11.835145215364246,-0.1244838366491887,0.9562841931724566,-0.006761314053001793,-36.909798688931346,-45.377048845721305,-54.52873447512659
1761284418.5187945,-12.322124034171816,-0.12133241200760111,0.9048862276061839,0.009719093434714552,-29.574309621784572,-47.21687196125362,-51.15402954327157
1761284418.5290654,-12.770091770615263,-0.1100476459322228,0.8559993841031219,0.02353022380563518,-22.110840049389637,-48.70380315018396,-47.8277290703138
1761284418.538832,-13.1768701211082,-0.0902645587234156,0.8120416272392582,0.03403883461511974,-14.670100090154557,-49.81950848169762,-44.5613642968073
1761284418.5487669,-13.540267568200717,-0.06238034781609089,0.7749895365118895,0.041195078406275155,-7.373233561419103,-50.540896039167166,-41.35620196981858
1761284418.5587704,-13.85829561105312,-0.027609498267685852,0.7462504407280863,0.04553531041508595,-0.3145591752748006,-50.84999552740865,-38.20190703507078
1761284418.5687757,-14.12941378718951,0.012041138250871771,0.72659700247647,0.04808282596574103,6.431690971842373,-50.743308169826385,-35.076189694896726
1761284418.5788112,-14.3527821944083,0.053879697353302475,0.7161724757355807,0.05015963623663302,12.802223322366672,-50.237496924113664,-31.94656150716086
1761284418.5887916,-14.528503356252623,0.09471680825936164,0.7145621326659672,0.05314251545236522,18.735236799182644,-49.36927431589096,-28.774996334160477
1761284418.5995293,-14.657834524535637,0.13112912095728407,0.7209128251580332,0.05821088126514309,24.16301588502307,-48.18872936800111,-25.525676669579603
1761284418.610115,-14.743348109654281,0.15978755817379756,0.7340734986573828,0.06613675428465893,29.008689674958575,-46.74675250865877,-22.175263214227826
1761284418.6192782,-14.789017951778542,0.1778201294427847,0.7527279532260831,0.07715550747780943,33.18854407161837,-45.07838388132695,-18.724464847112646
1761284418.6299722,-14.800218054292248,0.18315421250460454,0.7754973178904716,0.09093409922758196,36.62005271458077,-43.184712687088414,-15.209220735576007
1761284418.639254,-14.78363642002704,0.17476968425808484,0.8010006337334281,0.10662870810185092,39.23432099688525,-41.01645153512046,-11.709516138566585
1761284418.6490433,-14.747120915607056,0.1528063404548397,0.8278726337029105,0.12300382333628057,40.99030172184305,-38.46258650977263,-8.353699412776008
1761284418.6588042,-14.699478490621281,0.11850358175039939,0.85474505407867,0.13857635053680525,41.88737412828531,-35.34751505749961,-5.316209944005645
1761284418.6689222,-14.65024304926408,0.07399050720393908,0.880203266309879,0.15175475121378815,41.97296723034324,-31.439653348834643,-2.807029063386195
1761284418.679409,-14.609416851150437,0.02197420393355524,0.9027370984720869,0.16096070957101036,41.34285580608897,-26.473443334734327,-1.052086863785223
1761284418.6891835,-14.587180636547163,-0.034612712268704666,0.9207146186567599,0.16473781989307335,40.133341858889615,-20.184936099536753,-0.26531635773859696
1761284418.6987753,-14.593557232142876,-0.09294472331454615,0.9324182830168342,0.16185742086857074,38.50647634872436,-12.358735972935749,-0.6148672269429161
1761284418.7088275,-14.637999762947418,-0.15056776820810794,0.9361828221691046,0.15142334043956576,36.631476536425964,-2.8813360023639087,-2.1878337806134023
1761284418.7187812,-14.728868396480328,-0.20557131551779434,0.9306439870213781,0.13296222931384705,34.667032121309965,8.206686517954465,-4.95924097556709
1761284418.728761,-14.872777212762784,-0.25667201522325817,0.9150511300653987,0.10647796365364133,32.749393053348236,20.66875912480201,-8.7714149871728
1761284418.73884,-15.073838068907014,-0.3032243624794969,0.8895603498891912,0.07245757587390668,30.989268522421344,34.0498052730749,-13.328845534087398
1761284418.7488194,-15.332878823723565,-0.345163006322826,0.8554406191542407,0.03183893504694272,29.476998250738,47.68031985820591,-18.211340773237442
1761284418.7587636,-15.646745314715591,-0.3828684330726768,0.815162868297101,-0.014029230881046928,28.29183511368522,60.710724642247165,-22.905366241027817
1761284418.7687886,-16.007805364658747,-0.4169530497662397,0.7723581416436917,-0.06340293395144651,27.509393887545958,72.17541601323836,-26.85076933756918
1761284418.7787473,-16.403764566246135,-0.4479850454902504,0.7316281156599459,-0.11412460020081149,27.202169788518173,81.08153671215999,-29.498059845403688
1761284418.7887568,-16.817879951043064,-0.4761883081737862,0.6981943865238739,-0.16359809287376606,27.430874932879103,86.51352288840812,-30.370025402399303
1761284418.7991214,-17.229619215966338,-0.5011717866341269,0.6773890042566164,-0.2088163490510994,28.227862313978676,87.74145189980145,-29.120594894334346
1761284418.8087513,-17.61576469146086,-0.5217514625615646,0.6740134039592958,-0.24650807169321237,29.576957747696635,84.3198389344074,-25.583630411428793
1761284418.8188078,-17.95191075868469,-0.5359284419645324,0.6916267885550048,-0.27344113658671393,31.39584839737151,76.16420352527484,-19.80497957637197
1761284418.8288484,-18.21425660728274,-0.5410684584429907,0.731864594772642,-0.28686245676159744,33.52729350915652,63.595105673589174,-12.052736920206844
1761284418.838791,-18.381554593850367,-0.5342883208865401,0.7939145723381323,-0.28499249525229947,35.74369244710269,47.34259597616219,-2.8030296738217944
1761284418.849122,-18.4370393578922,-0.5130036755170501,0.874273510172073,-0.2674565049586854,37.76643817730759,28.50755086360439,7.298598767705353
1761284418.858754,-18.370138259723383,-0.4755467527218329,0.9668730024389384,-0.23553779433614683,39.29799716513523,8.480151178697136,17.497322619269426
1761284418.869284,-18.177754843303404,-0.4217354102132153,1.063613613387765,-0.19217624623270071,40.06180041752858,-11.179987750966793,27.005218936089914
1761284418.879134,-17.864929792747027,-0.35327076077757286,1.1552913562327836,-0.14169375980841772,39.84337349920493,-28.89272170305537,35.08586629814118
1761284418.888781,-17.444726165774558,-0.2738596459261006,1.2328325153299005,-0.0892900167068756,38.52575392032542,-43.22086914786294,41.13799990703971
1761284418.8988485,-16.937263906261556,-0.18899754744304217,1.2886681608934407,-0.04039955513683443,36.112965238942365,-53.0292382170396,44.767732199705044
1761284418.9092624,-16.367938535983953,-0.10540261585149992,1.317993366483443,-2.132170884596979e-05,32.736923029713246,-57.617576515666634,45.83874636678944
1761284418.9193902,-15.764981538987021,-0.03015590126542845,1.3196087767775908,0.027878562108631134,28.64546601943344,-56.80675681829673,44.49144196067313
1761284418.9291046,-15.156628320189668,0.030330120728147718,1.2960858354608893,0.04082058940263145,24.172086637068823,-50.96259693283745,41.125717800192
1761284418.9387922,-14.568231450451014,0.0713333041289077,1.2531550568843433,0.03808220162156282,19.69112343593252,-40.9505257115868,36.34775680332872
