timestamp,angle,linear_acceleration_x,linear_acceleration_y,linear_acceleration_z,angular_velocity_x,angular_velocity_y,angular_velocity_z
1760958031.3169098,0.45223775333207344,0.03766432022549296,0.9587597720450755,-0.1589180637020825,1.247797977938717,-5.329235736279756,10.624802402994654
1760958031.3269553,0.6499277916923762,0.04784899073901417,0.9586264178447528,-0.15646439176706803,1.2456853530407663,-5.691781264843196,11.351555666991613
1760958031.3371193,0.8608366361064143,0.053907982122770065,0.959645753126426,-0.1546503795407211,1.1854128581830456,-5.662616671203006,11.904298998196522
1760958031.3469372,1.0711535353366022,0.05522552005816483,0.9615612482581806,-0.1534090331877854,1.0548615126922496,-5.199431101540681,12.255943371946016
1760958031.356924,1.2670696142712772,0.051648513031086224,0.9640271433243572,-0.15269819579401972,0.8446353151244713,-4.302302050326248,12.393099848432161
1760958031.3669875,1.436075315489635,0.0435025924344488,0.9666498551877765,-0.15250727762448116,0.5481308421060213,-3.0131872468624104,12.317111302172691
1760958031.3770504,1.5680825707421349,0.0315405004909627,0.9690382133906578,-0.1528521219100361,0.16174493845134746,-1.4102295865900163,12.043975203362379
1760958031.3870485,1.6562442386367955,0.016838045759052515,0.9708544469629666,-0.15375913063095809,-0.31482340695014155,0.40202704061766936,11.603045000382865
1760958031.3971376,1.6974030501910014,0.0006612816017818774,0.9718576878840917,-0.15524249466430715,-0.8782931753159985,2.3047971963396785,11.034507138769102
1760958031.4069717,1.692162511157791,-0.015670911032645212,0.9719335358517218,-0.15727984918361465,-1.52165061861196,4.177659453738746,10.385809125556843
1760958031.4171407,1.6446206218150736,-0.03090963976924977,0.9711059527797865,-0.15979210002765593,-2.234177444826266,5.9098581744844525,9.70740426593769
1760958031.4275308,1.561837153554057,-0.0439728763371787,0.9695309906742613,-0.16263291401320937,-3.0016499663236322,7.40902658376888,9.048324407137315
1760958031.4370086,1.4531165929521512,-0.05401269368486996,0.9674748243472978,-0.16559207126883305,-3.806676661680809,8.6066734093222,8.452148866948907
1760958031.447268,1.329187042904609,-0.06045424444201969,0.9652805777164685,-0.16841423703636035,-4.629163859727681,9.460374316469975,7.953877793665906
1760958031.4571664,1.2013467819437729,-0.06300993156178135,0.9633293702752986,-0.17083112868746653,-5.446959688710825,9.953074523774356,7.578043328103652
1760958031.4669278,1.0806410292453388,-0.06167160450273668,0.962000649766687,-0.1726014216478094,-6.23678620563972,10.090188985220031,7.3381495220339374
1760958031.4770963,0.9771271849987416,-0.05668102481142316,0.9616350701016778,-0.17355007189086194,-6.97557428502125,9.895291201108213,7.237306708058203
1760958031.4872005,0.8992877246243369,-0.048476761547681005,0.9625010731536502,-0.17359787016575998,-7.642232874358024,9.405165387343482,7.269790862363459
1760958031.4973276,0.8536483274825726,-0.03761739611987225,0.9647660129399802,-0.172773498292998,-8.219727439587983,8.664916876960907,7.423220758431283
1760958031.5070858,0.8446444039331847,-0.024687103143872114,0.9684745894387287,-0.17120415906143333,-8.697160340448312,7.723719009234385,7.681048503806862
1760958031.5169303,0.8747474809796032,-0.010197470170042699,0.9735392841831325,-0.16908590671413573,-9.071398556605239,6.6316235706323186,8.02504129783488
1760958031.5273054,0.9448182936554789,0.005494980226073874,0.9797467830008976,-0.166638980048429,-9.347753609839028,5.437677269535531,8.43738402958374
1760958031.537008,1.054607293518568,0.022235545823066635,0.9867808765837259,-0.16405550482994555,-9.539359126996567,4.1893832310304395,8.902000726037436
1760958031.5474417,1.2032899949096274,0.04006803253157165,0.9942584446759254,-0.16144770022322188,-9.665221297699157,2.933350353681157,9.404749933314275
1760958031.5570126,1.389914795663348,0.059177359248960344,1.001773409304795,-0.158805109329819,-9.747328338337242,1.716803018413134,9.932342821375256
1760958031.5670133,1.613657231002242,0.07978565926698977,1.0089440998902797,-0.1559689365712921,-9.80753991881312,0.5894750503524473,10.470140455836875
1760958031.5770457,1.8738141992546469,0.10202009116620084,1.0154599144569068,-0.15262988879533843,-9.86512420368626,-0.39472300448171566,10.999313154617136
1760958031.587097,2.1695286390755304,0.12577901161279284,1.0211218433590465,-0.14835310057257725,-9.935706569036784,-1.1769724717924754,11.494080031704268
1760958031.5970695,2.499298233058074,0.15062693302049862,1.0258697899845892,-0.14262948992019067,-10.032020241362742,-1.694454089359948,11.919824854928486
1760958031.6071577,2.860375905251806,0.17574550555820975,1.0297898742392615,-0.13494747598266216,-10.16627916156447,-1.8834005346623035,12.232789651016033
1760958031.6169765,3.2482028878807454,0.1999580962441164,1.033097221110477,-0.1248742619200145,-10.353413125047556,-1.6843713931338293,12.38179061887219
1760958031.627002,3.6560197733415665,0.22183142651613427,1.036093531526624,-0.11213360191415755,-10.614033441657062,-1.0492371906626625,12.312012852712241
1760958031.6371636,4.07477347513448,0.23984116844046802,1.0391040268070388,-0.09666723530767518,-10.975984525444066,0.051215199484093206,11.970485225851204
1760958031.6471074,4.493380541680681,0.2525726972319346,1.0424042421231487,-0.07866953491533198,-11.47370344670199,1.6204955976629134,11.31241371806716
1760958031.657124,4.899332820637944,0.25891883663318577,1.0461510959814688,-0.05858918505660237,-12.14522828139768,3.6318851353971393,10.307276301940147
1760958031.6670814,5.279561990970164,0.25823793940722917,1.0503326736865604,-0.037097158944910884,-13.027337747231035,6.027272241010172,8.943553362860952
1760958031.677057,5.621434701854965,0.2504470430993638,1.0547475761845895,-0.015025587831352001,-14.149745667096012,8.719864745009845,7.231218668772177
1760958031.6870914,5.913736862699281,0.23603967437602003,1.0590193721761136,0.006713815646418978,-15.529399936495922,11.600619533204764,5.201576629627993
1760958031.6969624,6.147518153099146,0.21602991740810618,1.0626458108140087,0.0272210433300124,-17.165776148307664,14.547623017874049,2.904534890726266
1760958031.7070825,6.316696236604341,0.1918325441495056,1.0650757938016147,0.045698272715001445,-19.03774667371907,17.437214232108808,0.4037716455828262
1760958031.7171214,6.418357063721508,0.16509590639301347,1.065800000471276,0.06153075784939916,-21.102312410843926,20.155387671667555,-2.2295731500137865
1760958031.7269373,6.452727711273732,0.1375111238428927,1.064435824970811,0.07435071193796271,-23.295313701095374,22.60792838710994,-4.924012043294089
1760958031.7374709,6.422837176766918,0.11062579735550228,1.0607868435861836,0.08407668931719159,-25.534175768069304,24.727837993905393,-7.614926572444493
1760958031.7469585,6.333916200040583,0.08568961024503144,1.0548634283691933,0.09092098542545973,-27.722679007332655,26.478960372912876,-10.25111479730306
1760958031.7569952,6.192617677160649,0.0635511606307439,1.0468644459654453,0.09536024843550425,-29.757566586155953,27.85530638793029,-12.799853782782382
1760958031.7671032,6.006160568754876,0.04461347164417905,1.0371349233114222,0.09806996420711309,-31.53650299570267,28.8762952610753,-15.249723918703719
1760958031.7771475,5.781507919572853,0.02884611165627398,1.0261210101760405,0.09982940590103381,-32.96657231825738,29.578812131610935,-17.610655421345143
1760958031.786979,5.524681240429955,0.015846694608348953,1.0143365188975786,0.10140863378646496,-33.97227657903912,30.00749534244677,-19.911010301082694
1760958031.7971575,5.240288941537735,0.004940230193275488,1.002341408172019,0.10345360928664649,-34.50194695776816,30.204926325095816,-22.191947231790156
1760958031.807127,4.931309301363022,-0.004699999833421882,0.9907228653578802,0.10638866394009519,-34.53165146666814,30.203337199468358,-24.499744394754195
1760958031.8170428,4.599126722648525,-0.013928334726097906,0.9800689473174551,0.11035448340100343,-34.066063881276506,30.01906480193667,-26.877094687544943
1760958031.8270602,4.243783094909565,-0.023515487009601894,0.9709299350635211,0.11519337845910071,-33.13627037752336,29.650355855185044,-29.354580963146574
1760958031.83707,3.8643803075858068,-0.03406277797003508,0.9637685741425278,0.12048444958050468,-31.794987699422766,29.078458204497657,-31.94354711010899
1760958031.8470685,3.4595580950183633,-0.04595084023329332,0.9589050620012071,0.12562152367641777,-30.110009349962287,28.271422319619358,-34.631392439142594
1760958031.8571396,3.0279730830116023,-0.05932615859696581,0.9564661135157287,0.12991841967698456,-28.156824140267204,27.18978485816649,-37.37997381666886
1760958031.866942,2.5687166146845373,-0.07412199203580573,0.9563494154824359,0.13272307965709956,-26.01132362496042,25.79325368393678,-40.127386332526676
1760958031.8772109,2.0816265307271604,-0.09010443472381947,0.9582139559303569,0.13352438626383892,-23.743457286414614,24.047517706727348,-42.792980052237645
1760958031.8871636,1.5674698608931859,-0.10692960224624676,0.9615020526555584,0.13203727678216723,-21.412643400120338,21.930286268020513,-45.28508418723508
1760958031.897154,1.0279976323174937,-0.12419534925173245,0.9654917661501886,0.12825199508571578,-19.06557700504364,19.435691818828,-47.51055343383165
1760958031.9072077,0.4658940087235172,-0.14147465386138405,0.9693724832243583,0.12243822437689789,-16.73666561570295,16.576402470380884,-49.38494240910373
1760958031.9172366,-0.11534720836081946,-0.1583280626668643,0.972333782961496,0.11510584732824101,-14.450711457505948,13.383220517245803,-50.84191774419657
1760958031.927005,-0.7115866791992151,-0.17430267154310844,0.9736565152400852,0.10693339460696548,-12.226857901887096,9.902456782159792,-51.840527093189024
1760958031.9371676,-1.3182204038146863,-0.18892940072981212,0.9727948185275388,0.09867691436456923,-10.0824797944156,6.191782374272193,-52.3692126998763
1760958031.9471304,-1.9303636747513813,-0.2017305028893386,0.9694412241682936,0.09107009262423417,-8.03578385854128,2.315472675355586,-52.44595927136756
1760958031.9570317,-2.5430339471033427,-0.2122483276523164,0.963572614976948,0.08472792447306766,-6.106386607583826,-1.6600221401405362,-52.11462416137771
1760958031.967038,-3.151335709559316,-0.22010157909138156,0.9554754520304395,0.08006982550173175,-4.313875665223918,-5.669405295799055,-51.43819261645064
1760958031.9771125,-3.750652002738987,-0.22506294503663424,0.9457424843726123,0.07727644357234789,-2.6750647235280427,-9.650323454056482,-50.4902590313907
1760958031.9870393,-4.33684007266165,-0.2271359924590036,0.9352286375828804,0.07628578032396978,-1.2010541264551355,-13.543636504493819,-49.34627510816339
1760958031.9969616,-4.906414128120499,-0.22659961880891852,0.9249590718248386,0.07682496600926578,0.10484944860461162,-17.292614377771496,-48.0759417346973
1760958032.0071504,-5.4566838168549205,-0.22399273396094724,0.9159958596299942,0.07846946709908299,1.2477606583723277,-20.8417709400548,-46.73763550158436
1760958032.0169518,-5.985813452827025,-0.2200306496924481,0.9092841081666968,0.08072027600328188,2.2403882787841334,-24.13606906447274,-45.37517140362317
1760958032.027109,-6.492780551069102,-0.21547110786158213,0.9055077938560433,0.08308860776049502,3.1011734673823503,-27.121024285445998,-44.01674292552015
1760958032.03722,-6.977239015294701,-0.21096986637671783,0.9049860847738278,0.08517684469212995,3.851933188835992,-29.743885194574137,-42.67566619213469
1760958032.047123,-7.439320177464207,-0.20697106343330243,0.9076302683598635,0.08674521030851491,4.515423722237189,-31.95572488399877,-41.3525454834408
1760958032.0569282,-7.879421491266433,-0.20366246331921944,0.9129630194810889,0.08775546054028574,5.113022333698839,-33.7140640648831,-40.038544718293025
1760958032.067129,-8.298032906227693,-0.20099953896513006,0.9201860172881842,0.08838448077245258,5.662563801874003,-34.985578030392226,-38.719477963320145
1760958032.0772247,-8.695637924688734,-0.19878087118559998,0.9282784231593894,0.08900237561184099,6.176348282754557,-35.74845141701306,-37.380371795177226
1760958032.0870738,-9.072706887476212,-0.19674896814944096,0.9361151584847803,0.09011349718533214,6.659444102180719,-35.99400125530277,-36.010029818496754
1760958032.0969853,-9.429779469194768,-0.19469157843362836,0.9425975174905609,0.09226614564827411,7.108540197612859,-35.72731302223471,-34.60502793330915
1760958032.1070025,-9.76761425941132,-0.192522076647441,0.9467828776668271,0.0959453912317273,7.511650538992561,-34.96683712026867,-33.17256770176922
1760958032.1169825,-10.08736771570309,-0.19032260476057328,0.947993647414002,0.10146946174031751,7.848907703582178,-33.74311738900051,-31.731735907905467
1760958032.1269684,-10.390755888174038,-0.18834252735675275,0.9458885025474016,0.10891083963197797,8.094545655396619,-32.09696364674611,-30.312931000855166
1760958032.1369987,-10.680153149110463,-0.1869560064977731,0.9404892391949403,0.118059005979795,8.220008753541336,-30.077361342941927,-28.95547807061068
1760958032.1469157,-10.958593127842134,-0.1865914389590001,0.9321645974135385,0.1284339247906962,8.19795240810344,-27.7392597466161,-27.703723580368532
1760958032.1571405,-11.229655481163402,-0.18764916695650732,0.9215747188458462,0.1393486455071973,8.006726313259342,-25.14121601044908,-26.60213819479198
1760958032.1671863,-11.497244250826531,-0.19042339299046115,0.909581425037043,0.15000744897076163,7.6347782696575495,-22.342823802132543,-25.690117594910514
1760958032.1771128,-11.765286481715739,-0.19504263587459061,0.8971346755879012,0.15961659916643056,7.084333690420138,-19.40196624793516,-24.997221305286715
1760958032.1869543,-12.037400895804721,-0.2014415272273118,0.8851522059953446,0.16748243901442134,6.3737361385785185,-16.37213204114664,-24.53950486442634
1760958032.1969223,-12.31660110030421,-0.20937337892631722,0.8744122424923704,0.1730777162597433,5.5379817300748355,-13.300191795874042,-24.31738063846332
1760958032.2069361,-12.605099225987031,-0.2184655919944017,0.8654765652754388,0.17606823784974884,4.627214002339645,-10.225068830980579,-24.315133820159698
1760958032.2174158,-12.9042584521547,-0.22830896818842558,0.8586546305659272,0.17630286294713934,3.703232846800716,-7.1776627628295016,-24.501914054740887
1760958032.227313,-13.214706625723904,-0.2385600918115183,0.8540096851733228,0.17377755956946678,2.8343761119234103,-4.182235241854845,-24.83380821868162
1760958032.237647,-13.536576773122652,-0.2490279648047974,0.8513961222718275,0.1685885958223529,2.089387135161741,-1.2592612891269133,-25.25651870098067
1760958032.2475328,-13.869799939367859,-0.25971768427964614,0.8505096121179505,0.1608908629677168,1.5310099556148662,1.5705032180638794,-25.708214888930826
1760958032.2571163,-14.214357178337357,-0.27081645293003953,0.8509333299848293,0.1508745206555421,1.2100452905796812,4.281248076351487,-26.122247380106728
1760958032.2669656,-14.570405602952935,-0.2826241144375746,0.8521725048027582,0.1387669274816179,1.1605074676913447,6.837350914099359,-26.429556224363626
1760958032.2771282,-14.938221266121452,-0.2954434751879592,0.8536783036011985,0.12485810020607592,1.3963971146062562,9.189479250736031,-26.56072454354598
1760958032.2871988,-15.3179395005886,-0.3094527464937436,0.8548669734767925,0.10953894500102072,1.910473162705718,11.27242117304637,-26.44771702441788
1760958032.2971077,-15.709115196004259,-0.3245858667362486,0.8551422956873785,0.09333584806950508,2.6752741781813363,13.005447123652049,-26.02540961339876
1760958032.3070962,-16.110166722301983,-0.34044670375914415,0.8539302713558763,0.07692542857954522,3.6464691474405986,14.295835362629626,-25.23306956236674
1760958032.3169763,-16.51780053796988,-0.3562781082207479,0.8507335592718928,0.06111877572718279,4.768363847241086,15.045864169304343,-24.01597248457502
1760958032.3272188,-16.92653104268386,-0.3709964907683124,0.8452077985546372,0.046812583575015894,5.981057409651542,15.16305025511431,-22.32732347316662
1760958032.3370514,-17.328408491277816,-0.38329081881716154,0.8372534984611973,0.03491239934938707,7.228416062377527,14.5727740915822,-20.130575740201913
1760958032.3470385,-17.713048315721743,-0.39177538934433603,0.8271094158670692,0.02623906362111187,8.465803203669266,13.231852642941698,-17.402139875166355
1760958032.3569925,-18.06802006635522,-0.3951783966745922,0.8154292462078488,0.02143282612605464,9.666423081444833,11.141248657620908,-14.134400449656566
1760958032.3670933,-18.379603631883047,-0.3925410104019069,0.8033225717860525,0.020870205772778098,10.8252018517677,8.35599208795622,-10.338931279727106
1760958032.3770883,-18.633857417563345,-0.3833949445454928,0.7923415076865716,0.02460629184911705,11.959353138758829,4.990516834564369,-6.0497864578533935
1760958032.3871975,-18.81787963207301,-0.3678850077561001,0.784397024120247,0.032350907372612,13.105174436204088,1.217987766941834,-1.3266658841472019
1760958032.3971262,-18.921098503753424,-0.34681100733031983,0.7815965596620297,0.04348257698731553,14.311170532433634,-2.7371715879986804,3.7424176314025397
1760958032.4071069,-18.936414898471686,-0.32157903954044376,0.786008397753126,0.0571000249621113,15.628201639015796,-6.613508682424998,9.039561854163995
1760958032.4171276,-18.86104323617721,-0.29406926555208257,0.7993749716690743,0.07210615343024,17.097877467091433,-10.132637681148172,14.41726142638185
1760958032.4273732,-18.696944000212202,-0.266440256373234,0.822811509753299,0.08731452016419232,18.740765073940203,-13.023601998191888,19.701372880927636
1760958032.4374907,-18.45080011469764,-0.2408973595253971,0.8565350379004644,0.1015655714809804,20.546100005730924,-15.049377178605248,24.697403744842894
1760958032.4470696,-18.133548042480125,-0.21945443200162418,0.8996711242350746,0.11383983648739875,22.46458870603707,-16.0330102816087,29.200379751138044
1760958032.4573376,-17.759522598954693,-0.20371432893502914,0.9501817120816559,0.12335476179500557,24.405628587763143,-15.880642138253643,33.00802546087787
1760958032.4672241,-17.345305972324738,-0.19468517315385508,1.004946447814194,0.12962908230826742,26.239953655514025,-14.598550887515518,35.93648613555304
1760958032.4771328,-16.908387174927025,-0.19264240357622991,1.0600127938674335,0.13249752971393686,27.808383375040478,-12.301452018748455,37.837404679293435
1760958032.487077,-16.465745374466273,-0.19704749184954565,1.1110082876342475,0.13206416611432636,28.936924564978458,-9.209700279102073,38.61484340655057
1760958032.497222,-16.032476731752222,-0.20654252662867273,1.153679877125359,0.12859478344971095,29.457777412205473,-5.633866924207809,38.24027416190429
1760958032.5070517,-15.620590129101565,-0.21904499225488075,1.1844876961646504,0.12236522832999756,29.23469283722383,-1.9464673984910565,36.76365482696673
1760958032.517158,-15.238095128496873,-0.23195714975919468,1.2011420002511708,0.11350160831483347,28.189681193429763,1.457599931394417,34.318548965881405
1760958032.527098,-14.888487135028814,-0.24247911861012936,1.2029563522432494,0.1018653947884438,26.32665658843919,4.2081427049853035,31.119485024984254
1760958032.5370996,-14.570697575232428,-0.24798596846647045,1.1909210168346025,0.08704002193358305,23.746838976774587,6.008214316836192,27.450420380030014
1760958032.5470066,-14.279524316957001,-0.24640919819234858,1.1674753221579135,0.06845496512530988,20.651199042429788,6.676254249732683,23.64426210463429
1760958032.5569947,-14.006495293865903,-0.23655620541566397,1.1360430435709281,0.04563952742520989,17.32707405644397,6.17362308168161,20.054735556965657
1760958032.567321,-13.741054398886678,-0.21830702741669383,1.1004505150707227,0.018545221417088385,14.118927734918262,4.611063612952582,17.023239046841347
1760958032.5776505,-13.471905897005579,-0.19264635958210638,1.064355745989959,-0.012166864999359333,11.386421414060656,2.2314545754272324,14.844436968428848
1760958032.5871837,-13.188328978203257,-0.1615214753846753,1.030789717390569,-0.044986322866724396,9.455859260986703,-0.6287321568002514,13.735000666607085
1760958032.5971513,-12.881292386959942,-0.1275567022440575,1.0018697708088804,-0.0776361814104283,8.572995863429,-3.5921327460049395,13.809874884822754
1760958032.607456,-12.544260272182731,-0.09368698748542588,0.9787025194055138,-0.10738046230713076,8.865473176717794,-6.297291007383976,15.069575091387199
1760958032.617212,-12.17366131964917,-0.06278221236013959,0.9614539223202393,-0.1314851646585545,10.321507654301,-8.449157133127464,17.40039347400053
1760958032.627081,-11.769057416606652,-0.037318689314273214,0.9495331411830183,-0.14771838629094142,12.788354727252404,-9.854966462830854,20.587358778255705
1760958032.6374235,-11.333072475267375,-0.019128304197420128,0.9418268195303152,-0.15477357544563933,15.990522271783222,-10.440823443422664,24.33783266715966
1760958032.6470892,-10.871134369314875,-0.009236756248678143,0.93693685798808,-0.15252955711452232,19.56455982729953,-10.248428056995067,28.312171416129164
1760958032.6571298,-10.391068698022702,-0.007797300615993752,0.933403513785108,-0.14210434549701637,23.10493589649602,-9.415011183881566,32.157211761642735
1760958032.6671822,-9.902578802109215,-0.01412878986496454,0.9299147146123354,-0.12570249232931588,26.214161758397715,-8.142042591978536,35.53849848933569
1760958032.6771476,-9.416650650303309,-0.02686454150110491,0.9255014335626056,-0.10629070372415782,28.550037256867217,-6.6592950185310436,38.167997823113616
1760958032.6872246,-8.944923339701777,-0.044201202107589016,0.9197018398255757,-0.08716185017012505,29.86374254367351,-5.1904092204228,39.825241401727666
1760958032.696931,-8.499056375209745,-0.06420460149270037,0.912657784182299,-0.07146302112702878,30.02428643169677,-3.924644491067278,40.371073564939714
1760958032.706961,-8.090102787751025,-0.08510053855770011,0.9051039522678521,-0.06176681927796472,29.02710622161308,-2.9976539223391803,39.754135493609716
1760958032.7169614,-7.727874441683768,-0.10547600837117001,0.8982303114998055,-0.059752800535944006,26.986941806854365,-2.4823648132251614,38.010777211254634
1760958032.7269926,-7.420280080266925,-0.12434692134071962,0.8934332444823373,-0.06603850960942116,24.11716901197828,-2.3895583506021927,35.25928056977851
1760958032.7371345,-7.17263725634845,-0.14109628194610965,0.8920055290073117,-0.0801670473317467,20.699379122567823,-2.676586056751983,31.689240863653737
1760958032.7469254,-6.987000483246208,-0.15532899332109773,0.8948392105476457,-0.10073396423202485,17.04797357509202,-3.261885991407455,27.546844805776292
1760958032.756918,-6.861591553164933,-0.16670868026801053,0.9022181879308385,-0.12562477406445852,13.474753149151274,-4.042594826765813,23.116726072575016
1760958032.7671158,-6.790443045957019,-0.17483311791983278,0.9137510845902758,-0.15232774087314502,10.257858569389983,-4.912546854753344,18.70117158154897
1760958032.7770486,-6.76336011887749,-0.17917790507399345,0.9284478717654683,-0.17827755172942247,7.61813418570744,-5.7782115711862385,14.597724632727319
1760958032.787121,-6.766270487753348,-0.17911103693280395,0.9449019282935048,-0.20117843783114933,5.704419939996865,-6.570563282576156,11.076609397620457
1760958032.7971559,-6.781979781618774,-0.1739654124851362,0.9615231185563189,-0.2192597062447862,4.587817039454576,-7.251461017229718,8.35973780872148
1760958032.8070023,-6.791292571347158,-0.1631507910142302,0.9767734135936557,-0.23143391781565242,4.263885608488148,-7.813828845950494,6.603231023303318
1760958032.8173902,-6.7744093133395955,-0.14628535152093217,0.9893694015370774,-0.23735008593469142,4.661154577073482,-8.275742789068849,5.885310026592874
1760958032.827079,-6.712473051062748,-0.12332623931426523,0.9984277072546216,-0.23735207583253162,5.654212052897513,-8.669420182774346,6.201017356522769
1760958032.8372166,-6.589117751455855,-0.09467686946896207,1.003539674931479,-0.23236203086242452,7.079768087673329,-9.027002915171321,7.464524588085196
1760958032.8470528,-6.391861270517422,-0.061247688738598406,1.0047718942840649,-0.2237120691566525,8.754195366205865,-9.36576663107402,9.518875126757816
1760958032.8571603,-6.113195052465115,-0.02445195038701418,1.0026001663275934,-0.2129484238077805,10.491081880972308,-9.675735862085732,12.152101942916019
1760958032.8670802,-5.751257328458202,0.013868517377889286,0.9977953423855282,-0.2016322097585557,12.117363112348654,-9.912442413577246,15.117925577251812
1760958032.87707,-5.310031572255034,0.05157743848533276,0.9912860733456632,-0.19115907692476986,13.48674761530892,-9.99670759650332,18.15877640114688
1760958032.8870058,-4.799067975631462,0.08642018854066924,0.984022733495856,-0.18261549700956636,14.489434238087103,-9.822044665476948,21.028710691014098
1760958032.8971243,-4.232767771409789,0.1162231457783765,0.9768605477940987,-0.17668373070883286,15.057508929084394,-9.268863319621742,23.5139001852383
1760958032.9071383,-3.6292988168557767,0.13909715544991438,0.9704726939925511,-0.1736021021594082,15.16586914519626,-8.22338655953182,25.448768056569776
1760958032.9172146,-3.0092333945909138,0.15362345435019026,0.9652981642644136,-0.17318182340637428,14.829008986567674,-6.5982645630804235,26.726460840039227
1760958032.926997,-2.394019339511499,0.15899887035618826,0.9615243166341886,-0.17487561315643044,14.094435360281167,-4.351441107872128,27.303064493138073
1760958032.936947,-1.8044119066083628,0.15511962496085696,0.959100195931334,-0.1778872980829512,13.033803932814143,-1.4999821511370817,27.195680047113
1760958032.9471037,-1.2590025110352996,0.14259008466821435,0.9577745002725115,-0.18130671006757149,11.733027361666377,1.873699369461243,26.475094148611884
1760958032.9570494,-0.7729771992409421,0.12265314796807361,0.9571517278351553,-0.18425128305476582,10.282611878581385,5.624608161264044,25.25425719508236
1760958032.9671974,-0.35721897327731045,0.09705051342237453,0.9567606983707853,-0.18599511280718256,8.769326207441425,9.556867191439437,23.674077903069684
1760958032.9771087,-0.017833229615929168,0.06783136210169356,0.9561300637240765,-0.18606810938526736,7.270005122744974,13.4428644276902,21.888143253978484
1760958032.9871173,0.2438727383788023,0.03713532086690107,0.9548646368705563,-0.18431228944282324,5.847865588293704,17.047187420008065,20.047896949278066
1760958032.9971342,0.43098125040370466,0.0069792950939820434,0.9527140430024579,-0.18088884803444877,4.551239276999189,20.151974949325155,18.289608147215755
1760958033.0070689,0.5502065909224148,-0.020922798140331607,0.949622498968722,-0.176237674075457,3.4142069178155867,22.580156780205776,16.724180560347328
1760958033.017278,0.6109104946731909,-0.045283918491611674,0.9457483265485106,-0.17099913855156917,2.4583561257994155,24.213471857794858,15.430509954058502
1760958033.0272439,0.6240339819101717,-0.06529804868597364,0.9414463683260867,-0.1659140781286122,1.6948462411333303,25.00306959770524,14.452714985727262
1760958033.037088,0.6010844179707545,-0.08062387778575185,0.9372146703332324,-0.16171930964260164,1.1261744248278927,24.97172153684498,13.801176252701636
1760958033.0471458,0.5532900098253725,-0.09130949657207771,0.933614745523912,-0.15905210589291097,0.7474218731974401,24.20796463941255,13.456950950285767
1760958033.0572248,0.4909924694437399,-0.09767874562824344,0.9311795811885776,-0.15837151780299777,0.5471240796349973,22.85360417563916,13.378798870987534
1760958033.0671868,0.4232997794057354,-0.10020534809920735,0.9303254739012365,-0.15990254823332417,0.5080510915409426,21.08669995720852,13.511774951445714
1760958033.0772684,0.3579706832352645,-0.09940294449392756,0.9312836461761262,-0.16361092929022078,0.6080715464253219,19.10238393556853,13.796159228446651
1760958033.0872114,0.30145986614780257,-0.09575493062659979,0.9340643014846978,-0.16921538965794541,0.8210779505057532,17.093738250396914,14.17547636068769
1760958033.0970078,0.25903283504053143,-0.08969401620413314,0.9384580378252328,-0.17623683927531936,1.117855255363121,15.234672547662866,14.602547671284384
1760958033.107087,0.2348718732018852,-0.08162182264476239,0.944069720870679,-0.1840735206024593,1.4668221276856248,13.666360174145725,15.042895355179674
1760958033.1173296,0.23212986262850838,-0.07194586893707534,0.9503731981205138,-0.1920844723371231,1.8346905047921134,12.488319420896623,15.475296161046225
1760958033.1275592,0.2529244992867732,-0.0611126851789942,0.956774817155314,-0.19966390858595578,2.1871870531508595,11.754640069650426,15.88975366151113
1760958033.137158,0.2982856902437065,-0.04962650094734022,0.9626779446468289,-0.20629554627068317,2.4900188522436695,11.475198473952414,16.28354488169484
1760958033.1470337,0.36807598171889355,-0.038052099180308864,0.9675449090398841,-0.2115851303219417,2.7102463392085565,11.621086559629088,16.656266369194302
1760958033.1570113,0.4609095303735315,-0.027002467025205156,0.9709539927325189,-0.2152765706380541,2.8181538299400133,12.133015819458056,17.00493894737709
1760958033.167044,0.5741057664817079,-0.017109394119338005,0.9726482419905432,-0.2172586870928956,2.7895784683805234,12.931214112950128,17.320199997681463
1760958033.1771724,0.7037241424104146,-0.00897422246843031,0.9725724023930973,-0.217566548920432,2.6084884760892604,13.925336868073932,17.58440107098088
1760958033.1871119,0.8447245415038577,-0.003100380798262754,0.9708951901692003,-0.21637810448049002,2.2694332216179123,15.023155778635756,17.772061898637713
1760958033.1970491,0.9912776124643626,0.00018266507036809063,0.9680155878862385,-0.21400571403200191,1.7793681512472028,16.137210660831055,17.85266583474235
1760958033.2071342,1.1372163073078811,0.0007887354599488019,0.9645523929725021,-0.2108816842059895,1.1583264794557195,17.189117301770573,17.79528684017333
1760958033.2173853,1.2765868010427974,-0.0010775132395094208,0.9613152730522689,-0.2075346542816036,0.4384925409815393,18.11171632419288,17.574103182024647
1760958033.2270932,1.4042320211803525,-0.0049058624398310175,0.9592546994142616,-0.20455063803724918,-0.3385667757350371,18.8496568900355,17.17358518803403
1760958033.2371461,1.516326038495006,-0.009905515291460668,0.9593894426313461,-0.20251195730231952,-1.126457721697548,19.359295808364873,16.59212948993254
1760958033.2471025,1.6107748062414544,-0.015071926027475565,0.9627136109295518,-0.2019113998948011,-1.8799021119968613,19.60891407330838,15.84316512596036
1760958033.2572553,1.6874123657049296,-0.01929053718416867,0.970088758537867,-0.20304756786434774,-2.5613510615190704,19.580138037547,14.953220674748454
1760958033.2671177,1.7479505349680027,-0.021465310244307676,0.9821301330039771,-0.20591851258987662,-3.147359916944137,19.271035352948974,13.957028942059091
1760958033.2771988,1.7956756987310996,-0.020656356402378055,0.9991003606552629,-0.21014028668993617,-3.6338010990648795,18.700657567534662,12.890367037346495
1760958033.2873511,1.83492049846915,-0.016210558855596965,1.020827205203842,-0.2149196001564894,-4.0391546573356125,17.91398879390377,11.781888838685585
1760958033.2972221,1.8703687071080706,-0.007868623636212544,1.0466607298260162,-0.21910156871300318,-4.405380324248611,16.985608132796592,10.645589999204642
1760958033.30707,1.90627874313526,0.004169336476255869,1.075478068688722,-0.22129552998066274,-4.796138373997957,16.020146325733567,9.475629569497526
1760958033.3171024,1.945733063203149,0.019236996668804584,1.105736009515729,-0.22006046499426404,-5.292344516922559,15.147952636870924,8.244924816910645
1760958033.3272312,1.9900305122279185,0.036264766490118026,1.1355690252412654,-0.21411538811717465,-5.9852736015497126,14.51524907693674,6.908233301520306
1760958033.3371873,2.038327599908031,0.05391004788505696,1.1629316446512306,-0.2025348234093998,-6.967754777088269,14.269243675055733,5.409458588511371
1760958033.3472078,2.087597221523949,0.07073516366933753,1.1857802892716058,-0.18489476926551826,-8.324408395346397,14.539927032068483,3.691893023258252
1760958033.3572152,2.1329142527800324,0.08539916385818014,1.2022776312314842,-0.16134585922099473,-10.122199174936293,15.42130071784436,1.7093200358886091
1760958033.367062,2.1680120793210094,0.09682511548660915,1.2109906128016381,-0.13260392494328788,-12.40262600493526,16.95531710027435,-0.5644281041788376
1760958033.3771226,2.186001239396352,0.1043112792128914,1.211051496139693,-0.09986300187638826,-15.176565909907426,19.121639356165478,-3.129609503073471
1760958033.3872242,2.1801145006345783,0.10756930882863427,1.2022598371090465,-0.06465118345623608,-18.422250780721253,21.835388611903078,-5.959758586564641
1760958033.3971517,2.144346859720746,0.1066901878945196,1.1851149549078508,-0.0286612120394392,-22.086296539313693,24.95346708262566,-9.006080677996543
1760958033.4072359,2.073891909348716,0.10205550135010096,1.160777550388976,0.006410633917625295,-26.08730595588911,28.288183522497864,-12.205941686548279
1760958033.4172873,1.9653297557367895,0.09422475923148423,1.1309642907262236,0.03899340521928101,-30.321377167322886,31.625308055486336,-15.493340169389972
1760958033.4271882,1.8165827824861993,0.08383383944091105,1.0977825927946925,0.06773009659107834,-34.668787804264625,34.742926973205776,-18.808804831183245
1760958033.4370825,1.6267075695521764,0.07153079110727527,1.0635183763910228,0.09153280991803134,-39.00108421343102,37.427843665479486,-22.106351161040067
1760958033.4473987,1.3956207542301649,0.05795585325588081,1.0303988916905367,0.10961908495104422,-43.187788404541685,39.487587615716954,-25.355868151251236
1760958033.4571214,1.1238588327985077,0.0437530433062262,1.0003622100238205,0.12154228120143139,-47.10203715641186,40.757796074067414,-28.54040783333776
1760958033.467081,0.8124511158638656,0.029591306535121306,0.9748683161623187,0.12721920854387508,-50.62472408405585,41.10618327520356,-31.649054856081506
1760958033.477141,0.46295015897826525,0.0161759934573088,0.9547813911535584,0.12694636510591392,-53.64703236369633,40.43504607588543,-34.66705920709914
1760958033.4871063,0.07762382247338497,0.004240628477779691,0.9403417284990073,0.12138928221154295,-56.07150407926837,38.68414802808666,-37.56549913065617
1760958033.4970908,-0.34022561338692564,-0.005482132666815167,0.9312319003019992,0.1115319110862098,-57.81197743132761,35.83507023412855,-40.292837594383435
1760958033.507075,-0.785882332527343,-0.012306163236617595,0.9267251961476832,0.09858397838227607,-58.7929180720597,31.917058974785515,-42.77040068004708
1760958033.5170617,-1.2528674856052004,-0.015648972444905117,0.9258854679316657,0.08385865568006982,-58.94891553971026,27.013362575264054,-44.89313973638292
1760958033.5270705,-1.732718490221773,-0.015097017612280909,0.9277714375801545,0.06864392035762916,-58.22529845745064,21.26626872933196,-46.53615494646938
1760958033.5371842,-2.2149902857565356,-0.010477033983660273,0.9315932821007447,0.05409361661926188,-56.5807403070249,14.878663722048008,-47.56649490031025
1760958033.5470738,-2.687548650896657,-0.0019274375072680775,0.9367807441030264,0.041157881749494925,-53.99226653767264,8.10998277177839,-47.85886163683672
1760958033.5570672,-3.137186155419602,0.010045092051525487,0.9429491387669472,0.030560674686893444,-50.462329433461676,1.2649006706393755,-47.313181817065605
1760958033.5670521,-3.550538952870534,0.02454717049804237,0.949783393725309,0.022818587888591712,-46.02685167308125,-5.325971359908014,-45.871628336267726
1760958033.5771692,-3.915225823980258,0.0403392996828894,0.9568883132290946,0.018283224076424198,-40.7626208965143,-11.332752998513195,-43.532607486153005
1760958033.5871828,-4.221081957226396,0.055938329128941686,0.9636662063591408,0.017183720082802365,-34.79229114487438,-16.45799552206861,-40.35948634262826
1760958033.5971022,-4.461329996921597,0.06976154873854488,0.969275975866437,0.019650341710038564,-28.285508449769132,-20.469390771295565,-36.48247380572223
1760958033.6069736,-4.633525811810731,0.08028027861891823,0.9727013003375846,0.025712025058080373,-21.455209567194665,-23.22829097733707,-32.09305851476654
1760958033.6170866,-4.740138012423085,0.08615368096978289,0.972918956994723,0.03527268386599263,-14.548794428191304,-24.70864530379416,-27.431554476098615
1760958033.6271534,-4.7886664393042,0.08632360258579583,0.9691266575712728,0.04807811781760718,-7.834549267700647,-25.0019308691419,-22.769325321160178
1760958033.6371136,-4.791266891576063,0.080063979297933,0.9609729668581195,0.06368849008624476,-1.5843637559686963,-24.30571663173385,-18.387913173797706
1760958033.6470122,-4.763913905484769,0.06699244922361594,0.9487298688397192,0.08147248192324863,3.9455887302563957,-22.896356022409464,-14.557495432502394
1760958033.657025,-4.725190717631295,0.04706181592256089,0.9333580361283922,0.10063620335286151,8.534022413701914,-21.089430048812922,-11.51690552346717
1760958033.667117,-4.694840847313859,0.020549110940706536,0.9164350509329242,0.12028988059833128,12.011125135617817,-19.194201845034993,-9.457034692854638
1760958033.677147,-4.692242294859899,-0.011947316934814326,0.8999458691538562,0.13954121712027676,14.270345808122423,-17.469751921705008,-8.508903307998224
1760958033.6870027,-4.734966116186083,-0.04950058246303242,0.8859665693007323,0.15759341430669438,15.273947919813113,-16.09025274052969,-8.73712669721115
1760958033.6975288,-4.837558443889166,-0.0908436932558422,0.8762991969912826,0.1738225527384344,15.052042338947464,-15.125128421501373,-10.138950315543953
1760958033.7072914,-5.010650294523506,-0.1343679947150181,0.8721305696700821,0.18781318004114014,13.695983033679985,-14.537109101277395,-12.648509126669998
1760958033.7170804,-5.260461786195803,-0.17815229883046596,0.8737863037093844,0.19934122161235113,11.347867604671436,-14.198023000949128,-16.14547782921573
1760958033.7271788,-5.58872728321683,-0.22004220204965785,0.8806321220876138,0.2083081128592532,8.188238420763922,-13.919127144490162,-20.466836243182545
1760958033.7373,-5.993022658855993,-0.257789206666781,0.8911430061495871,0.21464504995213482,4.423932238280142,-13.49035179390988,-25.4201244558276
1760958033.7471178,-6.4674267993486945,-0.2892442306167873,0.903126962731931,0.21821519064880676,0.2775180368452662,-12.721446749276572,-30.79639488634003
1760958033.7571697,-7.003405370144473,-0.31258528511980577,0.9140625180249782,0.21874164255532508,-4.020933337750704,-11.477935621237007,-36.38118253321253
1760958033.7671921,-7.590778718277104,-0.32654882695425436,0.9214905711949927,0.21578343126026914,-8.239740081316732,-9.706020320830898,-41.96227488641538
1760958033.777095,-8.218637160406663,-0.3306295775917932,0.9233930805031709,0.20877450847011567,-12.14982975119215,-7.442890422484717,-47.33389590285659
1760958033.7872126,-8.876094723878891,-0.3252125543174286,0.9184952698684622,0.19713122926880955,-15.528518669305495,-4.811818805782179,-52.298041686222156
1760958033.797361,-9.552815969103825,-0.31160320317244267,0.9064446768373658,0.1804182619568577,-18.16441049625563,-2.004313497098021,-56.66478909237234
1760958033.807186,-10.23929738419254,-0.2919303689669547,0.8878454437436314,0.15854401712189126,-19.864847662141408,0.7462652537839688,-60.2539321959606
1760958033.8171067,-10.92692677644077,-0.26891690989082817,0.8641536458604541,0.13194302858167303,-20.46662568456807,3.194327672776536,-62.89993518905698
1760958033.8272126,-11.607877333101591,-0.24554362618526113,0.8374627889147626,0.10170031660701519,-19.849553590725506,5.110070290239869,-64.46101296945615
1760958033.8370504,-12.274914775160546,-0.22466332738820258,0.8102229533343113,0.06958031744352779,-17.951339733815985,6.302478904739632,-64.83163302733013
1760958033.8470068,-12.921201966132639,-0.20863678591626003,0.7849403744446054,0.037936857175817636,-14.78150524108413,6.6357572907123155,-63.95641453900186
1760958033.8572192,-13.540172597074962,-0.19905313710519812,0.7638975648380171,0.009499514597058938,-10.43164703152288,6.039262499462773,-61.8426242766127
1760958033.867222,-14.12551742291314,-0.1965724548346477,0.7489215979265162,-0.012945287355038988,-5.079407311789836,4.512037061384323,-58.568336058450086
1760958033.8773787,-14.671292157153879,-0.20090253294432767,0.7412159573051199,-0.026935970892127223,1.0159756995502394,2.123266541943784,-54.28379873237256
1760958033.8871922,-15.172126099827924,-0.2109031234071366,0.7412630829762707,-0.030717657790835805,7.52762769318101,-0.9903856632642843,-49.20456236566508
1760958033.8970509,-15.623492224493797,-0.22479781918932423,0.748799412421521,-0.023552033988629408,14.084151430525887,-4.630282116816865,-43.596295033060564
1760958033.9069958,-16.021994364232683,-0.24046258599045858,0.7628599515380661,-0.005890095121158596,20.299929717532155,-8.544520069225534,-37.75272253034387
1760958033.9170253,-16.3656315684565,-0.2557497410631273,0.781885057640797,0.020632619226161934,25.80924185690168,-12.440636923558447,-31.96939794388812
1760958033.9271424,-16.654007695886108,-0.2687997589288349,0.8038794283110505,0.05338257489571242,30.299920974036848,-16.003157542897128,-26.516749205197655
1760958033.9370081,-16.8884610009896,-0.278294367936778,0.8266123729686858,0.08906397647919838,33.542144585024204,-18.91638970260057,-21.61589043607071
1760958033.9491086,-17.072091717889307,-0.28361423035991207,0.847847809708359,0.12414285694072917,35.40868449717133,-20.891901371376218,-17.42005775671307
1760958033.9572036,-17.209666260266413,-0.2848807741701652,0.865590212917653,0.15528477678250155,35.88438401128517,-21.698737500388017,-14.003498783146968
1760958033.967091,-17.307377529134843,-0.28288013903432363,0.8783277567000918,0.17973407582184428,35.06435914341192,-21.19300252859837,-11.358530968853383
1760958033.9771428,-17.37244558978822,-0.2788839681134487,0.885246947676134,0.19558106509822704,33.141975230501856,-19.34241727413576,-9.400508790920824
1760958033.9874089,-17.412555915180903,-0.27439611784250856,0.8863875942868901,0.20189264530827047,30.38871716001872,-16.241244404470343,-7.9797130412857475
1760958033.9970167,-17.435157631721818,-0.2708669459062015,0.882706905856649,0.19871206781630235,27.12853333772469,-12.11173992168522,-6.898741534698891
1760958034.0072134,-17.44668091554875,-0.2694249277743393,0.8760282109539042,0.1869545643569152,23.709178322496477,-7.289972406041826,-5.933796122028717
1760958034.0169911,-17.451770711325057,-0.2706731973067099,0.8688624842235847,0.16823226435993968,20.472764759043997,-2.1961794386736324,-4.858187118096424
1760958034.027083,-17.45265784184187,-0.27458467492122546,0.8641086593529927,0.14463760859688826,17.72745894837646,2.7076475105247617,-3.4662631871112533
1760958034.0370467,-17.448787109065997,-0.28050919229575927,0.8646605875108322,0.11850774225890798,15.722166939862152,6.968029866968073,-1.5957765888098348
1760958034.0470617,-17.436792398980884,-0.28728585537907547,0.8729716820562166,0.0921888967586607,14.626060784943958,10.191658834085457,0.8534921213902652
1760958034.057064,-17.410854504062407,-0.29343605732503925,0.8906457298284065,0.0678192774516418,14.514661765702,12.091370759046638,3.9070301942820698
1760958034.06713,-17.363407037646695,-0.2973979068540754,0.9181241200993787,0.047148882025153445,15.36382006411573,12.519804896813339,7.510679404408368
1760958034.0771554,-17.286084860232748,-0.29775514785269985,0.9545228989727529,0.03141329975591547,17.052381259730076,11.485622879992182,11.534713996870689
1760958034.087043,-17.17075756725667,-0.29341766710866984,0.997648106845566,0.021273081954918227,19.3737177836798,9.149690459084624,15.78712065061851
1760958034.0971854,-17.0104752743502,-0.283726983230238,1.0441960968965083,0.016817268092088892,22.0556676697564,5.8018372561770555,20.03508257921041
1760958034.1072304,-16.800183383894804,-0.2684832150420686,1.090124051705826,0.017611904160830878,24.78775233459518,1.822127063061772,24.032405110460886
1760958034.1170774,-16.537129390375547,-0.2479110247150639,1.1311466008822657,0.022763771933223997,27.25380335386684,-2.3667616635550983,27.549525357715392
1760958034.127116,-16.220964148097046,-0.222594133250077,1.1632827675043416,0.030977874092817378,29.167277212885608,-6.348152522263118,30.402084184241467
1760958034.1372364,-15.853604883043362,-0.19341043865619897,1.1833613393434024,0.040613195968590865,30.305614688146385,-9.753621853215964,32.47399668895273
1760958034.1470945,-15.438960864827486,-0.16149372714179266,1.1894038112026428,0.049767632667961005,30.539201919635982,-12.293783372603663,33.73156449075507
1760958034.1572754,-14.982621295794988,-0.12823088582792147,1.180835582766949,0.056428718720318224,29.8501639634038,-13.775826213468337,34.22634295307703
1760958034.1672077,-14.491572289725337,-0.09527514306175454,1.1585112350075066,0.05870398128204897,28.336786854052864,-14.109320897560568,34.086117307011925
1760958034.1774306,-13.97395572370214,-0.06452910624184077,1.1245674804042465,0.055104628925579324,26.201122943170386,-13.303915929178773,33.49528888799858
1760958034.1872127,-13.438825862312823,-0.03804636960897235,1.0821362516452437,0.044820487472536585,23.720206393596115,-11.462710990106624,32.66784212360908
1760958034.1972291,-12.89582494237542,-0.01782560887770219,1.034961851672193,0.027910165322440623,21.20467464805095,-8.773448288322065,31.817326902225027
1760958034.2079344,-12.354707828542672,-0.0055161210528753704,0.9869722909304494,0.0053445481060024995,18.95150281932434,-5.497261508173617,31.128585393574475
1760958034.2191253,-11.82470281753251,-0.0020985172529665165,0.9418579940757111,-0.021120627246155727,17.199147233282492,-1.9529268236901423,30.73529423229381
1760958034.2293036,-11.31377972782427,-0.007628993933113657,0.902709971347411,-0.04921974113957758,16.093178032274892,1.5056888148262904,30.706094800321818
1760958034.2374287,-10.82796811138931,-0.02112956048160343,0.8717614614206809,-0.07653761993127275,15.66843818706521,4.519858927377976,31.040509551751153
1760958034.247683,-10.370891194377945,-0.04067239200500353,0.8502614332531061,-0.10087704558694228,15.850376731505236,6.762282387031357,31.6742756236676
1760958034.2572267,-9.94364266504078,-0.06365571448572965,0.8384864145707145,-0.12056305641751908,16.474361609739237,7.975191421556576,32.49240888792688
1760958034.2672625,-9.545051005120476,-0.08721648912607599,0.8358714032340896,-0.13463632818370513,17.31845935559455,8.004271754200138,33.34746282736045
1760958034.2771049,-9.1722828167762,-0.10868844072757676,0.841218817767666,-0.1429156396122386,18.143068305823963,6.822032666262477,34.08018129254982
1760958034.2874725,-8.821661360780439,-0.12600476919356246,0.8529365418094729,-0.14593550316495404,18.73017591179711,4.5355125958533,34.539978091541
1760958034.2971904,-8.489534086677338,-0.1379631034059988,0.869263364540564,-0.1447852729090453,18.915776150225746,1.3757802853470589,34.603175534039096
1760958034.3071218,-8.173016894836968,-0.14430669563367082,0.8884537129502322,-0.14088806827642134,18.61079061829611,-2.330028969325726,34.18747500778516
1760958034.317099,-7.870471115964642,-0.14562004338557868,0.9089059923832538,-0.1357614856646875,17.808243469226767,-6.2002184159720715,33.261608705458244
1760958034.327166,-7.581625282752284,-0.1430787815410993,0.9292307348139217,-0.1307989721898029,16.576984876403174,-9.84730628322229,31.849530942812184
1760958034.3373091,-7.3073258463147335,-0.13812195711833605,0.9482692393601174,-0.12710261386254873,15.04450373415708,-12.926736499539004,30.02889875525574
1760958034.3472943,-7.048973020003021,-0.13212190916439814,0.9650863657328055,-0.12538546020588157,13.372936122154838,-15.178471862548175,27.924017055509804
1760958034.3572543,-6.807754768697815,-0.12611355832067084,0.9789622362475459,-0.1259459681774642,11.732994413409383,-16.455852221072455,25.69390373097845
1760958034.3672378,-6.583824381881112,-0.12062047242225471,0.9893946691645295,-0.1287038258728414,10.280160430066928,-16.738292851323504,23.516632444489655
1760958034.3773203,-6.375572813701039,-0.11559108605663528,0.996109258769844,-0.13328035930933557,9.13632173433345,-16.126866669244944,21.571549607567594
1760958034.3872766,-6.179128956926003,-0.1104407445289678,0.99906845219881,-0.13910664062669328,8.378500019154451,-14.824129131917429,20.021233889787514
1760958034.3975174,-5.988185064124508,-0.10418343718558573,0.9984731686657107,-0.1455424338054795,8.03487693983322,-13.101428192612985,18.995116497969768
1760958034.4081652,-5.7941970866350845,-0.09562884495739547,0.9947532604043033,-0.15198753404542195,8.087268665797344,-11.258278834103443,18.5765193732933
1760958034.4174101,-5.5869566327508355,-0.08361441511656582,0.9885436944869778,-0.15796797884973568,8.47859656950347,-9.57917023432128,18.79452537798404
1760958034.4271302,-5.3554784062914536,-0.06723881879420426,0.9806432169012559,-0.1631854904345163,9.123638606915614,-8.293419717360367,19.621578998289593
1760958034.4372742,-5.089101036061409,-0.0460631432180552,0.9719533818313338,-0.16752696942419673,9.921294572003813,-7.5433474348689,20.97704251574121
1760958034.4471486,-4.778666963614637,-0.0202500719514428,0.9633991627154772,-0.1710386384247559,10.766694952307194,-7.365075410242511,22.736172396557823
1760958034.4573367,-4.417633637414943,0.009380786141261283,0.955837510209264,-0.1738749419807386,11.561727671218415,-7.684672225097133,24.74327500153061
1760958034.4673676,-4.002975907083621,0.04139146991471459,0.9499655093198954,-0.1762350917075404,12.22296596347735,-8.330271354874947,26.827306044166786
1760958034.4772656,-3.535767474986203,0.07385338218399744,0.9462430310550488,-0.17830041406983543,12.686527246151194,-9.058423616577898,28.81799200770706
1760958034.4872236,-3.0213726781680887,0.10454472375951832,0.9448441882468429,-0.1801839328369659,12.909969074287233,-9.590726317051617,30.560680237647425
1760958034.4971364,-2.4692289216513323,0.13118862555075836,0.9456471796221674,-0.1819003640391523,12.871772872696047,-9.655209241103995,31.928495610456164
1760958034.5072646,-1.892244214794278,0.15170070182296644,0.9482650660942263,-0.1833604822656467,12.569168181726557,-9.026382718636398,32.83088417018031
1760958034.51726,-1.3058689327820239,0.1644170657171875,0.9521132256949549,-0.18438932305891229,12.015032327197677,-7.5582732866806,33.21815322394807
1760958034.5271173,-0.7269278125558121,0.16827733650940668,0.9565035108290089,-0.18476351049285716,11.23447211354047,-5.205979094672573,33.08209286318659
1760958034.5372932,-0.17231894886985127,0.1629420329897257,0.9607499001886964,-0.1842597758295677,10.261537324287303,-2.033031880024797,32.453127579155186
1760958034.5475714,0.3423004976531603,0.14883148889640999,0.9642666678230706,-0.18270524728186147,9.136350714166372,1.7960671529728913,31.394678175486895
1760958034.5571656,0.8037197781748937,0.12708341047518085,0.9666408136747487,-0.18002075192254377,7.902765956898802,6.036633191314472,29.995535176049078
1760958034.567241,1.2021590137521518,0.0994365224490579,0.9676672803054253,-0.1762507033180759,6.606491171750232,10.394539197117538,28.361082467391125
1760958034.5770845,1.5319432577598768,0.06805691044294888,0.9673457797990849,-0.17157614064085028,5.293463932053218,14.562264542633002,26.604173966645135
1760958034.5869992,1.791810661827478,0.03532994073102195,0.9658470987902081,-0.16631026294265067,4.0081827160613175,18.25508516677691,24.836368779924936
1760958034.597077,1.984837447664058,0.0036417567677501507,0.9634613876743533,-0.16087760980962337,2.791747816024702,21.242548921355496,23.16009699867628
1760958034.6071172,2.117996032440503,-0.024829970202879914,0.9605411175777542,-0.15577837580253298,1.6795535248671907,23.37144677743988,21.66218304980509
1760958034.6172261,2.201389230442249,-0.04830164570458481,0.9574486754774402,-0.1515393823068275,0.6988274211148098,24.578048806834015,20.409012316012493
1760958034.6271877,2.2472300295469383,-0.06553168357263524,0.9545145768163372,-0.1486552823049589,-0.13358891300515205,24.88902494045082,19.44350508289455
1760958034.63706,2.2686689078592046,-0.07591304391823073,0.9520085263079788,-0.1475271628088411,-0.8127500793014247,24.411909624572413,18.783972911186783
1760958034.6471653,2.278601841376444,-0.07949290153029624,0.9501233905432482,-0.14840746374044028,-1.345985762185562,23.31709352447489,18.424867213452774
1760958034.6571417,2.288606168784598,-0.07691119426991103,0.9489716183092816,-0.15135899378729842,-1.7518710654101277,21.814125158423725,18.339347607143225
1760958034.6670854,2.308137285291111,-0.0692647691760737,0.9485931460040696,-0.1562338638861888,-2.057747021159958,20.125552004312976,18.48345673696164
1760958034.677124,2.3440753252347735,-0.0579191112381542,0.9489722871662513,-0.16267658181151323,-2.2960402771034993,18.46158211222738,18.801490035943054
1760958034.6871848,2.400643421820973,-0.04430232269645424,0.9500602696464953,-0.17015371263735338,-2.4999039940762615,16.998499973819737,19.231947320260367
1760958034.6970446,2.479644077913987,-0.029721604409417592,0.9518019914473955,-0.17800914745182952,-2.6988874223726502,15.863074732447252,19.713324184176887
1760958034.707048,2.580905230317678,-0.015234206073103282,0.9541679534571245,-0.18553858382614047,-2.9153897589546194,15.124247946005296,20.189007836522148
1760958034.7172709,2.702813886052581,-0.0015841816181234095,0.9571907661678816,-0.1920715977204116,-3.1625374549421132,14.79232562805182,20.610713965042475
1760958034.727016,2.842837900056828,0.010803606510173166,0.9610003566371536,-0.19704841192581446,-3.443850855830412,14.824915192408172,20.940212192153886
1760958034.7371728,2.997972942226495,0.02178963144715842,0.9658478495758844,-0.20008137922666447,-3.754694061309119,15.138109018162059,21.149443125695672
1760958034.7470102,3.1650850517801405,0.031463221844587275,0.9721080827922293,-0.20099469559020156,-4.0851300986703665,15.620998215461,21.2194089252105
1760958034.757112,3.34114471938053,0.040077708116332045,0.9802540749853726,-0.19983732358100892,-4.423537805738282,16.151502589509736,21.13834684111127
1760958034.7672424,3.5233651460160473,0.04798756606038318,0.9908019553918154,-0.19686450025590818,-4.760263566297232,16.611695728278246,20.899671205379416
1760958034.7771666,3.70926399881224,0.05559295336700318,1.0042307258913108,-0.1924850907408812,-5.090698408641116,16.901231866381334,20.50003840063261
1760958034.787294,3.896665833935601,0.06329225213720334,1.0208860568744653,-0.18717667649320263,-5.417440221958522,16.948044562552152,19.937702812935807
1760958034.7971623,4.083655628514003,0.07144052575728504,1.0408797601150646,-0.18137685681978433,-5.751524522452629,16.71604385698744,19.2111390445083
1760958034.8071837,4.268488170206368,0.08031233486321845,1.0639974623678496,-0.17536626474062855,-6.1129667954908316,16.209929871243936,18.31775920187155
1760958034.817151,4.449458323629521,0.09007085503420485,1.0896285325245354,-0.16916481695659458,-6.530946408372278,15.477355035348165,17.252503303443923
1760958034.8272374,4.624743670833996,0.10074841606620127,1.116734783413387,-0.1624658681097247,-7.043832433916037,14.608514807056098,16.006152456063198
1760958034.837195,4.792237555611082,0.112241956572553,1.1438745660723282,-0.1546308160064041,-7.698979857767298,13.732965204239767,14.563392066718453
1760958034.847137,4.949390796652102,0.12432041873937948,1.1692924891968934,-0.14475778796298006,-8.551971795176998,13.013230830377514,12.900880498327341
1760958034.8573203,5.09307476819118,0.13663506361505365,1.1910720693169627,-0.13182310693778101,-9.664872887961653,12.634714060326512,10.985792061259389
1760958034.8671124,5.219473102561921,0.14872316167558536,1.2073342797934372,-0.11487630925216144,-11.103095620301396,12.791629888052306,8.77544279833544
1760958034.8772018,5.324008959882476,0.16000140707450575,1.2164554777228427,-0.09325321513067972,-12.93060885289897,13.669210215165448,6.218616721493357
1760958034.8870976,5.401319643478443,0.16975423151731084,1.2172764099707514,-0.06676252425209159,-15.203426049461497,15.423193208836045,3.2590451427923184
1760958034.8970747,5.445295269125865,0.177128216608853,1.2092780784389574,-0.035803810819525855,-17.961646387475195,18.15845549458596,-0.1588556656830164
1760958034.9071906,5.449197553806927,0.18114404550869992,1.1927050546377627,-0.0013882363649857308,-21.220788717296106,21.90930463192075,-4.0823560557866205
1760958034.9171233,5.405868419397615,0.1807351568032434,1.1686176731854532,0.03494710710222234,-24.963626148789437,26.62422742461562,-8.54171706845735
1760958034.9272912,5.308031478641644,0.1748221093613176,1.1388520925319678,0.07131994561058866,-29.133977366456964,32.15770259675926,-13.541510850682036
1760958034.9372866,5.148686231510826,0.16243166730428366,1.1058691173081616,0.10574919423364369,-33.63377535413728,38.27104531060064,-19.053023376302647
1760958034.9470537,4.921591335338689,0.1428622477490553,1.0724876102867866,0.13642344417339566,-38.324222210018846,44.64323905331206,-25.00860126687217
1760958034.9570289,4.621822452253918,0.11587924760607196,1.0415264528008354,0.16194161296885212,-43.03112711399976,50.891464807911234,-31.298596943791814
1760958034.9671552,4.246369209918187,0.08190182620473357,1.0154086615206048,0.18148031389851496,-47.55386500067404,56.59972790183166,-37.77146355650899
1760958034.9771605,3.7947100480101486,0.04212961593064507,0.9957980605189364,0.19485754685684334,-51.67698715152286,61.35282121837112,-44.23752070449867
1760958034.9872892,3.269283099918968,-0.0014387641552137509,0.9833384070401154,0.20248368005446662,-55.18340447566663,64.77207623467515,-50.476827028167456
1760958034.9971795,2.6757645136644483,-0.04612520270783993,0.977551340488392,0.2052138061048431,-57.868134857626494,66.549077985383,-56.251321190451776
1760958035.0072565,2.023077160134142,-0.08883200496835071,0.9769248196823264,0.20413676583511844,-59.551725853741736,66.47375888174385,-61.320885948594935
1760958035.0184002,1.3230822097804813,-0.1264144638454676,0.9791875471992999,0.200350902822338,-60.09258443391827,64.45395129107277,-65.46233007198377
1760958035.0275874,0.5899486373168007,-0.15611226070611012,0.9817236738676671,0.19477925612024602,-59.39755393394631,60.52441117305505,-68.48960271466785
1760958035.0375,-0.16075737805618398,-0.17596875520983812,0.9820480887248277,0.18806406838576062,-57.430153649546206,54.84433024564594,-70.27300307918964
1760958035.046816,-0.9131791705241186,-0.18516104429458702,0.9782466043675272,0.18055512671441695,-54.21592742530345,47.683329997443806,-70.75487781863568
1760958035.057632,-1.652356958586276,-0.184171017548355,0.9692927963470593,0.17237784195373185,-49.84434232775868,39.39694896267455,-69.95940107551694
1760958035.0673754,-2.365361431832435,-0.17475201217675917,0.9551826863919362,0.1635458337276877,-44.466681486271604,30.393816707315537,-67.99451433980504
1760958035.07712,-3.0422352166819606,-0.1596856849155572,0.9368723515773351,0.1540754851485786,-38.28948865672502,21.097984490598446,-65.04495338813228
1760958035.0873325,-3.6766200806544806,-0.14236945317850147,0.9160505446366837,0.14406705765392352,-31.563454664812006,11.910903226719594,-61.35649216525332
1760958035.097091,-4.265987159124453,-0.12631197276816603,0.8948143822228535,0.13373492205176601,-24.568212374589258,3.1778972156913037,-57.21298610658823
1760958035.1072156,-4.811446193205301,-0.11463142346422522,0.8753289780697376,0.12339078424946864,-17.594226563822975,-4.836497143612429,-52.90921927970188
1760958035.117196,-5.31717644170086,-0.10964532167529487,0.8595391142287186,0.11339929859607054,-10.923618750584756,-11.961224751728873,-48.723514501524654
1760958035.127263,-5.789581795246624,-0.11261518400594649,0.8489707384966776,0.10413030940647425,-4.812112263759339,-18.11824998434615,-44.89417076779054
1760958035.1371858,-6.236312242097475,-0.12367324001445103,0.8446254877094888,0.09592783556730956,0.5258370353141844,-23.3100244528188,-41.60297684526762
1760958035.1472347,-6.665305179461249,-0.1419213449431456,0.8469461166399566,0.08910668271050287,4.927233598942239,-27.598087182521017,-38.96759539139563
1760958035.157278,-7.083982761117773,-0.1656628915858013,0.8558235725804344,0.08397536796678308,8.285425696546987,-31.07743187465199,-37.04295347247933
1760958035.1673806,-7.4987016966986895,-0.19271185542841146,0.8706260961073897,0.08087051913294055,10.549938623630949,-33.85170395626507,-35.83028072643917
1760958035.1772037,-7.914498394417219,-0.220718818021193,0.8902458650856155,0.08017756799672095,11.722230367578243,-36.0136618219754,-35.29131758346316
1760958035.1871567,-8.335113978142271,-0.24745913894068128,0.9131678583832672,0.0823122102881032,11.848770315958665,-37.63381889080799,-35.364564995778935
1760958035.1972463,-8.76323108203439,-0.27104287890585727,0.9375662668165577,0.08765002463881608,11.012972421598828,-38.758141206010414,-35.980312393178316
1760958035.207104,-9.200819797262305,-0.29002990124311767,0.9614304480115757,0.09641302358294625,9.327380203490248,-39.41363135755101,-37.07160011993607
1760958035.2171466,-9.649482736654724,-0.30346159451018084,0.982718315223811,0.10854167713997936,6.9271265748051905,-39.61911311021298,-38.57924796441713
1760958035.227154,-10.110708700943519,-0.31084095718806076,0.9995290931306342,0.12359078544493127,3.965119070846629,-39.39786280439017,-40.45050985217124
1760958035.237111,-10.58598111222465,-0.3120946197389489,1.010279298768319,0.14068481133047,0.608779490104848,-38.78888264211116,-42.63250951329276
1760958035.2471735,-11.076727671908511,-0.3075347420237924,1.0138600353852636,0.15855454454038767,-2.9622746813268233,-37.85426884379479,-45.06291497700195
1760958035.2572665,-11.584131566943771,-0.2978194525529752,1.0097540398151423,0.17565604192365267,-6.558368427293153,-36.68099234047502,-47.660893547257004
1760958035.2671304,-12.10884839901441,-0.2839014064431804,0.998094911594497,0.1903512276683274,-9.982452620149859,-35.37640757779249,-50.32111957271226
1760958035.2770941,-12.650686794581055,-0.2669566570831088,0.9796556466632393,0.20111625033156366,-13.034002085055924,-34.05799190280066,-52.9127032211774
1760958035.2873425,-13.208314217585993,-0.24829296215391825,0.9557618237260527,0.20674382881117848,-15.51473338234657,-32.839107811262515,-55.283743948635106
1760958035.2971756,-13.779042834410347,-0.22924247963868075,0.928138568219095,0.2065147186575077,-17.23656469608382,-31.813645305067894,-57.271097726346134
1760958035.3070154,-14.358735702545857,-0.21104834588985896,0.8987151676750149,0.2003207252659151,-18.031872869923173,-31.042833236897398,-58.71406452078136
1760958035.3171024,-14.941855684096335,-0.19475888777069303,0.8694206996582764,0.1887227421512864,-17.765596194275147,-30.547077801904983,-59.47013482675433
1760958035.3271449,-15.521662371436193,-0.18114600609789488,0.8420047714776642,0.17292778847669732,-16.348203738729367,-30.30450291053664,-59.430684984356155
1760958035.3371768,-16.09054712995406,-0.17066244345572648,0.8179089415769111,0.15467675847771653,-13.748147963429,-30.256318965195543,-58.5345337956455
1760958035.3472736,-16.64048240113772,-0.16344499796604806,0.7981997442892654,0.13604943528550845,-10.002235257916428,-30.31768561040082,-56.777516611414285
1760958035.3571684,-17.16354860507528,-0.15936001838804464,0.7835585223517352,0.11920873063541919,-5.222342376766237,-30.39169147143925,-54.21666156514709
1760958035.3674998,-17.652491592935963,-0.15807756044754895,0.7743106976891554,0.10611801995185828,0.4030643104380479,-30.383600996912705,-50.96813603037325
1760958035.3772576,-18.101257576988342,-0.15915496302844434,0.7704718092087303,0.09827360837054233,6.6140918982285,-30.21263523898973,-47.19883192454478
1760958035.3873756,-18.50545321770074,-0.16211302050576365,0.7717920290255544,0.09649708419276085,13.092427764484093,-29.819226932254836,-43.11221845755058
1760958035.397074,-18.862687685018592,-0.16649773307162685,0.7777909433164668,0.10082620312257237,19.482487135796372,-29.16683536989272,-38.929838905838324
1760958035.407376,-19.172769565625654,-0.1719303794214152,0.7877825245461587,0.11052694392686165,25.41960326843766,-28.2388037635146,-34.87048542701658
1760958035.4173765,-19.437749758334707,-0.17815141686216168,0.8008935375643275,0.12422608099192711,30.562617687996195,-27.032020184309584,-31.129538934564668
1760958035.427411,-19.661816427990814,-0.18505903182647931,0.8160801977734103,0.14013880713899396,34.62703210289955,-25.54991373179014,-27.861056328116337
1760958035.4373186,-19.851055783350617,-0.19273514258723837,0.832150758477783,0.1563473780729102,37.41434277387082,-23.797348935420658,-25.164812993299375
1760958035.447284,-20.013092342417114,-0.20144572856520312,0.8478047019976259,0.17108032666995326,38.83336304589563,-21.779288222926287,-23.07969464992966
1760958035.4572058,-20.15661768296248,-0.21160248228999126,0.8616982060483761,0.18294747556313537,38.91020736843207,-19.5039162001552,-21.583779794760627
1760958035.4673488,-20.290813640208405,-0.2236794189380711,0.8725376696840328,0.19109840967281747,37.785057101842945,-16.989620619740123,-20.60044950746967
1760958035.477335,-20.424682044338613,-0.2380906795937508,0.8791902850479285,0.19528597929971878,35.69569722228471,-14.274121577499367,-20.009126737671288
1760958035.4873252,-20.56631285355015,-0.25505277883741206,0.880789768138968,0.19583092639382232,32.94987445587014,-11.423314035308092,-19.658857338454357
1760958035.497057,-20.722149378275468,-0.2744667710505024,0.876814373509423,0.19349957373967694,29.890395314299607,-8.537134439264225,-19.382885189106595
1760958035.5072641,-20.896325214419452,-0.29585016829571625,0.8671259839416832,0.18932051429627428,26.858046301590885,-5.750068737458061,-19.012608343270305
1760958035.5172615,-21.090139846011507,-0.318326905902984,0.8519766796747646,0.18437381187966523,24.157528511863156,-3.224801695583045,-18.389756311218697
1760958035.5275497,-21.301717249863373,-0.34066625396884187,0.8320011741471958,0.17958783961899158,22.030702312724635,-1.1387758861067052,-17.37615440422238
1760958035.537199,-21.52587460808026,-0.36136181323004773,0.8082132658414536,0.17557814531157953,20.639880954351124,0.3352513060040078,-15.860886894659007
1760958035.5475216,-21.75422566233931,-0.37875135523537556,0.7820138193203818,0.17255945652917118,20.062094519732796,1.0524469155696512,-13.764975494803268
1760958035.5572217,-21.975546966895443,-0.39118192945899133,0.7552030639688629,0.17035148580916862,20.293500047828104,0.919900917225718,-11.043891655460936
1760958035.5672128,-22.176430499089133,-0.3972171047357401,0.7299781683615315,0.1684783248473285,21.26170481536291,-0.08216709809446673,-7.688373604627351
1760958035.5773456,-22.342222617284396,-0.39586859414097914,0.7088930033418748,0.16633390107522228,22.842914909941513,-1.8856354276125857,-3.7241183060901446
1760958035.5875297,-22.45820661201841,-0.38681899974137535,0.6947605808499642,0.16336380493801242,24.880656996257834,-4.329287798988685,0.7890867887582306
1760958035.5974803,-22.51093370589018,-0.3705914622731503,0.690485689498028,0.15920851114940016,27.203302696188462,-7.165201640820871,5.758382198010211
1760958035.607321,-22.48956237526906,-0.34862130117002427,0.6988234383456194,0.15376816852519776,29.63849425147173,-10.077111560228758,11.058903716614651
1760958035.6172445,-22.387046550917916,-0.3231987671164955,0.722070530323849,0.147179603416211,32.023510761200214,-12.709442207251875,16.53520884274496
1760958035.627471,-22.201028463668074,-0.2972774116728979,0.7617110408573013,0.1397302980616275,34.211440610328175,-14.704242846680982,22.003782598523355
1760958035.6371176,-21.934332600410006,-0.27416670298651885,0.8180540467525487,0.13175552468866547,36.07369968337289,-15.742212151030053,27.25763392976423
1760958035.6470935,-21.59500330503097,-0.25714067239283256,0.8899131413403323,0.12356226655009685,37.49996552039614,-15.583409496065851,32.07406958370613
1760958035.65718,-21.1958662983263,-0.24899983670800363,0.9743881982733075,0.11540118948909706,38.39697457944812,-14.103033527233535,36.226507680748696
1760958035.6670952,-20.753624582312177,-0.2516311018165693,1.0668184596801082,0.10748089981637177,38.687807346125425,-11.317718177864943,39.50061312742932
1760958035.6772628,-20.28753067010443,-0.2656231127628956,1.1609765599231465,0.10000025055477417,38.31318856239792,-7.398166911500215,41.71414393338372
1760958035.6874237,-19.817716825572667,-0.2900057810261936,1.249553308808924,0.09316897641221929,37.23588941537999,-2.664769973921685,42.73884741194071
1760958035.6973257,-19.363312532005068,-0.3221818770539196,1.3249354543226608,0.08719213030880976,35.44851994891314,2.4356921063419064,42.521739830922634
1760958035.7071428,-18.940525888351093,-0.358099113753751,1.3802048429475646,0.08220679009153238,32.98389987227867,7.372017502230232,41.102335587820164
1760958035.7173953,-18.560902011982225,-0.39267367821784116,1.4101986732538532,0.07817969317191803,29.925934846647813,11.586340317749258,38.62208529948486
1760958035.7271671,-18.22998636781203,-0.42042718470491136,1.4123975517063025,0.07479905720701381,26.41776513250598,14.561941479656358,35.32270803363782
1760958035.7372806,-17.946605157003745,-0.4362492225629127,1.3874021053707546,0.07141279938633455,22.66330824139536,15.892660344305066,31.531427311039543
1760958035.7473075,-17.702921384868613,-0.43616033193697185,1.3388526846369597,0.0670643606982836,18.918677809244656,15.343435819198683,27.63319537715218
1760958035.7572708,-17.48533231231056,-0.4179383482259388,1.2728075994718764,0.06064916091197528,15.471642764927147,12.89111715760698,24.032356420890654
1760958035.7672455,-17.276149438492,-0.38149248480097786,1.196744157556396,0.05116820043638863,12.610109227503145,8.736783772810663,21.108305718298954
1760958035.777351,-17.05586499710581,-0.3289203457614789,1.1184236739623805,0.03801101682693095,10.58379113509144,3.2854605270434907,19.171114772466694
1760958035.7874928,-16.805689215775036,-0.26424607943003514,1.0448555446361378,0.021177990492890684,9.565756307472265,-2.9047080667999348,18.423566045796807
1760958035.7972617,-16.509976779157572,-0.19289363229619594,0.9815282585573828,0.0013630786961653244,9.621568309399251,-9.195752459197644,18.935476371086086
1760958035.80749,-16.15817817472998,-0.12098850344942243,0.9319832493696641,-0.020139295255178775,10.692903066072997,-14.953366830601299,20.63458410457669
1760958035.8174758,-15.746053770134862,-0.054603439153801524,0.8977260206146485,-0.041681796827100444,12.599904437440854,-19.626894958956047,23.315761732306353
1760958035.8272371,-15.276041227740818,0.0009355542693751607,0.8784160432068716,-0.06159604895125242,15.0627748380767,-22.813592195943134,26.667277909227003
1760958035.8370335,-14.756815889417815,0.04159107266349964,0.8722516641985709,-0.07851683060189334,17.73919361250687,-24.298692838270572,30.30995402409705
1760958035.8471124,-14.202186784104057,0.06495533959878173,0.8764608065611835,-0.09161636351021113,20.271149487724134,-24.06771412953211,33.843101284366284
1760958035.857637,-13.629518438406803,0.07038388406665168,0.8878161972992858,-0.10070038452878657,22.33329319792169,-22.29225159804411,36.890539055667574
1760958035.8677096,-13.057878121699556,0.05894028211555764,0.9031098779390893,-0.10616075500577725,23.675069452001548,-19.294317318753475,39.14072905728152
1760958035.8772025,-12.50610181561726,0.03317875414243699,0.9195393265304037,-0.10881573828087523,24.150421048658167,-15.496536146962967,40.37668454347967
1760958035.8875465,-11.99096105182364,-0.0032037258364630236,0.9349719869795144,-0.10968952860396022,23.73132582558228,-11.366180319210988,40.493293381952896
1760958035.8971844,-11.525596657382106,-0.04580551992866674,0.9480686690151207,-0.10978630752744982,22.504272382379945,-7.360400939307683,39.501565428496995
1760958035.9071395,-11.118360842260792,-0.09000058415208635,0.9582653441587599,-0.10990523427793046,20.65144917856356,-3.8785978910097123,37.520779194325506
1760958035.917337,-10.772172331549095,-0.1314102963828952,0.9656367780957894,-0.11052692991338521,18.420500951144945,-1.2261217022646909,34.76048034241987
1760958035.927479,-10.48443728978918,-0.166316499749211,0.9706847552071214,-0.11178376998478863,16.087976650598748,0.4082380238085951,31.49487769271779
1760958035.9370627,-10.247523958825477,-0.19196906583496323,0.9741006797565993,-0.11350835002192662,13.921992875552908,0.960106138753517,28.03254598839645
1760958035.9475513,-10.04971343306079,-0.20675535161817174,0.9765484443536129,-0.11533941516205706,12.149224658160097,0.48332480919497584,24.684564741751792
1760958035.9572341,-9.876498897988776,-0.21022490187104192,0.9785038288017133,-0.1168556357976982,10.93026338312627,-0.8682563698810657,21.734274997042167
1760958035.967252,-9.7120787770273,-0.2029896468371213,0.9801733596869017,-0.11770631491307122,10.34585542215311,-2.867722738803229,19.41161373634589
1760958035.9774144,-9.540882201537714,-0.18653466874914038,0.9814983247701101,-0.11771305816187762,10.394787781142437,-5.246708645077241,17.87439655383518
1760958035.9872398,-9.348972089641316,-0.16297508673932765,0.9822303356677327,-0.11692545350084116,11.002475053367164,-7.727486866597219,17.198009307167094
1760958035.9973645,-9.125189707611032,-0.13478774226249324,0.9820483153704895,-0.11562462737799051,12.037875691498972,-10.05181842878281,17.373929989035886
1760958036.0070913,-8.861935068866805,-0.1045395550350992,0.9806789747834762,-0.11427847660172247,13.335424981082811,-12.00376113974589,18.316534609356555
1760958036.0172365,-8.555520169564335,-0.07463155977745764,0.977987407057338,-0.11345977678852567,14.718345369879703,-13.424759586081937,19.876848646324806
1760958036.0271487,-8.206085865295174,-0.04707903492639817,0.9740193623814254,-0.11374360301432519,16.020004539840627,-14.220493162442844,21.861313378967484
1760958036.037864,-7.817132708476785,-0.02335038140142264,0.9689947328780514,-0.11560374516211343,17.10081034568138,-14.360002898629348,24.053265897645673
1760958036.0472858,-7.394769401149127,-0.004285030768691534,0.9632649977839242,-0.11932747442954378,17.85921217795009,-13.868447410853472,26.23472685267767
1760958036.0572128,-6.9468152133804075,0.009899818031659504,0.9572520651524494,-0.12496313944957682,18.236458629892322,-12.815390543956399,28.206274137982156
1760958036.0672245,-6.481895926625138,0.01952039473546147,0.9513833340924354,-0.13230749552339666,18.215657638599712,-11.300769537464285,29.8032166307417
1760958036.0770931,-6.008648806482176,0.025277916753894313,0.9460327283134033,-0.14093246300059672,17.81632156916215,-9.440616812404283,30.90688901913026
1760958036.0871425,-5.535111565043343,0.028081250178597496,0.9414745603190178,-0.15024583070964448,17.085952073723547,-7.35422018763456,31.450567231248204
1760958036.0972645,-5.068325476509806,0.028871360385254695,0.9378565142693965,-0.1595768333837639,16.090331743463093,-5.153789047838527,31.420137414904314
1760958036.1071787,-4.614143377985602,0.02847285965137428,0.9351960204371129,-0.16827411651499274,14.904034326093413,-2.9370278172117827,30.850129971302085
1760958036.1171563,-4.17720556148429,0.027490117111745628,0.933398792336711,-0.1758002286011684,13.6022660555692,-0.7825114693976417,29.816004123974473
1760958036.1272008,-3.7610322680843553,0.026257049577546647,0.9322920663864778,-0.1818056445535286,12.254606061258569,1.2524833277253145,28.423673997661563
1760958036.137584,-3.368177866810822,0.02484224558209052,0.9316624336455178,-0.18616857354834446,10.920693788226961,3.132069738017072,26.797295650239306
1760958036.1472125,-3.0003965653061377,0.023103678104682404,0.9312904628581188,-0.188993971883683,9.647582505461152,4.84010851899302,25.066366968378254
1760958036.1571887,-2.6587848938571743,0.020777545388417782,0.9309795721631244,-0.1905740574612646,8.468400607064536,6.377187326341201,23.353245247594174
1760958036.1670482,-2.3438935775321545,0.017575216690516704,0.9305814235048618,-0.19132099034039546,7.402061011655905,7.756656958020639,21.762210552641974
1760958036.177218,-2.055830337524159,0.013259373518847282,0.930020954647646,-0.19168777889873284,6.453894370706523,9.000241593616762,20.371121474554936
1760958036.1871812,-1.7943845442819941,0.007682805154791034,0.9293193665248498,-0.19209373863938753,5.617148784234514,10.133736563450508,19.226475096403128
1760958036.1974792,-1.5591830584279978,0.0007950535073737663,0.9286061445370285,-0.19286657107442073,4.875276362018697,11.183206247604472,18.34230682361793
1760958036.2073383,-1.3498488449386612,-0.0073635156199143605,0.9281080235268879,-0.19420753411296177,4.204855240974872,12.171971001899491,17.702906661107857
1760958036.2171822,-1.1661089472366455,-0.01666307308622138,0.9281076244913975,-0.1961814527231588,3.5789164403923017,13.11859192968829,17.268849724925644
1760958036.227159,-1.0078025771145311,-0.02687678701786287,0.928875913541007,-0.19872909953987478,2.970381914884956,14.036007887818414,16.985403271124653
1760958036.2371428,-0.8747687639732423,-0.03767168772118859,0.9305954354396025,-0.20169523744851148,2.3552945045191414,14.931885329181442,16.79205899969922
1760958036.2472622,-0.7666321151175182,-0.04861045050979979,0.9332981250935383,-0.20486308385366117,1.715544425791966,15.810070894977226,16.63181735189118
1760958036.2578776,-0.6825406600601539,-0.05917510998490475,0.9368370603165243,-0.20798741725038772,1.0408549861379304,16.672797717470793,16.458940467412525
1760958036.2673824,-0.6209285407457275,-0.0688158234241113,0.9408983280806308,-0.21082279125045406,0.3298541443008758,17.523042282531105,16.244166237942483
1760958036.2771215,-0.5793709173813376,-0.07701642795173284,0.94504632960815,-0.2131459802124387,-0.4098762781921461,18.366263885294813,15.976791298737538
1760958036.2871747,-0.5545732906691174,-0.08336065403649241,0.9487899558817232,-0.2147712093644693,-1.1627965989531668,19.210794861340332,15.663525967405334
1760958036.2971203,-0.542505575766921,-0.08758342292439836,0.9516572825880846,-0.21555635333944753,-1.9073646091329717,20.066418320893053,15.324520277869667
1760958036.3072026,-0.5386626582586702,-0.08959785921839723,0.9532683980091993,-0.21540109159205714,-2.6187560666712577,20.941095976544176,14.987372895379792
1760958036.3172073,-0.5384099788811525,-0.08949428575433323,0.9533975740439592,-0.21424198081667023,-3.2720662636408973,21.836277041134615,14.680198582676605
1760958036.327239,-0.5373565443951509,-0.08751134231921415,0.9520181759784738,-0.21205056750360432,-3.845635386390811,22.741649515138192,14.424914445240715
1760958036.3371425,-0.5316942247349318,-0.08398443579770482,0.9493270409581299,-0.20883784268849104,-4.324093022157454,23.63053646990284,14.231812681614342
1760958036.3472147,-0.5184539673437434,-0.07928259506318316,0.9457479210572209,-0.20466372094390486,-4.700733819324901,24.457310564851948,14.096238334578516
1760958036.357292,-0.49565080478046697,-0.07374731249341435,0.9419145327375699,-0.1996468649389418,-4.97894557607868,25.158083198855195,13.997818447803718
1760958036.3672597,-0.46231162904058926,-0.06764466595245448,0.9386335131075743,-0.19396929866428686,-5.172581660250294,25.655457645566596,13.902253602199977
1760958036.3775046,-0.4183987626901425,-0.06113779315242993,0.936827718810158,-0.1878705824777911,-5.305329801319307,25.86738889298444,13.765263593780972
1760958036.387215,-0.36465773784343625,-0.054282864845947354,0.9374613031188874,-0.18162649349697502,-5.409236009509709,25.719345995453665,13.537944445600052
1760958036.397373,-0.30242710889225494,-0.04704742584718414,0.9414495365471126,-0.17550822865247773,-5.522603091075503,25.158222118447213,13.172585574954478
1760958036.407194,-0.2334488394419918,-0.03934517815135666,0.9495581493916536,-0.16972244284605417,-5.687520356831525,24.165928744379958,12.627939727390837
1760958036.417187,-0.1597111737242625,-0.031078355287977553,0.9622989305926991,-0.164339969540273,-5.947313571151126,22.770423000638964,11.87304937796677
1760958036.427404,-0.0833466294171068,-0.02217965040894162,0.9798306504246123,-0.15922855637208447,-6.344243765814862,21.0520723238941,10.889003427471545
1760958036.437284,-0.006597996511157521,-0.012648287934405077,1.0018778436470421,-0.15400844798333482,-6.91780139637267,19.14373706393148,9.668388478431018
1760958036.447307,0.06814758560572878,-0.002575706175590898,1.0276841913292687,-0.14804744209918475,-7.7038566362228815,17.223707968408537,8.212647539194743
1760958036.4574342,0.1382733544381915,0.007844356720605104,1.0560193103713724,-0.14050547256255771,-8.734675992463332,15.501616772155678,6.527988823976847
1760958036.467256,0.20082789753842595,0.01832453438794259,1.0852540694948922,-0.13043075767973866,-10.039452412088638,14.198538391708562,4.620813626712026
1760958036.4771748,0.2524349526750306,0.028507877640768734,1.1135081036502656,-0.11690151330318525,-11.644690256696595,13.52353256377944,2.4937723216177075
1760958036.487251,0.28924338506136726,0.037997184296024146,1.1388551688594355,-0.09919794197512928,-13.573718787470769,13.649591921957905,0.14345192319610164
1760958036.4972072,0.306929179244939,0.0463780216841851,1.1595530495868573,-0.0769776848160328,-15.84483877823425,14.692176847428902,-2.439654415539852
1760958036.5073702,0.30075167286077614,0.05322838144178415,1.1742537001563733,-0.05041702955602925,-18.468041541767416,16.693156213395184,-5.268768048565764
1760958036.5172637,0.26566271104397354,0.05811576205587434,1.1821526080206886,-0.020277248836194087,-21.440708259927284,19.612125340614906,-8.356458874748833
1760958036.5270932,0.1964675519915981,0.06059030330573835,1.183053324361981,0.01213182958745893,-24.743046272496052,23.325961866494787,-11.709138733861618
1760958036.537227,0.08803700582644652,0.060186894973846085,1.17734639717721,0.045091103549223015,-28.33414715657287,27.63638307671094,-15.321436191947495
1760958036.5471792,-0.06443054787776514,0.05644773547531437,1.165921858928013,0.07668515653745074,-32.149420853444944,32.28438478423855,-19.1713749599543
1760958036.557372,-0.26510092042681843,0.04897123706483755,1.1500431089728718,0.10504576569217666,-36.099818768905955,36.96983996092486,-23.21698612090607
1760958036.5672016,-0.5171560081482717,0.03748685712415871,1.1312054347083282,0.12858648958550695,-40.072875583427184,41.37421586519725,-27.394663969771262
1760958036.5771592,-0.8224158029056768,0.021949059588213818,1.1109906890889703,0.14619752036604058,-43.93538989532651,45.184326311594084,-31.61936514587
1760958036.587405,-1.1809475804616938,0.002636202087664924,1.0909212078296509,0.15737445849784815,-47.53758287727182,48.11524045667124,-35.786659227182966
1760958036.5972905,-1.5906910417859657,-0.01976668987000862,1.072317122858611,0.16225889297485396,-50.71865175337455,49.93083420013328,-39.776566357444075
1760958036.607438,-2.0471420403150073,-0.044124784090637956,1.0561689926624072,0.1615797365024171,-53.31359335669945,50.46086206757485,-43.45898668975927
1760958036.617383,-2.543149189314956,-0.06887020975702628,1.0430437910898933,0.156502332478202,-55.16103269299356,49.61372000340546,-46.700362879212605
1760958036.6273844,-3.0688838655418227,-0.09209320875757392,1.0330420962750495,0.14841227685542457,-56.11170172343223,47.384219961592656,-49.37109753630395
1760958036.637473,-3.6120429513766337,-0.1117165105043389,1.0258198639783354,0.13867758590800264,-56.037247772546316,43.85577463936171,-51.35321276320009
1760958036.6472805,-4.158332297724413,-0.12575168136746448,1.0206800032526269,0.12844204587623223,-54.83914065399243,39.196517606925774,-52.547781359634726
1760958036.6577773,-4.692253326847943,-0.13261421677663401,1.0167230301777483,0.1184991005937795,-52.457484818043284,33.64914589716241,-52.88175675678156
1760958036.6672633,-5.1981736448329805,-0.13144360666579685,1.013024684002279,0.10927578745080078,-48.87946044960577,27.514661274355685,-52.31394021623222
1760958036.67733,-5.661609446907186,-0.12235282218607205,1.0087948288831696,0.10092389354069471,-44.146875378287554,21.130629371843607,-50.83988207016546
1760958036.6871994,-6.070593163702516,-0.10653527738029214,1.0034774355129668,0.09348217525412827,-38.361912375224605,14.845041418811654,-48.4954613324364
1760958036.6972444,-6.416955925294247,-0.08618675191765028,0.9967743086389976,0.08705133730983451,-31.689736517185118,8.987421437901466,-45.35872912731149
1760958036.7072172,-6.69733149998523,-0.0642416988308407,0.9886046156755387,0.0819204533673776,-24.35643856478667,3.8395444612892033,-41.54943097951466
1760958036.717301,-6.913696997200123,-0.04396519019085544,0.9790347788346151,0.07860153324838902,-16.641054451252252,-0.39107384194299893,-37.225600758046646
1760958036.7272744,-7.073315875489357,-0.02847623927184422,0.9682177416197152,0.07776116751292522,-8.861175024271446,-3.5912030980899456,-32.57687929138917
1760958036.7372756,-7.188042780446438,-0.020297310824745476,0.9563653998497884,0.08007113243978645,-1.3528263392551942,-5.751813619134908,-27.814759056312564
1760958036.7473059,-7.2730722609023095,-0.02102025208198949,0.9437545323645837,0.086022300983053,5.553420489949853,-6.965218266833161,-23.1606184087649
1760958036.7573304,-7.345330129705108,-0.031149872726418032,0.9307498622596819,0.09575411295726292,11.557178637954394,-7.4085729472177215,-18.832888538572337
1760958036.767428,-7.4217752840041396,-0.05014108621218683,0.9178235210823729,0.10894552883881664,16.410591214771745,-7.315218158581194,-15.034767790397344
1760958036.7772741,-7.517874758302879,-0.07659753830947544,0.9055538320418216,0.1247953307929147,19.935533123252494,-6.937790109143018,-11.943577470252313
1760958036.7872558,-7.646444389515447,-0.10856587764085679,0.894593051839205,0.14209568083450885,22.03389828278857,-6.5089740695579605,-9.702347928215511
1760958036.7973247,-7.816951013055688,-0.14385297232384905,0.8856027008216242,0.15938150610700338,22.69040808581018,-6.20663206771028,-8.4137453613766
1760958036.8072095,-8.035287760049302,-0.18030992828185025,0.8791654722870355,0.17512552987167226,21.968534744242273,-6.129462059076496,-8.136125514478467
1760958036.8176143,-8.303971724008033,-0.21604884106513494,0.8756901338387952,0.18794388725574135,20.001013981461014,-6.287372375997519,-8.881383770811658
1760958036.827457,-8.622663472055281,-0.24957345045777712,0.8753269212699323,0.196776772014968,16.976864186381732,-6.607837295424964,-10.614347854702594
1760958036.8372934,-8.988869353114241,-0.279817209828393,0.8779075952199377,0.20101278515725143,13.126796523598617,-6.956388564358794,-13.253650247524508
1760958036.8472714,-9.398673640662196,-0.30609916729694525,0.8829201939216585,0.20053684398027177,8.708494363734347,-7.166871071406937,-16.674206319838074
1760958036.8575983,-9.84736863327075,-0.3280269111427495,0.8895240323302173,0.19569737888288205,3.99266074302305,-7.075668374338448,-20.711509941751043
1760958036.86718,-10.329901371247617,-0.3453877086991592,0.8966050126546716,0.18720358985525345,-0.7498068326468164,-6.5539408346569115,-25.167910032436936
1760958036.8772488,-10.841117100268068,-0.3580678506297427,0.9028667194343509,0.17597529349485222,-5.259503706024391,-5.532873866799595,-29.820894626422806
1760958036.8872352,-11.375830696168894,-0.3660256559143896,0.9069515178529289,0.1629764595765962,-9.299151554412086,-4.018662354592954,-34.43324122297086
1760958036.8973315,-11.928782948194419,-0.3693190677455013,0.9075862643440453,0.1490668413285367,-12.66311454588977,-2.0959892670135973,-38.7646955814683
1760958036.907184,-12.494536090543903,-0.3681616612760318,0.9037440453857323,0.13490151077588078,-15.185440808161095,0.07938986639764502,-42.584578961847875
1760958036.9171414,-13.067343197914983,-0.36296369923591126,0.8948044020404995,0.12089715249810305,-16.745838722104807,2.297012668271664,-45.68441785928324
1760958036.92733,-13.641007563234977,-0.35432045510886306,0.8806846084840154,0.10727037791288392,-17.273064625496847,4.3143826956180344,-47.88947647102313
1760958036.9373028,-14.208745091142392,-0.3429393712869857,0.8619114430971992,0.09413829655073694,-16.7456165653666,5.883149963292762,-49.06812711754399
1760958036.947427,-14.763076569080418,-0.3295336818571313,0.8396103135335128,0.08165551831684874,-15.190180460366717,6.776185920453507,-49.138397929497955
1760958036.9571526,-15.29579700779291,-0.3147292252118135,0.8154047796889189,0.0701481862138399,-12.678683835453779,6.813221416459103,-48.07166886031468
1760958036.9671671,-15.798079801638456,-0.29902201887796914,0.7912394066370873,0.06020000507262452,-9.324905216917696,5.8828868031180725,-45.89402374102215
1760958036.9773324,-16.260761304847808,-0.28279542656953705,0.769155483234331,0.05265226104907877,-5.281248504325148,3.959033495480419,-42.68586637339091
1760958036.987373,-16.674816789257257,-0.2663778376221804,0.7510557041957756,0.04850142646316477,-0.7355083613979023,1.109343374244543,-38.57998840020559
1760958036.9971504,-17.03199576579508,-0.25011088508690876,0.7384894735273138,0.048709204506672335,4.093502073453585,-2.50526923204948,-33.75761056830123
1760958037.0074017,-17.325548904945318,-0.23440416826573143,0.7324814492011327,0.05396895551873646,8.96319542735715,-6.640970777539707,-28.44144093137589
1760958037.0171292,-17.5509560175884,-0.21976326323250572,0.7334191561133997,0.06448792850945989,13.618873854973089,-10.990237165276051,-22.88478478347614
1760958037.0273545,-17.706553395649625,-0.20678563890075716,0.7410122969692943,0.0798419221671428,17.810301992286487,-15.207983408134075,-17.356212132520213
1760958037.0372555,-17.79395930414582,-0.19612507098742538,0.7543339269248057,0.09894055536318852,21.31207635252643,-18.941878263717086,-12.120113942160824
1760958037.0471728,-17.81821120626188,-0.1884308911716364,0.7719477832932264,0.12011451027499573,23.94512589976984,-21.864051005747413,-7.414515946466744
1760958037.0571876,-17.787558402948687,-0.18427216184599793,0.7921137308410964,0.14130886016791971,25.59581513971186,-23.701666385612175,-3.4285477809763396
1760958037.0672095,-17.71289636172986,-0.18405803499041523,0.8130467709612084,0.16034513419379612,26.22932516026536,-24.2640540880877,-0.28266004526143856
1760958037.077342,-17.60687777682189,-0.18796610221285076,0.8331926588340294,0.17520376704759077,25.89511364280455,-23.464056324493388,1.9852266803991614
1760958037.0872183,-17.482781449923706,-0.19589040132595312,0.8514804202745782,0.18428013131713375,24.723710686767188,-21.331185242188234,3.425041670856079
1760958037.0973818,-17.353255043864177,-0.20741721739330748,0.8675144072033923,0.1865789864784777,22.91530201727094,-18.014407554959018,4.169903173840232
1760958037.107257,-17.229068404511686,-0.22183083156581124,0.8816699459626314,0.1818278302857738,20.721281692444027,-13.773105413776648,4.42149996928495
1760958037.1172857,-17.11802194239411,-0.23814817271373825,0.8950616599747911,0.17050310466343901,18.42039785628504,-8.955968700036724,4.427024111896634
1760958037.1272936,-17.02414913099699,-0.2551819995587455,0.9093705601490994,0.15377116588918815,16.291517586413132,-3.96908657635301,4.450381378661231
1760958037.137322,-16.94732816244323,-0.27163131953879016,0.9265431306663743,0.13334972577733037,14.585469471568999,0.7638954099828853,4.741178189490318
1760958037.147103,-16.883370334140672,-0.28619147295310654,0.9484029488875252,0.11130043242834671,13.49877392613279,4.845258889709635,5.505254518657404
1760958037.1571825,-16.82458409791033,-0.2976671966321061,0.9762353151878597,0.08977359426386776,13.152203649616574,7.9450646208876865,6.880349265202061
1760958037.1673005,-16.760735202453326,-0.30506558151970264,1.0104154755210144,0.07073937850207698,13.576943208633146,9.835859807442418,8.919932710790839
1760958037.1772346,-16.68025424054168,-0.3076480052166585,1.0501518932510512,0.05574835644753157,14.710578620480765,10.415458527049518,11.587367105531538
1760958037.187107,-16.571505264670808,-0.30493398137967986,1.0934082521628603,0.045761005924717,16.404209628555858,9.7147299333553,14.761372344148008
1760958037.1972032,-16.423936768968414,-0.29667052774870734,1.1370480440038364,0.041068906626566544,18.4406666242305,7.889729140798086,18.252336153882304
1760958037.207203,-16.22898562404815,-0.28279674766148816,1.1772080940875875,0.04130533028192174,20.562259123860358,5.200044910152993,21.82748506235454
1760958037.2173553,-15.98067659257068,-0.263436173719454,1.2098533983764033,0.045522100679463384,22.50490894605853,1.9772830406446527,25.241574522380553
1760958037.2272427,-15.675930570653174,-0.23893751314070374,1.2314102558519784,0.052305405873862704,24.03420436435409,-1.4113754145172244,28.26881285978563
1760958037.2371888,-15.314643323758467,-0.2099616722692406,1.2393432867905774,0.059917004891830015,24.97813608106943,-4.59979882422119,30.731402848846386
1760958037.2472723,-14.89961264385804,-0.17758785035090574,1.2325542686821473,0.06646561345183674,25.251299608828916,-7.2561281374257804,32.52050464692092
1760958037.2575657,-14.436376374109939,-0.1433943880186288,1.2115332811578423,0.07011845672356902,24.86631048163377,-9.110565654921958,33.606610939345266
1760958037.2675307,-13.932986091575799,-0.10946643496133408,1.1782589597684257,0.0693473922318583,23.93001384945817,-9.977019874501439,34.03809050663963
1760958037.27707,-13.399695997103855,-0.07829204471475135,1.1358961436545507,0.06317541338050535,22.624542605992954,-9.76853329580145,33.928640482379
1760958037.2875159,-12.848511901678851,-0.05253040271547891,1.0883643238819238,0.051365364843842784,21.17603119077279,-8.506235009039083,33.436195191667935
1760958037.2972596,-12.292540210606738,-0.03466990756590716,1.0398539824963293,0.034489814567899006,19.81629393823218,-6.320831749810252,32.73712529720814
1760958037.307188,-11.74511327355259,-0.02663255906815644,0.9943592856068023,0.01384482162567572,18.744343481418667,-3.4449944237189283,32.00007018631524
1760958037.3171694,-11.218739154228254,-0.02940964084721504,0.9552809336594015,-0.008786985810086653,18.094708443543947,-0.19507345275603202,31.363396384012663
1760958037.327159,-10.724004263089427,-0.0428180646347417,0.9251360545291485,-0.03147304990624222,17.91803216307839,3.0582689681189046,30.91921241810078
1760958037.3374507,-10.268611739410082,-0.065443299753327,0.9053947240946266,-0.052484761989184635,18.17682025551884,5.928850742857167,30.705413655302976
1760958037.3473895,-9.856742581374288,-0.09479164876157503,0.8964452342693418,-0.07058088672282724,18.75615647122602,8.059142056764212,30.70575225825929
1760958037.3572516,-9.488876944188311,-0.12762618105822263,0.897673871415341,-0.08515670814663191,19.486466137061235,9.163887988501287,30.856765309247283
1760958037.3673408,-9.162124958686576,-0.1604207324392931,0.9076335993229006,-0.09623883449038202,20.173559744464843,9.066565907090148,31.059752131178325
1760958037.3773994,-8.871013901500334,-0.1898439645687135,0.924272229570783,-0.10435140788930673,20.630493954857673,7.72285184163754,31.19585010154653
1760958037.3872113,-8.608586424020045,-0.2131842642353782,0.9451917221677092,-0.11030971871610364,20.706145910112106,5.22729476056895,31.142416287919737
1760958037.3972285,-8.367604484230563,-0.22864586712894622,0.9679120245990339,-0.11500384314778327,20.30650499823591,1.8020960659203762,30.789165267101716
1760958037.4074397,-8.141640116216504,-0.23548154001067273,0.9901154155140333,-0.1192223306629595,19.40621155454134,-2.2303451639814384,30.05272379270733
1760958037.4172368,-7.925869122530644,-0.2339652896224236,1.0098520733155754,-0.12354455328711504,18.04953348302099,-6.487126673628485,28.888411341837003
1760958037.4273677,-7.717454221889773,-0.2252349458406428,1.0256914381010922,-0.12830747529272038,16.34154810289461,-10.571211918338227,27.298173634326954
1760958037.4372492,-7.515487686424605,-0.21104211038481735,1.0368038838568272,-0.13363187357200323,14.431623890519026,-14.118262845414632,25.3337672134151
1760958037.4473438,-7.320539243881069,-0.19344439455565046,1.0429595790497517,-0.13947937191423704,12.4922405505467,-16.837983604577797,23.094608656645775
1760958037.4573333,-7.1339121066668785,-0.17447684667302238,1.044445964365788,-0.1457107726937507,10.696595070824046,-18.545009924583113,20.720191322409313
1760958037.4675376,-6.9567460543261,-0.15584775993248415,1.0419278783696533,-0.1521278006832403,9.198195818543772,-19.17588470151899,18.377577086868182
1760958037.4773726,-6.789121408107833,-0.13870601801278448,1.0362874985188542,-0.1584969526124498,8.114813963203781,-18.790495882180146,16.24509056689089
1760958037.4873464,-6.629312198183302,-0.12351516235007363,1.0284761075454159,-0.16456648088698933,7.518060057514568,-17.558303073687117,14.493889719998988
1760958037.4972467,-6.473314198669833,-0.11004956461477579,1.0193957169261432,-0.1700894709554844,7.428871929253681,-15.731485085178486,13.269474379596735
1760958037.507319,-6.314737707926881,-0.09750858885534792,1.0098182707166992,-0.174857589437322,7.818548725271308,-13.60859537902414,12.675333360841108
1760958037.5172865,-6.145108002862615,-0.08472754236637235,1.0003452963498538,-0.17873866685211998,8.614611373921297,-11.493332458376168,12.760767001528375
1760958037.5272307,-5.954561476513729,-0.0704501204062351,0.9914065887943885,-0.18170531250049413,9.710548304189857,-9.653600417247311,13.514463390937145
1760958037.537206,-5.732869534741879,-0.05361796836336087,0.9832903592038315,-0.18384380382288196,10.978280646840984,-8.286104920598477,14.864707417250992
1760958037.547228,-5.470672267536369,-0.03362957024600015,0.9761905866331058,-0.18533938266638847,12.281943893549778,-7.491200574699201,16.686255159779208
1760958037.5572054,-5.160763743895931,-0.010522423271203465,0.970252614438387,-0.1864412472150574,13.491436532201952,-7.261495648620548,18.81304233285224
1760958037.5673523,-4.799246536519384,0.014958387296523237,0.9655986989146864,-0.18741489276768689,14.494242154133175,-7.485886463928165,21.05515399446444
1760958037.5773637,-4.386375598934527,0.041422320333020936,0.9623238994905924,-0.18849069244027564,15.204317976569047,-7.968482197274343,23.217975798996342
1760958037.587686,-3.926948320192313,0.06701584009943547,0.9604666971641679,-0.1898174471563664,15.567298585084446,-8.459663728858535,25.121238376765778
1760958037.5972834,-3.4301632409054745,0.08968941528470498,0.9599700228914524,-0.19142931155319237,15.561796129539768,-8.694691171523855,26.615769517704052
1760958037.6074588,-2.9089487380084735,0.10749879434509615,0.9606507960178591,-0.19323320415409992,15.197108489053115,-8.434159708760056,27.59616008544869
1760958037.617546,-2.3788383563452293,0.11888879947186064,0.9621903384116003,-0.1950203090904431,14.508107303637372,-7.500387657550239,28.008168699694043
1760958037.6276028,-1.8565306963889303,0.12291567558085972,0.9641496415126222,-0.1965002522925864,13.548395974257142,-5.804514307034027,27.850429278641407
1760958037.6374028,-1.35831388162469,0.11937636560587027,0.966007657463125,-0.19735194351611998,12.382943670666009,-3.360555232330699,27.17074934420696
1760958037.6475034,-0.8985542040177947,0.10882769696885113,0.9672189061228326,-0.19728195169952714,11.081295293608312,-0.28467740172022166,26.05787907711024
1760958037.657363,-0.488441038947781,0.09249538538579948,0.9672859479437672,-0.1960796407063984,9.712153702348752,3.219807116320473,24.6300224009796
1760958037.66738,-0.1351420727558439,0.07209123440094496,0.9658392163566186,-0.1936585042664123,8.33969217034896,6.889143735579994,23.021538679967154
1760958037.6773021,0.158542535689578,0.04957323134923013,0.9627113419995509,-0.19007593623531358,7.021482528883923,10.433342891857569,21.36928018034112
1760958037.687222,0.39401888749697866,0.02689238162297889,0.9579892471128052,-0.18552891510671515,5.807539961232585,13.57280571441283,19.79987492774513
1760958037.6972833,0.5763013898437633,0.005769638195796571,0.9520286302586565,-0.18032907874725215,4.739797322999513,16.072204933644166,18.419039650243636
1760958037.7073445,0.713110013557083,-0.012462763101928991,0.9454223450825154,-0.17486472738407174,3.8513912878779935,17.76716750983458,17.303730641720122
1760958037.7174706,0.8138263985983955,-0.026937256144174856,0.9389244138927402,-0.16955718927785665,3.1654545776360683,18.58064804721954,16.497638125153525
1760958037.7274017,0.8884660515367321,-0.03724672638730764,0.9333419778896073,-0.16481519468384642,2.6935482374083817,18.527618515898666,16.010211893672444
1760958037.7374227,0.9467839669088559,-0.043381542243995326,0.9294147957838383,-0.16098811070170518,2.434238060692821,17.70849271011337,15.819084087664288
1760958037.747379,0.9975793436135552,-0.045636446904879474,0.9277033568441163,-0.15832192295201247,2.3724431545270113,16.29318774323636,15.875456686515587
1760958037.7576034,1.0482255911128486,-0.044509366232923044,0.9285033833622067,-0.1569280388119408,2.4800387920237084,14.498680473875076,16.111773961314178
1760958037.767528,1.1044295750182813,-0.04060374206213675,0.9318002778238608,-0.1567758128261205,2.717910374865293,12.56333772045598,16.4508092240952
1760958037.7773607,1.170205865610465,-0.0345420983109052,0.9372729509604361,-0.15771228191019382,3.039363836926633,10.721287363755822,16.815158477559613
1760958037.787536,1.2480277757755278,-0.02690035249909062,0.9443489023297356,-0.1595031290728996,3.3945404902524676,9.179750697877617,17.13607849726592
1760958037.7971535,1.3390934676771695,-0.018171775305558593,0.952299842741422,-0.16188367150389235,3.7352699279152777,8.101632107230833,17.360687600991902
1760958037.8077297,1.443634971127182,-0.008763001026917523,0.9603552738739675,-0.16460804488066563,4.019673908411683,7.594800038578928,17.456782571537744
1760958037.8176079,1.561205009518871,0.0009839300379449207,0.9678082498286809,-0.16748634264294868,4.215867265858071,7.7084773454469095,17.414858539581395
1760958037.8274195,1.6908961754898792,0.010755209539125737,0.9740946141022682,-0.17040259404159933,4.304286449441882,8.436150751478523,17.247265503949524
1760958037.837217,1.8314726726994461,0.020228396483243236,0.9788385077317282,-0.1733116889938032,4.278440409087719,9.723596165397556,16.984750393786115
1760958037.8474045,1.9814212656488441,0.029048109068211484,0.9818662102068015,-0.17621957495928864,4.144136397051998,11.480131704252507,16.67090722002794
1760958037.857397,2.138948944075359,0.03682348474953097,0.9831953367287625,-0.17915564678440407,3.9174289901950194,13.591093597579793,16.355268813796457
1760958037.8671768,2.301964126991685,0.04315006894668348,0.9830085555739111,-0.1821479114183446,3.6216512774072087,15.92974399740506,16.085886887707368
1760958037.8772483,2.4680753759586986,0.047652101891397854,0.9816214494243324,-0.18521049455572697,3.2839169054314827,18.367285427003154,15.902250707150282
1760958037.8872025,2.6346314109887237,0.05003689640505657,0.9794528436401365,-0.1883491188716715,2.9314599241155603,20.78027533932471,15.82931267541511
1760958037.8973837,2.7988139218541193,0.050151388410442296,0.9770029680507805,-0.19158299194561454,2.588142614439605,23.055386920789182,15.873253777767745
1760958037.907221,2.9577828103084065,0.04803095321887954,0.9748407854663816,-0.19497303080160663,2.271424848395441,25.092022880306512,16.019441557521684
1760958037.9171948,3.1088626726097686,0.04393143033643871,0.9735974193477354,-0.19864049674663847,1.990040791491352,26.80365760402053,16.232797451067913
1760958037.9274073,3.249749129642456,0.03833655732225154,0.9739587254289235,-0.20276017754097622,1.7425562097164609,28.1189058417566,16.46050213102139
1760958037.9371676,3.378703981477159,0.03193485613107838,0.9766472926124108,-0.20751880760124075,1.5168841481800632,28.98318908880843,16.636663142689585
1760958037.9477482,3.494701196339594,0.02556342537678103,0.9823828908936622,-0.21304037033181347,1.290733055932981,29.361541079473994,16.688310154034692
1760958037.9571958,3.597485487368631,0.02012173605605553,0.9918120996511842,-0.21929171800805597,1.0328707549029381,29.24264220496769,16.541934916088604
1760958037.9672134,3.687515173128425,0.016465586197110107,1.005405175681554,-0.22599089635204647,0.7050301835695515,28.64367823449755,16.129791359696345
1760958037.9771087,3.765781382664576,0.015297654741330402,1.0233316330322664,-0.23254387799233264,0.26426463961279734,27.61514385443705,15.39530053883855
1760958037.9871697,3.833522127233287,0.017074020275157576,1.045340838755906,-0.23803213736672738,-0.3344354886782085,26.24432385000958,14.297117113222818
1760958037.9971933,3.8918743500212902,0.021943728355896752,1.0706822566518677,-0.24126496499777808,-1.1354601104853417,24.655975554882993,12.81166018101015
1760958038.0071752,3.9415217189489216,0.02973125647457188,1.0980960398504418,-0.24089895380517934,-2.180072902034753,23.008804118826642,10.934144894983053
1760958038.0174246,3.9823971641594884,0.03996260290074428,1.1258887084825056,-0.23561429566394854,-3.504388188290667,21.48673898631938,8.678317329502615
1760958038.027371,4.01348931678371,0.05192851126980459,1.15208673840925,-0.22432439521580894,-5.138140502684216,20.28479724324142,6.075148091922823
1760958038.0375583,4.0327854837994686,0.0647743365238846,1.1746418729410932,-0.20638380822171865,-7.104400036012349,19.590373357474352,3.170676287633994
1760958038.0478425,4.037363487727875,0.07760398443953094,1.1916528588512574,-0.18175341013840352,-9.420062260185787,19.561928926970104,0.023059291373410853
1760958038.0572982,4.023621756704858,0.08958345691284224,1.2015706045254595,-0.15108497416541963,-12.096566827228889,20.307990945867143,-3.3012439674848864
1760958038.0675516,3.987611977542825,0.10002686242793264,1.203363790368299,-0.11570093068364803,-15.140072506328202,21.869808221238916,-6.732250352467078
1760958038.07744,3.9254139303275632,0.10844577199416718,1.196634105095619,-0.07746561273144312,-18.550376887016004,24.210746578188527,-10.202125475557976
1760958038.0872352,3.8334762785366294,0.11454662714628198,1.1816785150835136,-0.03856649258694851,-22.318231808505868,27.21449714850156,-13.651347535988966
1760958038.097284,3.708852637473127,0.11817557291523795,1.1594956938337408,-0.0012432077165607255,-26.421236018109543,30.692646044350305,-17.034537251566206
1760958038.1072464,3.549294796620542,0.11923289503330724,1.1317273406104222,0.03248573068096788,-30.818972089816977,34.400493567155706,-20.324788664415713
1760958038.1172078,3.3532146287292757,0.11759767449854885,1.1005230350542512,0.06104811428734888,-35.448313028400825,38.058625185899366,-23.515230691731617
1760958038.127422,3.1195725746216616,0.11310345207416155,1.0683281699456022,0.08345719263626837,-40.21982654784909,41.37696483159336,-26.61679946360501
1760958038.137318,2.8477753776923085,0.1055840411030908,1.0376159745304614,0.09934884415639911,-45.01606890561891,44.07808658960747,-29.651845207939093
1760958038.1473176,2.537661269630016,0.09497640587580881,1.0106053992451802,0.10892502621543548,-49.69237782396529,45.91737653979205,-32.64411646601026
1760958038.1572235,2.189621091332043,0.08144332504540515,0.9890152231202227,0.11283038668779775,-54.08051340801019,46.69887657504113,-35.606597117684984
1760958038.167714,1.804860505998777,0.06547373010872727,0.9738963354657603,0.11199638325534908,-57.99512387945989,46.28679876066579,-38.52934823750883
1760958038.1775403,1.3857642489717816,0.04792956481974336,0.9655631816693797,0.10748410650057456,-61.24263145234999,44.6133538130782,-41.369761796838915
1760958038.187455,0.9362871838849686,0.03002283673119571,0.9636228116182253,0.1003492215273717,-63.63190663281312,41.683557488886485,-44.04741516592607
1760958038.1976364,0.4622737328926952,0.013217391688748572,0.9670848728356862,0.09154540148414529,-64.98608468518913,37.57723142847688,-46.44506361000818
1760958038.207816,-0.028399396888022708,-0.0009418092711273663,0.9745288299043351,0.08187699169192686,-65.15498405680681,32.447818448821415,-48.4163494962533
1760958038.217563,-0.5259492687207815,-0.011058370493379842,0.9843012890059275,0.0720049192403839,-64.02764877074584,26.517177481242342,-49.7997323627817
1760958038.2276838,-1.0191402059367636,-0.016144601095146174,0.9947150309257549,0.06249986834207193,-61.54441976908492,20.065367186407823,-50.437147068915905
1760958038.2374988,-1.4960724495855362,-0.015867381887732113,1.0042239938595923,0.05392378478997091,-57.707631616269126,13.414594103738573,-50.19512596280145
1760958038.2472165,-1.9452516892200207,-0.010723212948409399,1.0115552779476735,0.04690859563630543,-52.58967110455766,6.906999381959916,-48.98565805695746
1760958038.2577317,-2.3568215999589484,-0.002086409701597232,1.0157885118176033,0.04219630751141398,-46.33693145296474,0.8768758562780244,-46.78393043143744
1760958038.267201,-2.7237891924709747,0.007905728138317485,1.0163833303484027,0.040613289006682034,-39.16830624869597,-4.380697722961496,-43.64032461833547
1760958038.2772956,-3.0430460768957683,0.01662896511482373,1.0131655013173608,0.04297264988772015,-31.367331657673823,-8.641172229235806,-39.68466440911988
1760958038.2874942,-3.3159991885143323,0.02136373020641877,1.0062879370838396,0.049922881365293686,-23.267833473050146,-11.77686170356836,-35.12173138802431
1760958038.2975805,-3.5486757047120823,0.019723331334532294,0.9961827201734152,0.06177793309565753,-15.233841156080125,-13.77309826184989,-30.218350575741077
1760958038.3076274,-3.751252029146607,0.010028842204417188,0.9835166964368495,0.07837018273026371,-7.635442750458266,-14.730107824351373,-25.283621169782506
1760958038.317608,-3.9370592678945573,-0.00844462332153957,0.9691580105520674,0.09896530943945317,-0.8229702493006013,-14.848771519017637,-20.6447812477505
1760958038.3274994,-4.121213487750803,-0.035389897895039005,0.9541524917611056,0.12226862802501513,4.897775580156149,-14.401350863488252,-16.62151910038901
1760958038.337208,-4.319082365570285,-0.06955296466291737,0.939696843619367,0.1465361591648938,9.286698534631611,-13.691174242801875,-13.501309814350092
1760958038.3473623,-4.544813260582218,-0.10893843361736305,0.9270857903647589,0.16978137714932323,12.184967782293063,-13.00755943538566,-11.517811996125756
1760958038.3572054,-4.810112376337516,-0.151074706209573,0.9176110426421459,0.1900436723955471,13.523788984420003,-12.583366680409643,-10.833784089356179
1760958038.3673108,-5.123400846040645,-0.1932854156790265,0.9124052894161229,0.20566507408820137,13.326114819946602,-12.562292853042411,-11.529542384860344
1760958038.3774586,-5.489407348857854,-0.23293728748598658,0.9122485354435749,0.2155175131438385,11.701758698782985,-12.981382606975812,-13.5976947861069
1760958038.3872805,-5.909201536609737,-0.2676571452063075,0.9173740017793766,0.21913652831462435,8.83683652842137,-13.77156530607541,-16.94461901216596
1760958038.3972714,-6.380623961827475,-0.2955190373971217,0.9273178324602941,0.21674039214982382,4.978725405767569,-14.775853185358873,-21.398744665130803
1760958038.4073007,-6.899019235253698,-0.3151964566220302,0.9408520359634079,0.20913591436389048,0.4179272633442985,-15.781758494385052,-26.72504911225576
1760958038.4172556,-7.4581356114313735,-0.32606450315774776,0.95602840810785,0.19753094477350755,-4.531553328244309,-16.562046262738868,-32.64433497052613
1760958038.4273927,-8.051032805472106,-0.3282329432963558,0.9703459772652099,0.18329000464195752,-9.551505462520288,-16.91657970592572,-38.85504369521512
1760958038.4373488,-8.670851820287108,-0.3224978155107723,0.9810374064870937,0.16768127814144518,-14.336670582914177,-16.70804539104303,-45.05488521463828
1760958038.4473395,-9.311341783464528,-0.31021528978412205,0.985450772300928,0.15166614731653333,-18.608328217668518,-15.885796459748061,-50.959643787871954
1760958038.4572895,-9.967095642437577,-0.2931218662247794,0.9814792198574529,0.1357752614432292,-22.123631900314265,-14.494597049798864,-56.31717842553717
1760958038.4674745,-10.633505681418221,-0.2731401449517358,0.9679617295608651,0.12009922948280392,-24.680998245499104,-12.66808472018429,-60.91574203296934
1760958038.4776356,-11.306500272279198,-0.25220724221546253,0.9449581878325392,0.10439931358091133,-26.122783900221034,-10.609570390753994,-64.58706729402945
1760958038.4874704,-11.9821557822293,-0.23214082580164924,0.9138165015923426,0.08831674956912434,-26.337035289468233,-8.564725121491968,-67.20587435793486
1760958038.497257,-12.656287682958748,-0.2145318951115567,0.8770052708413665,0.07163314022601823,-25.259991174794724,-6.7913820097241375,-68.68812669763426
1760958038.507333,-13.324115577337691,-0.20064579253416365,0.8377544967495872,0.05451573789762751,-22.880235362317467,-5.531093367917624,-68.99018427836663
1760958038.5173352,-13.980074896818339,-0.1913273516734759,0.7995917762636742,0.037678707138214806,-19.244229528322816,-4.985569244393801,-68.11003281594594
1760958038.5273,-14.617818936951508,-0.1869259515018657,0.7658689483466709,0.022408712574099862,-14.461847140178715,-5.2992834201843335,-66.09043179637712
1760958038.5372806,-15.230421787324856,-0.18726431314860287,0.7393553639502947,0.01043537855924293,-8.709823806028133,-6.548010494490255,-63.022619073235205
1760958038.5474632,-15.810758116431945,-0.19166728933176627,0.7219452173877902,0.003663975410683063,-2.2308599274395724,-8.732277675230165,-59.04844988297645
1760958038.5574229,-16.3520035606264,-0.1990509430040848,0.7144985570467663,0.003820166124830471,4.673585751337503,-11.774735949312683,-54.35867133048426
1760958038.5674117,-16.84817568268521,-0.20805819494760405,0.7168146543889968,0.01207864420232013,11.658050767564792,-15.521016281185247,-49.18549694820057
1760958038.577436,-17.294626740455534,-0.21722116606876402,0.727723441448248,0.028754432981146324,18.355475420707105,-19.744351403081108,-43.78870345858365
1760958038.5874312,-17.688409207282344,-0.22513067939807777,0.7452719936481379,0.053125167251559705,24.40587385295843,-24.154791667422344,-38.43589527901077
1760958038.5974493,-18.028460825636046,-0.23059595391719317,0.7669755952609275,0.0834264210044271,29.488297983288625,-28.414019991656495,-33.37900105589034
1760958038.6073277,-18.315591025267775,-0.23278019855748955,0.7900990988749222,0.11702615810925497,33.35189920362978,-32.15645735190137,-28.83010843203986
1760958038.6173308,-18.552285548959556,-0.23130016459791056,0.8119380110328386,0.15074790808737398,35.84149599663146,-35.01652978420737,-24.94013922569308
1760958038.6274297,-18.74237221515915,-0.22627971797085955,0.8300794460089737,0.18128478066889314,36.91371180872809,-36.66076129219412,-21.783527324981367
1760958038.6373582,-18.890602769625186,-0.2183504064798022,0.842634678340933,0.20563387952868173,36.6412671025184,-36.82200464755071,-19.351130850642495
1760958038.6473715,-19.002204162848393,-0.2085972533612402,0.8484400862151713,0.22148299039289213,35.20489155591604,-35.331943547542366,-17.55238179997594
1760958038.6573484,-19.08244179336518,-0.19845466575736898,0.8472188796885232,0.22749436371490503,32.874078794753004,-32.147334853476885,-16.226419069906733
1760958038.6673827,-19.136223208764765,-0.18956288436539048,0.8396860594633995,0.22344991988516083,29.97924820833857,-27.365568936516237,-15.160846292115567
1760958038.6772861,-19.167759423388055,-0.18359873225035292,0.8275709062065509,0.2102451192391883,26.878680104546252,-21.226113276995264,-14.115924725658022
1760958038.6874,-19.18029672261002,-0.18209620469658286,0.8135304388335628,0.18974089119132662,23.923853358101688,-14.096178886513707,-12.851509232010484
1760958038.6974623,-19.175934438828463,-0.18627287945125492,0.8009354033673654,0.16450063666601067,21.426667318245602,-6.441213984584815,-11.153854355898025
1760958038.7071946,-19.155548049570246,-0.19687669381018025,0.7935270351058864,0.1374515088975419,19.631634838224496,1.216839297603048,-8.8595280144544
1760958038.7172,-19.11883430706644,-0.21406526398832712,0.7949668597442051,0.11151627583043973,18.69556526088464,8.348625575780963,-5.874041355412577
1760958038.7273915,-19.064481861014112,-0.2373288878308533,0.8083288064892761,0.08926348573559274,18.676485067784718,14.467699367667958,-2.1833854805549966
1760958038.7374868,-18.990450042252963,-0.2654688148484271,0.8356028473027334,0.07261910350310302,19.5325399426327,19.175854301066718,2.1426090151663804
1760958038.7473838,-18.894318340269397,-0.2966413461165078,0.8772831731463084,0.06267323805396785,21.130489058474822,22.198138456994915,6.955375127464351
1760958038.757531,-18.773656447588717,-0.3284734363385985,0.9321043879391263,0.05960215699607669,23.26237800387116,23.40391543493128,12.040669407107153
1760958038.7673516,-18.62636078707575,-0.35824718857970483,0.996976853093153,0.06270983066744983,25.668272394129964,22.81234342181687,17.138388874882057
1760958038.7772884,-18.450906716960624,-0.38314093643203895,1.0671598988465705,0.07057733577675286,28.062630302927467,20.58259508564932,21.96739855770667
1760958038.7873793,-18.246476385163117,-0.40050522505993696,1.1366919905836614,0.08129446103768913,30.161974331381114,16.99079551604995,26.253211869294358
1760958038.7971826,-18.01294157891888,-0.4081436707373391,1.1990635248055845,0.09273491780349248,31.71189592238839,12.396981979892667,29.75606094941463
1760958038.807397,-17.750707592985624,-0.4045619931745731,1.2480692238781192,0.10282507427772938,32.5118573461624,7.20642502329818,32.29671868282161
1760958038.817663,-17.460454531181025,-0.3891471316452803,1.2787182029285633,0.10975396213388142,32.436444824485456,1.83030580115994,33.77745753679055
1760958038.8279498,-17.142842062011432,-0.36224943874800225,1.2880301038288893,0.11209124132533602,31.45147763124005,-3.34926161002086,34.19577697177871
1760958038.8374677,-16.79826562218459,-0.3251662175904364,1.275537076965889,0.10882049900715743,29.622814139135563,-8.0058756317927,33.648942854408816
1760958038.8472593,-16.42675593393797,-0.28005015139493106,1.243363956455011,0.09933626874960316,27.115274682225245,-11.885237984011837,32.32792975421521
1760958038.8574576,-16.02808901702585,-0.2297694018754368,1.1958599384068387,0.08346277250574304,24.179394776820004,-14.812005786381317,30.50017071290657
1760958038.8674366,-15.602117528945588,-0.1777229058442073,1.1388666100272768,0.06151804900773107,21.125116198193595,-16.690043648754497,28.481816883465296
1760958038.8777816,-15.149257764760705,-0.12758882809617667,1.078789078871271,0.03439140988759927,18.283998855323894,-17.49981225173206,26.601992027640776
1760958038.8874547,-14.670998151017763,-0.0829867834011983,1.0216638120786108,0.0035657453612313113,15.964540672485475,-17.295579945157296,25.16335675780804
1760958038.8976905,-14.17026831134622,-0.04707161832704719,0.9723886707183544,-0.028975060356674458,14.407722604004753,-16.2027555280359,24.40450835706982
1760958038.9073663,-13.651540726952048,-0.022124905749667793,0.9342206181739171,-0.06096655306591193,13.750919413882773,-14.41317497399895,24.46989005879405
1760958038.9174209,-13.120619577635484,-0.009238266259074146,0.908581259211915,-0.09017075754548523,14.0072787756029,-12.174982704845588,25.391908923914198
1760958038.927423,-12.584171773236724,-0.008173241902648077,0.8951540783258676,-0.1146963273429221,15.064737910745698,-9.774509568800278,27.088029638949493
1760958038.9373655,-12.049134117769329,-0.017439888475514597,0.892215425442596,-0.13325777902467822,16.704833671632578,-7.509916902967446,29.373066295964076
1760958038.9478114,-11.522156121397515,-0.03457873488573248,0.8971170760456142,-0.14532306597279815,18.63751741647926,-5.659256790712222,31.98434089845994
1760958038.9574964,-11.009202136973734,-0.056579910507876474,0.906830242796573,-0.15113105785049885,20.54534908151575,-4.447827935036179,34.61551238395122
1760958038.9674964,-10.51536122640902,-0.08034559174105874,0.9184631856859344,-0.1515889158606568,22.12928826753952,-4.020566043476708,36.9540849709676
1760958038.9774916,-10.044835939264196,-0.10310332482944036,0.9296738542393457,-0.14807753155319034,23.148817124298386,-4.424546092683634,38.717766086999085
1760958038.9877033,-9.60103139441019,-0.12270272582700369,0.9389194361833865,-0.14220310232067393,23.450863238946923,-5.60480081058492,39.68558394812703
1760958038.9976578,-9.186653116289262,-0.13776460394929788,0.9455197682176887,-0.13553887362750341,22.984323422236347,-7.414168365031636,39.72068242734759
1760958039.007817,-8.803739640373573,-0.14768696476147544,0.9495532672250969,-0.12940188181317508,21.79942523946399,-9.635413548665655,38.78284630424288
1760958039.0174005,-8.453591183595991,-0.1525372983399719,0.9516371785959932,-0.12470101388462261,20.033405819903564,-12.01191270108661,36.93000840867597
1760958039.0274262,-8.136595698560148,-0.15287234930841476,0.9526592173803231,-0.1218755278329873,17.885826131329708,-14.282044808716444,34.30918413000253
1760958039.037432,-7.851987958728914,-0.14952771894737377,0.9535236151296539,-0.12092311594818199,15.588052877125712,-16.2121993218753,31.138393641702212
1760958039.047518,-7.597599319527463,-0.14341386214083482,0.9549545847291981,-0.12149960811497439,13.37183806843011,-17.623928460475906,27.682063314856
1760958039.0574083,-7.369663424413845,-0.1353460953930196,0.9573750765444982,-0.12306199561990967,11.441452510297177,-18.412024903313064,24.222988514948085
