timestamp,angle,linear_acceleration_x,linear_acceleration_y,linear_acceleration_z,angular_velocity_x,angular_velocity_y,angular_velocity_z
1761285434.6329575,-9.365390442537542,-0.33622635413874397,0.8567273413762944,-0.2880242026610329,-5.852932557862651,19.337598163609794,39.58134576242799
1761285434.6429641,-9.203835767932853,-0.3302108298151004,0.8591585907208177,-0.28369981309273407,-4.700192140325972,14.6755180557041,36.87557753228915
1761285434.6529417,-9.093364218333512,-0.32336886490783573,0.8635017079672599,-0.2817451421892495,-3.386743550589681,10.494488531259003,34.48914109260422
1761285434.6629465,-9.025469916039484,-0.3162863332240049,0.8695975676675048,-0.28152064364256135,-2.0349945989381046,6.791975369683701,32.48629189270798
1761285434.673003,-8.988659867396063,-0.30876261372540675,0.8772395688017096,-0.2820847877411265,-0.7485747044854344,3.494536603734712,30.920166780322457
1761285434.6830835,-8.969081913619831,-0.3000932411921496,0.8861251845055164,-0.2824180391203371,0.390675118311661,0.5001258169548858,29.826952468975787
1761285434.6929636,-8.951581780195802,-0.28940289808215536,0.8958106444294279,-0.28163292564119563,1.3231394636718623,-2.282673335460944,29.220555152511558
1761285434.7029588,-8.921012628540867,-0.2759411277357695,0.9056811712576672,-0.2791296566514259,2.0101981411891208,-4.905949316721152,29.088895892338712
1761285434.7130222,-8.863557839518574,-0.2592739467907993,0.914946955741327,-0.2746740706913149,2.432099055514628,-7.368773745873191,29.392553977552648
1761285434.722949,-8.767822246734637,-0.2393403116646982,0.922672974590654,-0.26839397925099545,2.5855226914748415,-9.619385290836084,30.065993385070154
1761285434.7329905,-8.625503690837041,-0.2163841322948162,0.9278480144742488,-0.2607078922985265,2.4812086026278815,-11.57063342120485,31.021128623780967
1761285434.7430892,-8.43156446546564,-0.190809485330224,0.9294938547435847,-0.2522137712484818,2.1417761899923713,-13.12337809583692,32.15260607393103
1761285434.7532234,-8.18395359166591,-0.1630286684814583,0.9268091796424759,-0.24357197700526353,1.599656506289596,-14.191158125602337,33.34397327497073
1761285434.7629488,-7.883047460985603,-0.13337189881549757,0.9193347737625975,-0.2354139815822163,0.894915376530281,-14.719685159420742,34.47392534766719
1761285434.7729692,-7.531041195013655,-0.1021017014466689,0.9071177513553015,-0.22829680140676514,0.07272468141516798,-14.696576778175341,35.42204084032719
1761285434.7829638,-7.131514835964245,-0.0695314610791603,0.890844989153736,-0.2227049351230776,-0.8196784772171076,-14.14973027147141,36.073763612378436
1761285434.7929754,-6.689319505363562,-0.03620172417634856,0.8719127933241455,-0.2190812623205505,-1.7365477648274128,-13.135972406834364,36.32472421425464
1761285434.8029687,-6.210802862102231,-0.003037092561799245,0.8524038694954249,-0.21785210385437734,-2.637504497515458,-11.724128399225597,36.08470507305302
1761285434.812972,-5.7042575523759655,0.028597745513039032,0.8349545615970887,-0.21940679700155477,-3.4913395527006825,-9.977747269974582,35.28156170460201
1761285434.8229706,-5.180370555391027,0.05700027733514062,0.8225136080437928,-0.22400429519314127,-4.279187633760568,-7.942184524907599,33.865193892386344
1761285434.832949,-4.6524088064004685,0.08040117367987262,0.818014897948303,-0.2316080945974404,-4.996463703764767,-5.638845878210568,31.811267332598987
1761285434.8436253,-4.135917349174152,0.09735483469695733,0.8240058000980983,-0.24168806177646532,-5.653029109977157,-3.0668190608516896,29.12394929970935
1761285434.8529797,-3.6478310661704674,0.10714382754294795,0.8422844031424385,-0.2530596114193988,-6.271276960609238,-0.20976996402998388,25.836616552413563
1761285434.862972,-3.205083880990979,0.11006041240718781,0.8736009546992156,-0.26384149335578233,-6.882177581894165,2.9553295966977826,22.009488416588116
1761285434.8732662,-2.8229833911021984,0.10744492321854719,0.9174727819597991,-0.27159198006079294,-7.519761720518999,6.450921928781934,17.723561407286255
1761285434.882976,-2.5137279465975553,0.10143228266453311,0.9721511811924384,-0.2736319161006222,-8.21496350797696,10.294835215185573,13.071102311010298
1761285434.8930283,-2.285420666527455,0.09446080304179823,1.0347616646737232,-0.2675013878261944,-8.990074856531944,14.499200574079309,8.144108068756355
1761285434.9029927,-2.141786178835122,0.08868455028697152,1.1016104279395607,-0.251450293803962,-9.855119598490942,19.070262758898924,3.023126410895687
1761285434.912954,-2.0825889299545004,0.08546269044686403,1.1686114890194006,-0.2248479241755969,-10.807123668312125,24.006491386805354,-2.2308350523931595
1761285434.9229546,-2.1045720921658964,0.08506826365935036,1.2317539614948856,-0.188414776610518,-11.832576268009966,29.29327958717972,-7.579128971462407
1761285434.9329667,-2.2026388463577007,0.08668375956324395,1.2875144746202725,-0.14422287150420557,-12.912559995223408,34.89433595319317,-13.002110624657789
1761285434.9429584,-2.370992905477097,0.08866249584333183,1.3331361944014974,-0.09546274556741757,-14.029345399386973,40.74176353513054,-18.490282861542603
1761285434.9529712,-2.6040192645204274,0.0889643628630729,1.3667403483879006,-0.046018710218265625,-15.17287457708619,46.72794618070022,-24.032016967682296
1761285434.962955,-2.896784293337729,0.08564349739397666,1.387290164048107,7.802796371303689e-05,-16.34553699231751,52.70230259739359,-29.600724491063218
1761285434.9729962,-3.245135476540688,0.07727546586308247,1.3944656288411659,0.039230746333956866,-17.563922407290583,58.474862912997295,-35.14441961185246
1761285434.982984,-3.6454649532757393,0.0632455565833602,1.3885161822086922,0.06879355063617627,-18.85674853547399,63.82701261080705,-40.58003446320553
1761285434.9931972,-4.094257401365627,0.04385869647652891,1.3701406284681283,0.08742462045623728,-20.258831414763225,68.52822633753156,-45.79386970357377
1761285435.0029757,-4.587568716201706,0.02026730175030623,1.3404127970790662,0.09520331026275697,-21.80172715577451,72.35655535377802,-50.648444209179736
1761285435.0132132,-5.120578418497743,-0.0057547630763026035,1.3007434790762955,0.09348710591425421,-23.502438762013714,75.12012682022211,-54.99491777423332
1761285435.0230112,-5.687329561636445,-0.03213857688614653,1.2528554724337284,0.084545334800238,-25.35220347628948,76.67686356406482,-58.6892571450841
1761285435.0334082,-6.280721690499342,-0.05687934428505685,1.1987507711602068,0.07106060158538705,-27.307658571596175,76.94991633702385,-61.60949617411668
1761285435.0429819,-6.892765102904046,-0.07836126001467357,1.1406592318739524,0.05561909047031972,-29.286481440636095,75.93684674066968,-63.67103798410177
1761285435.0529735,-7.515050619777914,-0.09559521428020781,1.080966505200927,0.040307620683842596,-31.168927020668786,73.71135111803063,-64.83719512423482
1761285435.0630052,-8.139349206000862,-0.10833955331707495,1.0221206102581073,0.026499946212330913,-32.8057288663834,70.41715444680285,-65.12308224896589
1761285435.073225,-8.758235706162184,-0.11709820795019825,0.9665143554764398,0.014858137938295804,-34.03183082156828,66.25445665157177,-64.5923166115982
1761285435.0829747,-9.365630623639756,-0.12300949526368482,0.9163428408192338,0.0055126921394177105,-34.68451367443142,61.45990298810446,-63.34736209643139
1761285435.093,-9.957169982537282,-0.12765021772648794,0.8734448580353626,-0.0016649847787829969,-34.62370006683382,56.28161793121015,-61.51543442649962
1761285435.1030316,-10.53034113516156,-0.132783561446929,0.8391486552205808,-0.006804484487226665,-33.75161248318472,50.95163318947308,-59.23248733569229
1761285435.1130593,-11.084356825452847,-0.14007930660528944,0.8141494514201271,-0.009881112405513523,-32.028684056964195,45.65908266862386,-56.62789964211187
1761285435.1229773,-11.619776779958585,-0.15083629466980578,0.7984458587069692,-0.010701898391502963,-29.482871931900874,40.52844359774253,-53.81214540578288
1761285435.1335504,-12.137922732823059,-0.16574138869912522,0.7913540299057806,-0.009012354116070468,-26.21039142267971,35.607227063191345,-50.869051333983904
1761285435.1429825,-12.640166505489868,-0.18470261964204027,0.7916023569139103,-0.004661056808854786,-22.36728211958382,30.866396156549776,-47.85336673977842
1761285435.1530073,-13.127198335019928,-0.20679211841233985,0.7974915980648508,0.0022521615153583497,-18.152842808906335,26.21450640271408,-44.79347797843852
1761285435.1629682,-13.598399500586803,-0.23032326882114273,0.8070929305402713,0.011301479971304821,-13.787445616260198,21.523736272365674,-41.69836131989855
1761285435.173214,-14.051442958513347,-0.25306468537073784,0.818452076994886,0.021758191779421582,-9.48822707088111,16.663388585211298,-38.5673590055382
1761285435.1829815,-14.482221575802352,-0.2725643186154396,0.8297702770989489,0.03270158710695218,-5.446450288766521,11.534743894519355,-35.4010620893691
1761285435.1929967,-14.885153645886303,-0.28652950960661444,0.8395423059075132,0.043182120204683774,-1.8099009064889642,6.100726777249817,-32.211463842876796
1761285435.2033975,-15.253846448689579,-0.29319412342114093,0.8466457766103436,0.05239145563356,1.3273329857120804,0.4047912105772053,-29.029642850873586
1761285435.2130878,-15.582026098257357,-0.2916076084501552,0.8503877316575238,0.05979908590890815,3.9266834955121466,-5.424497981591716,-25.90960156632903
1761285435.2230883,-15.864584857338272,-0.2818001228362922,0.850518593316758,0.06522844188425732,5.998928611507014,-11.18400615678012,-22.927517216169985
1761285435.2332258,-16.09857073097616,-0.2648044981787736,0.8472213946276422,0.06886010857653907,7.591699989375336,-16.61977698201383,-20.17645256038923
1761285435.2431214,-16.283953842578665,-0.24254139510210873,0.8410809023790716,0.07116358853092955,8.773289910443982,-21.459896800572707,-17.757343030689054
1761285435.2532332,-16.424044029513947,-0.21759309935197957,0.8330354198522033,0.07277164459177476,9.615797832199592,-25.45118321749352,-15.767639735631144
1761285435.263068,-16.525491255342548,-0.19290187602898648,0.8243126385161611,0.07432152577077164,10.180488057984244,-28.394264679764586,-14.289251579390342
1761285435.2730336,-16.59786106990796,-0.17143150963142345,0.8163480599176389,0.07629403235810894,10.507534923561773,-30.172320088303035,-13.377411264745763
1761285435.2830718,-16.65283193357165,-0.15582882764020622,0.8106808409175599,0.07888323570934457,10.61131495878503,-30.769966152484795,-13.051856144269118
1761285435.2929902,-16.70310514328701,-0.1481189963233328,0.8088209577834407,0.08192532292470314,10.481340610540904,-30.280204402192066,-13.291343779497549
1761285435.3029814,-16.761149193591816,-0.1494652809432082,0.812086930557972,0.0849041038918983,10.088056013914334,-28.89872637417061,-14.03209445447348
1761285435.312997,-16.837917483848912,-0.1600198316531131,0.8214249049267318,0.08703550146185134,9.392152755010878,-26.9061161323702,-15.170335694799366
1761285435.3229966,-16.941681660237915,-0.17888576948593496,0.8372333334940186,0.08741789871300389,8.355809342133703,-24.63961589395139,-16.568762445415516
1761285435.3329842,-17.077114213838975,-0.20420171821616587,0.8592271335233598,0.08522266311110036,6.954248627115095,-22.457195997670784,-18.06644419437843
1761285435.3430264,-17.244734402154357,-0.23334729012943256,0.8863763647420498,0.07989083992449741,5.186171822445832,-20.697661224879134,-19.49149549988512
1761285435.3529775,-17.440799989164248,-0.26325139930378494,0.9169445795107929,0.0712990668836236,3.081890175000947,-19.64125968209713,-20.675633968738982
1761285435.3630571,-17.657680810649403,-0.29076579208760384,0.9486323025519018,0.05986166396082172,0.7082585811590292,-19.475505087012742,-21.46953101024584
1761285435.3729916,-17.884688968013265,-0.31304909754098625,0.9788081164096908,0.0465461356247,-1.8302269845565684,-20.27052199091497,-21.75760391568056
1761285435.383001,-18.10927447324218,-0.32790122521375414,1.0047925455425566,0.032792875141074644,-4.394573999515089,-21.967172867657933,-21.470665635719506
1761285435.3930056,-18.31844353496544,-0.33400084956709175,1.0241537036140698,0.020343928647467646,-6.818842586665768,-24.37966330454513,-20.5947763012593
1761285435.4033716,-18.500236094369185,-0.33102646670216346,1.034977179116814,0.010999890324204429,-8.921948849879284,-27.212498855998685,-19.174861477156107
1761285435.41298,-18.645111369897336,-0.3196702756198443,1.0360804851574912,0.006338142544852751,-10.523134651456537,-30.089910848000734,-17.312212369688883
1761285435.422999,-18.74712076449075,-0.30156919760043344,1.0271496784994707,0.00743713986383946,-11.459956272858818,-32.594469645125685,-15.155770379530903
1761285435.433454,-18.804777528174736,-0.27917368635710654,1.0087814837606977,0.014655942477347594,-11.607035429851408,-34.31071312036851,-12.887951692737753
1761285435.443225,-18.821551748152306,-0.25556058437479223,0.9824218191767715,0.0275121569088307,-10.893279532998404,-34.86926008212148,-10.706520390153553
1761285435.4529912,-18.805931385136518,-0.23418549698054228,0.9502042821860267,0.044684552339949606,-9.314961796457526,-33.987023738383364,-8.804562280515825
1761285435.4630134,-18.771007594882363,-0.21857259518730204,0.914707942979334,0.06414301116021742,-6.94211476744467,-31.499696332361133,-7.350893820991272
1761285435.473401,-18.733575281826273,-0.21195417538413175,0.8786669865838916,0.08338508043065203,-3.916256859406488,-27.383466545671013,-6.4732329803069275
1761285435.483228,-18.712787564661735,-0.21689015252592533,0.8446717461953981,0.09974168292637489,-0.4385659064730828,-21.76381896849185,-6.246127661467692
1761285435.4929874,-18.728457734111352,-0.23491180893514815,0.8149015387543933,0.11070754316860563,3.250860206010941,-14.910307428266565,-6.68494409523536
1761285435.5030422,-18.79915634665203,-0.2662428263489345,0.7909247438885408,0.11425340615774413,6.9002865792689825,-7.217547558189365,-7.746206877604466
1761285435.5130038,-18.940297509206932,-0.3096523642125734,0.7735899706453289,0.10908382229692282,10.276259833679585,0.8257371800011502,-9.33349740552426
1761285435.5234768,-19.16243534479269,-0.36248357115086455,0.7630148123196362,0.09481284858669438,13.191392044621999,8.676395279700767,-11.30734476454489
1761285435.533849,-19.469982855756548,-0.42087227077657735,0.7586601152669159,0.07203837688972853,15.525390532020944,15.781294762420055,-13.497340708193883
1761285435.5434651,-19.86051378086845,-0.48013232679530926,0.7594642087553317,0.04230436303505077,17.23589063222334,21.622530926859817,-15.71500132946588
1761285435.553036,-20.3247260136028,-0.5352526966538024,0.7640075464028595,0.007951421528758539,18.357598020570677,25.759728246486095,-17.76637479180695
1761285435.5633354,-20.84705790749644,-0.5814378335923235,0.7706834255949322,-0.028129353598174617,18.990526449811878,27.86624138862447,-19.463794021800105
1761285435.5736327,-21.40687758270334,-0.6146266864087887,0.777860302695173,-0.06281023894726304,19.2801320473825,27.75657682380258,-20.63641860649724
1761285435.5829923,-21.98011715903477,-0.6319364379572626,0.7840302090244679,-0.09306948983034231,19.393343246004072,25.40292999938537,-21.13935185987051
1761285435.5929873,-22.541193817326857,-0.6319865330699596,0.7879426711055832,-0.11632022845375499,19.4946384960829,20.939405534986744,-20.861220560040735
1761285435.602987,-23.06504015632081,-0.6150652901270551,0.7887238746748891,-0.13068549977772764,19.7256180557365,14.653308652451583,-19.730184256456756
1761285435.6130178,-23.52905431381241,-0.5831119624462036,0.7859778555109913,-0.1351870625143083,20.190364760869556,6.963900513759471,-17.718382769773676
1761285435.6230314,-23.914779812199534,-0.5395085421176898,0.7798622538046293,-0.12982779692820687,20.94766216039194,-1.6098287805015927,-14.84481789989755
1761285435.6330042,-24.209146584161378,-0.48870661582507957,0.7711273730170284,-0.11556270581122162,22.010020483816966,-10.489656939497065,-11.17659269824439
1761285435.6429849,-24.405157336114623,-0.43574403653741967,0.7611051960717581,-0.09416797720742091,23.348501282130893,-19.083280814124823,-6.828309756116452
1761285435.652985,-24.501982130434133,-0.38572104164696713,0.7516361085003889,-0.06802825599026047,24.901595110215013,-26.83007025295233,-1.959287749600391
1761285435.6629975,-24.504506189077873,-0.343300874602297,0.7449268733136675,-0.03986836858875024,26.58604073783422,-33.243490953043846,3.2318712992593595
1761285435.6730027,-24.422436042876388,-0.31228199365319986,0.7433438345482953,-0.012458763269719288,28.307603975662456,-37.94687878976346,8.515888028309956
1761285435.6829886,-24.26909589711496,-0.29526853627767535,0.7491577847188303,0.011674756007354787,29.970403283628745,-40.70012715914903,13.64500401984201
1761285435.6929872,-24.06004467073908,-0.29345087502557,0.7642675049202422,0.030506587131053753,31.484132898983994,-41.415698463253065,18.36884972891438
1761285435.7030063,-23.811627726094937,-0.3065003897446703,0.7899348167083232,0.042703501735833135,32.76920681324935,-40.163049665123,22.45348741009316
1761285435.713004,-23.539558189126378,-0.3325787065730511,0.8265643559233679,0.04772873941808753,33.76023732665471,-37.16111507955582,25.702409284998605
1761285435.722989,-23.257608688713745,-0.3684582114776806,0.8735570230614631,0.04584154606148185,34.408314664422804,-32.7590264402925,27.977512976997627
1761285435.7330005,-22.976487990774267,-0.4097473478333681,0.9292588005300392,0.03798969411011095,34.68234736692108,-27.405848002854157,29.217459117825683
1761285435.7430003,-22.702976395606978,-0.4512122857101178,0.9910183978357776,0.025610833245750586,34.56945275326537,-21.61079259130104,29.450557943635108
1761285435.7530003,-22.43939307123029,-0.487185543664973,1.055359609991683,0.01037624235658521,34.07429401729775,-15.896194292007129,28.799608922665332
1761285435.7629948,-22.18346049710884,-0.5120498683525271,1.118266573633676,-0.006078487392133022,33.217470247490326,-10.746491938252062,27.47694709607282
1761285435.7732012,-21.928611052684406,-0.5207800486624382,1.175567921891706,-0.022391468331529017,32.03344310698898,-6.557572269192284,25.76914614676728
1761285435.783045,-21.664747844864916,-0.5095142570464459,1.2233846810826754,-0.037647675624348745,30.568689338564678,-3.5917990860217124,24.012099575532186
1761285435.793044,-21.37942770984701,-0.4761071721986106,1.2585791675340186,-0.051468992257545046,28.88050713220767,-1.9446122465991043,22.55833777608583
1761285435.803074,-21.05938031565372,-0.42059006204745847,1.279120786570499,-0.06401452883783341,27.036178048469534,-1.5284658935569901,21.739446930997694
1761285435.8130283,-20.69221642810728,-0.34543962210360535,1.2842860111539813,-0.07589091820777538,25.111366152814306,-2.0788193119703786,21.827475804417755
1761285435.8230217,-20.26812097129709,-0.2555591001672713,1.2746429956174925,-0.08798171534629175,23.186296319298897,-3.184555256835908,23.00021539630757
1761285435.8330104,-19.781292997889615,-0.1579168342761182,1.2518296743649346,-0.10122480418788599,21.338815102388864,-4.341461831773656,25.315789372689515
1761285435.842994,-19.23090912121212,-0.06085920244453169,1.2181955294444324,-0.11638851596999049,19.634826894251965,-5.022875157772138,28.701486482514998
1761285435.8529973,-18.62146035570089,0.026813178744869298,1.176413688286323,-0.13390239098917456,18.118195421990936,-4.757588395069888,32.95986757794252
1761285435.8629973,-17.96242706661599,0.09687328578895664,1.1291646960113715,-0.15377801553133758,16.803176479398104,-3.2030638963551885,37.79213088882317
1761285435.8730636,-17.267370402443593,0.1426585946523818,1.0789507213821834,-0.1756191237476697,15.672251183455959,-0.2024131221196043,42.83530126065977
1761285435.8830194,-16.552591822465118,0.1599009663380014,1.0280413822615515,-0.19868896142449438,14.680861245231222,4.1838637907521425,47.70707353796767
1761285435.8930311,-15.835536838824586,0.14729702630857114,0.9785059644137022,-0.22199355011605623,13.768503156154372,9.676625866492573,52.05093482737453
1761285435.9029932,-15.133116159078291,0.10674407566379449,0.9322676432350879,-0.24435496320005934,12.873654713867136,15.808323375492343,55.57472345298467
1761285435.9129965,-14.460110960709567,0.04319011007634018,0.8911239692467271,-0.2644770223184103,11.948781557544597,21.981373882197495,58.07763400565529
1761285435.923383,-13.827824535470345,-0.035916893878713864,0.8567043325980983,-0.28102704690894886,10.971622609367751,27.54714997110344,59.46318135331491
1761285435.9332347,-13.243128983811308,-0.1215366456185372,0.83036671379962,-0.2927569262209918,9.950083177585425,31.894413650801994,59.73818015958739
1761285435.9429963,-12.70801954966635,-0.20418547763461492,0.8130618260551113,-0.29866608353480417,8.919951741237215,34.5337457178664,58.99991715219841
1761285435.9530349,-12.219725838385145,-0.27514906284209395,0.8052056150018416,-0.298182108310162,7.9366204990347615,35.16446433825805,57.4151054445993
1761285435.9630013,-11.771347086349454,-0.3275540384361842,0.8065986883437412,-0.2913169048481923,7.063373956727147,33.71314543798506,55.194801173753525
1761285435.9730372,-11.35289759430617,-0.35711509451857465,0.8164163668466183,-0.27875419520759787,6.359243779447742,30.337833893805193,52.56925803545267
1761285435.9831035,-10.952590558706339,-0.36244293659330296,0.8332732557990099,-0.2618371376311553,5.868950855500847,25.39835794247617,49.76584931891791
1761285435.9930403,-10.558167750538178,-0.344896049882558,0.8553500587658548,-0.2424472218678696,5.616440550710919,19.399369108378483,46.991971807943344
1761285436.0030165,-10.158099424201453,-0.30805445914874313,0.8805614264597561,-0.22279016616233532,5.602426551170734,12.917343534377649,44.42357238997295
1761285436.013028,-9.74252338748894,-0.2569568742928435,0.9067407174363442,-0.2051240795634607,5.805506635170959,6.524795129637562,42.19885826779441
1761285436.0230062,-9.303850597708529,-0.19726106247436231,0.9318190917606834,-0.1914755384500933,6.18591450114454,0.7241170642380927,40.416026118135484
1761285436.0329976,-8.837025973576672,-0.13446980391479083,0.9539814625405433,-0.18339047962405136,6.690816965716663,-4.099731569146005,39.133561407092465
1761285436.043047,-8.339489507018854,-0.07332831399589484,0.9717885275922272,-0.1817600110081267,7.260179977558424,-7.703035283126376,38.37182338617932
1761285436.0529997,-7.810926146598771,-0.017454603034619397,0.9842599351539267,-0.18674647988201143,7.832487707614012,-9.983720595460897,38.115135755424916
1761285436.0630236,-7.252914845514291,0.030782635189791484,0.9909172966282668,-0.19781443008534627,8.349875766050113,-10.962425216654506,38.31423331773447
1761285436.0730295,-6.668582334834065,0.07016765038280295,0.9917874087770086,-0.21385037375549487,8.762441598414162,-10.750943998081095,38.88943675322453
1761285436.0830393,-6.062336415177552,0.10038571264527486,0.987366814915077,-0.233341041147575,9.031595555001065,-9.51574729697936,39.73517780741795
1761285436.0930276,-5.4397055104561725,0.12169707219490374,0.9785500054988351,-0.2545747439589759,9.132343166556014,-7.443680557072905,40.72642171544589
1761285436.1030173,-4.807261654550124,0.1346179011976211,0.9665257640328415,-0.27583375434213414,9.054395781950209,-4.715150463134056,41.72718562088625
1761285436.1130111,-4.172569559590794,0.13967172464020317,0.9526492160502158,-0.29555449921471094,8.802040342185997,-1.4876337068889947,42.6008606525457
1761285436.1230376,-3.5440939476849405,0.13724736683996996,0.9383004046511687,-0.3124435697443977,8.392781948958863,2.1101976789731576,43.221558020697366
1761285436.133011,-2.9310092340059968,0.12757123960333355,0.9247429493337922,-0.3255475807952444,7.854893566956081,5.97554637336763,43.48532851418411
1761285436.1431243,-2.3428808452556744,0.11077940498021703,0.9129978332398238,-0.33428136273446657,7.2241266148615555,10.022906847467548,43.31992069655339
1761285436.1529987,-1.7892155190071088,0.08706049849038197,0.9037470603698213,-0.3384216071692646,6.539909054452498,14.173449696881214,42.69179051071758
1761285436.1640549,-1.2789026532756993,0.056832556745649514,0.897279611047627,-0.3380735178076828,5.841361202881087,18.34568363883741,41.60936924713551
1761285436.1732016,-0.8195895468419091,0.02091199457157383,0.8934879049742311,-0.33361803502543363,5.163416233053713,22.449818827275024,40.12209689109469
1761285436.1830797,-0.41705135415809524,-0.019369057904206136,0.891917095789625,-0.325647844589331,4.533302693131993,26.387023034135964,38.3153186233602
1761285436.193014,-0.07463094132464948,-0.06213720445696295,0.8918624670904945,-0.31490197945460524,3.9676866709423035,30.0534247996734,36.30166571034482
1761285436.2030125,0.207168653630553,-0.10507081771413036,0.8925032457749444,-0.30221065750412873,3.4708807127186656,33.34750004520206,34.20988755403626
1761285436.2130075,0.4308614469411214,-0.1456123328272565,0.8930563355472755,-0.28846155003336854,3.0346148918893996,36.178561220864076,32.17228425176151
1761285436.2230039,0.6018726113103784,-0.1812633588641286,0.8929322172266247,-0.2745925551771032,2.6397831583726177,38.473645234181745,30.312005323900316
1761285436.232998,0.7281441194237553,-0.2098909364164625,0.8918763499865241,-0.26160380373659403,2.260232864775692,40.18042532290745,28.73156575692622
1761285436.2430072,0.8195060079751857,-0.22996148252655438,0.8900794535861544,-0.25056861900707866,1.8681300489423087,41.26499732823787,27.503888320170933
1761285436.2530048,0.8869153682061689,-0.2406442951359959,0.8882376436057489,-0.24261824341789726,1.4399250937805192,41.70527093674261,26.666868704582043
1761285436.2630022,0.9416787840580338,-0.2417797097971022,0.8875420337427706,-0.23888217532628736,0.961696129825035,41.48256974794732,26.221838794512543
1761285436.2730048,0.9947461912407386,-0.23375985012768113,0.8895826140811102,-0.24038046757590437,0.4327763605020531,40.57511026171596,26.135520358184234
1761285436.2830086,1.0561102958537818,-0.21739417436092237,0.8961651128712756,-0.247879091174856,-0.13299542533813347,38.956754636514,26.34439942935848
1761285436.293607,1.1342946579850115,-0.19381746222701327,0.9090589670824315,-0.2617306196854092,-0.7085372446612943,36.60284157308948,26.76017234011647
1761285436.3034232,1.2358904526763723,-0.1644569572776452,0.9297129365429588,-0.28172913745291067,-1.257026721410085,33.50258702865937,27.275102869705933
1761285436.3130443,1.36511471960061,-0.13103289140084828,0.958985928042209,-0.307008877830637,-1.7371568583417112,29.675367022115587,27.766653149913495
1761285436.323076,1.523401024323364,-0.09554329293961897,0.9969404972754439,-0.3360088358330094,-2.10957714543433,25.18685277081609,28.10135314135462
1761285436.333018,1.7090758318884733,-0.06018648857036215,1.042734628548066,-0.3665124079083238,-2.3439005459527693,20.160771412032393,28.138328387963575
1761285436.3430362,1.9171992195804373,-0.027197392286688833,1.0946267691829654,-0.3957584793789273,-2.425577411318799,14.782945463680582,27.733107911443096
1761285436.3530505,2.1396438822973196,0.0013937509699771115,1.1500872683769048,-0.42061451091240454,-2.3618587314700363,9.295914822662915,26.74228782059998
1761285436.363042,2.365452278832023,0.024039237705594657,1.2059956063063315,-0.4378041448840706,-2.186056341770394,3.9844199667018794,25.029388152082316
1761285436.373047,2.5814606983370347,0.039925337503892475,1.2589011911556174,-0.44418726403400227,-1.959375534524098,-0.8461734581118406,22.4718816581008
1761285436.3830395,2.7731277325309525,0.0491299367674769,1.3053309553105135,-0.437091897011064,-1.769712233316965,-4.895224698614499,18.968973868394706
1761285436.3930256,2.9254670566805943,0.05263429133635231,1.342129009090704,-0.4146874051147365,-1.726971431670222,-7.892300890866619,14.449375065907509
1761285436.4031692,3.023969007186389,0.05216695600506705,1.3668048640892998,-0.37636375263103583,-1.954767249450719,-9.619628584907304,8.878151458445355
1761285436.413094,3.055404521250146,0.049895287711908334,1.377849079014729,-0.3230487887392521,-2.578911223450076,-9.929358904727756,2.2618649359324197
1761285436.423055,3.0084344291525005,0.04801522290915665,1.3749584086980644,-0.2573714376984819,-3.7138493093483396,-8.754597535745214,-5.348439509393587
1761285436.4330761,2.873987938651784,0.04831455855162159,1.3591086656308897,-0.1835826062096636,-5.448942705689138,-6.1140561218975344,-13.8564550465753
1761285436.443059,2.645416642176841,0.05179416398711896,1.3324319298275886,-0.10718508755087885,-7.836882610791758,-2.110826119943168,-23.12187075952481
1761285436.453034,2.318466988985788,0.05842539631896362,1.297897278535128,-0.03428928319090503,-10.886341757222414,3.0737836957370157,-32.963477885380684
1761285436.4630404,1.8911397852057212,0.06710133429238707,1.2588495971528286,0.029216146631904007,-14.560174387941995,9.19015153588157,-43.164080305325164
1761285436.4751585,1.363515564875189,0.07580566034360917,1.2185061405377724,0.07853016770146284,-18.779305123840327,15.932804340785392,-53.47739671738696
1761285436.4830313,0.7376154391665135,0.08198078313913858,1.179522816705903,0.11066446253800262,-23.431245047303783,22.954603709719375,-63.63736231358517
1761285436.4930725,0.01733681283154352,0.08303370719444063,1.1437155467388878,0.12486674444161615,-28.38126884781822,29.882446235593182,-73.37026636127169
1761285436.5030398,-0.7915418467111709,0.0768828472888222,1.111970901397948,0.12264524006931495,-33.483921317597,36.33493054862864,-82.40982655291795
1761285436.513044,-1.6813382086663322,0.06243076617263688,1.0843280888238342,0.10739199961541088,-38.59278570206943,41.94283424118145,-90.51458921687687
1761285436.5230598,-2.642504365349856,0.039854071843335705,1.0601796467603857,0.08369871326991624,-43.56721202329227,46.37304903637399,-97.48613133370627
1761285436.533105,-3.663807235778061,0.010633732939641968,1.0385271781521286,0.05652749089052066,-48.275690478796534,49.35562539408823,-103.18574152865698
1761285436.543016,-4.732709131310139,-0.022697340533328822,1.0182366711163588,0.03042113348390145,-52.59647487798447,50.71184158114211,-107.54692247488998
1761285436.5530286,-5.835964750705385,-0.05704562847943373,0.998256291310399,0.00890693740568498,-56.41666439768685,50.37921228388878,-110.58136342907194
1761285436.5630589,-6.960397939445695,-0.08937898325193254,0.9777793417181543,-0.005822313431603385,-59.63106712654223,48.42790636032012,-112.37689245414816
1761285436.5730379,-8.09376860902245,-0.11733206040255195,0.9563493706617322,-0.0129482197200459,-62.14182513241085,45.06300709158209,-113.0871167155866
1761285436.5830214,-9.225602407793735,-0.1396517585933857,0.9339100963909663,-0.012848816159465646,-63.85923693272914,40.60889153013742,-112.9137780338109
1761285436.5930455,-10.347846808331491,-0.15638528183847855,0.9108030533395236,-0.006793398745304764,-64.70377092271119,35.4754947450393,-112.08406804384948
1761285436.6030228,-11.455241954448432,-0.16878457824935048,0.8877164530997113,0.003402327124722817,-64.60905664300465,30.11037139766468,-110.82601349907287
1761285436.6130314,-12.54534557131895,-0.17897217753244074,0.8655917293377136,0.01569750304170171,-63.52562275183736,24.94387104960438,-109.34533006250045
1761285436.6232467,-13.618212998008545,-0.18946250844969392,0.8454974846713182,0.028092361018744693,-61.42520905577599,20.336282836410312,-107.80675943462069
1761285436.633058,-14.675789450964468,-0.2026486881055967,0.8284826692915067,0.03883434478674063,-58.30550504438618,16.53518828984189,-106.32196092795374
1761285436.6430302,-15.721110261144977,-0.22035097388514874,0.8154228582432766,0.04657091915203023,-54.195074419081045,13.648969702476123,-104.94478305296646
1761285436.6530292,-16.757421384386717,-0.2434924275714274,0.8068761589045143,0.0504536924993032,-49.1579994027018,11.639262350759527,-103.67348200063638
1761285436.663023,-17.787328204104135,-0.271933403527869,0.8029671775916296,0.050190883130758465,-43.29748846625332,10.331921017308687,-102.45842366468408
1761285436.6730344,-18.812060383435522,-0.3044677151832816,0.8033167450991989,0.046041576874963,-36.75743374226478,9.443461899112002,-101.21316476827259
1761285436.6830282,-19.83091120604841,-0.338962980284547,0.8070310401795958,0.03874916650917633,-29.720772212768207,8.618330932601166,-99.82662539613803
1761285436.6930733,-20.840878969411825,-0.3726152171743749,0.812756279784265,0.02942082352695624,-22.403610797703834,7.471776908242275,-98.17432896318819
1761285436.7030149,-21.836511632376045,-0.40228031277581305,0.8187948596814484,0.019370465046982924,-15.044531269649715,5.633337304597866,-96.12732172044169
1761285436.7130466,-22.80993777670426,-0.42484062378813103,0.8232688544234115,0.009949275212102844,-7.889282087060819,2.7866404744709574,-93.5582529958771
1761285436.7234805,-23.751058850844117,-0.4375654884443687,0.824311507244728,0.0023873502162220232,-1.1719786666877567,-1.2978884975441267,-90.34500548955569
1761285436.7332273,-24.647879595971848,-0.43843099293739524,0.8202670304376519,-0.0023353648795118773,4.905304146801882,-6.739880839248865,-86.37301141033296
1761285436.7430534,-25.486962811756776,-0.4263732054618726,0.8098794806913269,-0.0035769841432980254,10.192208615472405,-13.536855083092986,-81.53781699085134
1761285436.7534704,-26.254005758300675,-0.40145581278208425,0.7924508838878391,-0.0010753385945525247,14.606593350124644,-21.56327031184879,-75.74946697444852
1761285436.763088,-26.934541732968963,-0.3649376786762688,0.7679500081047026,0.005053932392623715,18.145648288481826,-30.579825516304183,-68.93985515704107
1761285436.7737195,-27.514766114057238,-0.3192304225253679,0.7370577336824253,0.014354409773454117,20.889924930865515,-40.25096350681536,-61.07340348357647
1761285436.7830455,-27.982469257420572,-0.26774114251067527,0.7011408807412718,0.02609239003194122,22.999205372802003,-50.16785021642839,-52.16042032248232
1761285436.7930944,-28.328031005765144,-0.21460116474163476,0.6621529889618719,0.03934251367116622,24.699792699580257,-59.87393710764298,-42.27141393431994
1761285436.8031707,-28.545398953280696,-0.16429149903040616,0.6224702951872373,0.053094493064865064,26.26355254965937,-68.89058426562904,-31.549725257445086
1761285436.8134146,-28.632943568635746,-0.1211937295099718,0.5846852598096739,0.0663765359304548,27.97997950268852,-76.74103240435505,-20.21932881288548
1761285436.8230443,-28.59406687811882,-0.08911901999477881,0.5513946112341542,0.07838167375157165,30.12371108143927,-82.97211164980652,-8.584691610338366
1761285436.8330517,-28.43744411707737,-0.07088604262090945,0.5250254738847896,0.08857574824904314,32.92103664690626,-87.17420099905387,2.9797333949462157
1761285436.8430388,-28.176801738281693,-0.06801878845670191,0.5077340569823842,0.0967663790281691,36.519624999067005,-89.00075449203199,14.051452494665346
1761285436.8530385,-27.830178869162413,-0.0806158298882362,0.5013869756782662,0.10311832707234964,40.96558628204079,-88.18890392986609,24.19250597640631
1761285436.8630326,-27.418678825148227,-0.10741167620090158,0.507604720424331,0.10810719594440393,46.1910775482746,-84.5821049568264,32.98976193474542
1761285436.8731995,-26.964786648056403,-0.14601635680846878,0.5278211757485062,0.11240990505125192,52.01421953490107,-78.15453673942487,40.098089348295034
1761285436.8830726,-26.4903991679783,-0.19328474914359595,0.5632995523494274,0.11673873818724327,58.151471507076735,-69.03518392731253,45.28018609980234
1761285436.893052,-26.014774020128385,-0.2457354262993934,0.6150471147734167,0.12163643805780024,64.24114331009221,-57.527605773215136,48.436394570348135
1761285436.903036,-25.552640358647665,-0.2999182568507123,0.6835905708434803,0.12726276205858464,69.87559086616889,-44.11989243800183,49.618732352550744
1761285436.913051,-25.112717246394965,-0.352635080971972,0.7686106742404818,0.1332175338621248,74.63878459883931,-29.478838766831064,49.025736147512596
1761285436.9230394,-24.69685400482947,-0.40096058870273005,0.8684843057418319,0.1384554852334408,78.14524560681718,-14.423360506361062,46.97823046644806
1761285436.9330678,-24.299944352864458,-0.44208624251469747,0.9798369071412547,0.14134086166055873,80.07598100958842,0.1253289094630875,43.88002755467289
1761285436.9430408,-23.910678548687862,-0.4730907749712948,1.0972558507846213,0.1398540841665079,80.20748414240873,13.215684419429603,40.17079545442798
1761285436.9530344,-23.513091763391973,-0.49078981051468407,1.2133390477829529,0.131906375599135,78.43139347399187,23.954914348774597,36.27982505966684
1761285436.9630356,-23.088755042418512,-0.49181381916011635,1.3192304016071832,0.11567188984618186,74.76461234130078,31.6065682860167,32.588565563518735
1761285436.9730985,-22.619356153056124,-0.4730097340577247,1.4057035583546051,0.08984551678003892,69.35142562017897,35.68498305662929,29.406812456523316
1761285436.9830408,-22.089348398125612,-0.43216392629659117,1.464690735285769,0.05378709509969986,62.459195824049274,36.03243856561942,26.963301974979064
1761285436.9930599,-21.488313292152156,-0.3689068895122967,1.4909414241317125,0.00758782171030044,54.46731036639965,32.86345385956745,25.40749403493683
1761285437.003117,-20.81268738344829,-0.2855126873892185,1.4833234851774006,-0.04786469369458172,45.84648488271118,26.76208699563473,24.816843106448598
1761285437.0140471,-20.06654854121333,-0.18723160660825633,1.445278051243154,-0.11078390396835025,37.124696079895514,18.624550408865993,25.203914083512093
1761285437.023808,-19.261261628156163,-0.0818868102597935,1.3841833224843338,-0.17840356549088157,28.838649251587366,9.551075099034113,26.520404966474327
1761285437.0330594,-18.413971253304286,0.02126859817469247,1.309781192683255,-0.24704895192154347,21.475156810679536,0.7041676896371694,28.65911262821217
1761285437.0430934,-17.545187542986607,0.11312756990540739,1.2321617040890793,-0.3124568255657568,15.412359661729502,-6.840532142350088,31.457802851413884
1761285437.0530818,-16.67595330674958,0.18625806109123036,1.159908401029645,-0.37032263256902015,10.873380605675568,-12.22356136962965,34.70911493180123
1761285437.0630744,-15.825183772885378,0.23595865462119547,1.098862185807529,-0.4169396837490274,7.903263530776436,-14.890545526852984,38.17813579891794
1761285437.0733387,-15.00767496990196,0.26063644344546577,1.0516833227529936,-0.4497518928367238,6.374498774872521,-14.630979386454035,41.62575285504668
1761285437.0830705,-14.233044307682235,0.261552299424916,1.018135192802444,-0.4676741853285311,6.0192617687522905,-11.567985862286633,44.83326124647277
1761285437.0930595,-13.505614609308198,0.2421433931623101,0.9958602331555124,-0.47111374022330166,6.4803091393732,-6.108064251249188,47.62306905553757
1761285437.1030588,-12.825065273871399,0.20717748469755562,0.9813660270925988,-0.4617161056255938,7.369094426712565,1.1362853016695988,49.87165623212781
1761285437.1130595,-12.187577751146023,0.16194281763704024,0.9709639111515566,-0.44193422625228546,8.319647540609225,9.43769938036959,51.51330167230126
1761285437.1230998,-11.587189280831499,0.11158247999581271,0.9614841581053092,-0.41455529922908374,9.029603977854858,18.04688604287029,52.535415266597525
1761285437.1330585,-11.017116971969982,0.06059550434120215,0.950697568200449,-0.38231028839612924,9.284228479307727,26.277295641439462,52.96787810504864
1761285437.1430433,-10.470894290204479,0.012482209679563075,0.9374610897379637,-0.3476396265885655,8.963762121276105,33.5733384997318,52.869396690110484
1761285437.1530554,-9.943243338402464,-0.03048976426066621,0.9216517652610903,-0.3126196580552214,8.037551510819938,39.55597536719001,52.313680401009144
1761285437.1630874,-9.430666583050083,-0.06740113980085499,0.9039627947429325,-0.27899879575861536,6.5495882751155206,44.04199164160594,51.377602812158614
1761285437.1730955,-8.931772732329803,-0.09866241413903784,0.8856246113277055,-0.24827070322784867,4.599633612145784,47.03629359335383,50.13276101421621
1761285437.1830533,-8.447358243273964,-0.12584351441727804,0.8680982604753028,-0.22172383681463065,2.322927714472579,48.69988923246647,48.64119927131396
1761285437.1930802,-7.980260057036019,-0.1513498315401775,0.8527771562067613,-0.2004367550492172,-0.12956242726989547,49.29936235359564,46.955490006877795
1761285437.2032664,-7.534988349293553,-0.17796686572800682,0.8407285721656885,-0.18521902296523474,-2.60894376972918,49.14606592125666,45.122734050180746
1761285437.2130673,-7.117148525898675,-0.20831949044262554,0.832504934932341,-0.176518263861215,-4.982988544469875,48.534525519288714,43.19131261953512
1761285437.2230453,-6.732673355686173,-0.24431148228840213,0.8280516094750962,-0.1743234191626055,-7.1463813293635585,47.68944919966975,41.21854157425005
1761285437.233083,-6.386909100393699,-0.286624964944371,0.8267277930799047,-0.1780952022602573,-9.025871478826778,46.729270538634836,39.2769838627854
1761285437.2430708,-6.083630116757977,-0.3343640817699157,0.827439915526619,-0.18675020072283952,-10.580295569835265,45.65147695895306,37.45724131957123
1761285437.2530446,-5.824087926846367,-0.3849183701668318,0.8288667058689413,-0.19871744037414327,-11.796304565270319,44.34148995571455,35.86559598605838
1761285437.2630444,-5.606225575099971,-0.4340992879517725,0.8297373764534813,-0.21207671473532955,-12.681343777317611,42.60313047971913,34.61579528308275
1761285437.27309,-5.424199628156739,-0.4765711179253641,0.8291135903377002,-0.22477652986425806,-13.25572197550949,40.20528213996235,33.81539901797654
1761285437.283059,-5.2683437357433744,-0.5065529518803737,0.8266251363245581,-0.23491475009217697,-13.545387615221635,36.93669554099221,33.54825935982277
1761285437.2930448,-5.125671425961694,-0.5187078099868817,0.822619446659738,-0.24104602418977214,-13.57645215394729,32.65932469956216,33.85574417228615
1761285437.303081,-4.980947358320999,-0.5090702677178855,0.81820273625651,-0.24246038610856688,-13.3718627522508,27.35055459435775,34.72007250744206
1761285437.313269,-4.818261400507911,-0.4758270959334434,0.8151683038355524,-0.23936660003983237,-12.950217154189533,21.12652517625938,36.053375232458386
1761285437.323186,-4.6229353097610275,-0.41978340663016805,0.8158194101967448,-0.2329217233451895,-12.326627964092882,14.24243539325201,37.695585479148974
1761285437.333073,-4.383500903922468,-0.34441725499140735,0.8227005971323227,-0.22507705440378548,-11.515601876422645,7.070432558105757,39.42291942948827
1761285437.3430963,-4.0934381638028485,-0.25551910386495646,0.8382584692453908,-0.21825166722590447,-10.535778222783483,0.06005491465040518,40.96673704262792
1761285437.3531535,-3.7523750179464495,-0.16049376981791358,0.8644654798695927,-0.21488391439623072,-9.415911317185055,-6.311122729233788,42.04046428990511
1761285437.3630595,-3.3665331834109367,-0.06745029217547235,0.9024553764691783,-0.21693714793777433,-8.200865598918366,-11.588499606698583,42.370601158635715
1761285437.3731158,-2.948335355844503,0.015781177803296707,0.9522289960817731,-0.22544518206349348,-6.955979505154057,-15.38627020841197,41.72707827873454
1761285437.3830526,-2.5152315846097664,0.08257512353583799,1.0124882807219637,-0.24017878753371785,-5.76817785861326,-17.42342115996707,39.94849511457721
1761285437.3930612,-2.0879251142041912,0.12826760280333704,1.0806428608433394,-0.259500866110909,-4.742679509717139,-17.547520676132645,36.958875350900826
1761285437.4030604,-1.6882623605295666,0.1506554482971864,1.1530074292059038,-0.2804570465986583,-3.9949265464064343,-15.745613936120066,32.774110082506624
1761285437.4130616,-1.3370888509701138,0.15017452873353068,1.2251721280917685,-0.29911974171082356,-3.6382881557318103,-12.142529738104722,27.49784335851109
1761285437.4231305,-1.0523587659838796,0.1297275621158928,1.2924905600475338,-0.31116410280615264,-3.768997959469261,-6.987466727187443,21.307962024188754
1761285437.4331248,-0.8477244995518196,0.09417911452259313,1.350603239725265,-0.31260279225388743,-4.450499965549437,-0.6303042074588531,14.435995796208235
1761285437.4430923,-0.7317392164322316,0.04959289818332369,1.3959074550023358,-0.3005528219768,-5.699766906591014,6.510060838441464,7.142561788479266
1761285437.4531345,-0.7077001460777198,0.0023383310526815166,1.42589745730752,-0.27387317271442324,-7.478157936542953,13.982033223079888,-0.3075883804352637
1761285437.4631402,-0.7740625242295894,-0.04177986015424718,1.4393256756246937,-0.2335163350064651,-9.689018108529654,21.338218099464573,-7.667440235652976
1761285437.4733565,-0.9252784541516188,-0.07822342876087347,1.4361719396074615,-0.18248597867446212,-12.18350097835227,28.168734289886277,-14.723660588280898
1761285437.4830909,-1.1528720280185334,-0.10414961881413222,1.417450299202596,-0.12537894263515797,-14.774964205417254,34.12756771544148,-21.304958488688744
1761285437.4930768,-1.4465581271961232,-0.11852734477130197,1.3849215733069076,-0.06759553207215517,-17.260718384515723,38.95012133007634,-27.282882932206153
1761285437.503075,-1.7952466304580812,-0.12196859566086254,1.3407964594138027,-0.014397042767362603,-19.44812632108905,42.461856411387814,-32.566912597556176
1761285437.5131314,-2.1878350773883364,-0.11635284315215014,1.2874988523490127,0.029966626294477713,-21.180633170710994,44.57916079003523,-37.09705781727627
1761285437.5230896,-2.6137617537370064,-0.10434155130001792,1.22752158084741,0.06286635115711404,-22.358906650395106,45.303954599773704,-40.83747666123112
1761285437.533086,-3.063348628693241,-0.08887489738301103,1.163367218168995,0.08353471436061152,-22.953127618155214,44.71332049780357,-43.773662365756095
1761285437.5430772,-3.5279985050422775,-0.0727276266603409,1.097539075976358,0.09293557221049448,-23.004297807446605,42.945257707182385,-45.91402927446819
1761285437.5531495,-4.000320946427849,-0.058182778316171066,1.032536475186553,0.09333984084876551,-22.61465565008361,40.18189700068713,-47.29490329919751
1761285437.5630841,-4.4742499084679,-0.04685837117272864,0.970813947521479,0.0877290795225399,-21.929351369452235,36.63196426329418,-47.98655994068636
1761285437.5730786,-4.945187749353644,-0.039690061745792864,0.9146830692296976,0.07916001560985622,-21.112973258763915,32.51441135252293,-48.097341648895906
1761285437.58308,-5.41017329186257,-0.03703784452670108,0.8661612125987309,0.07021137762879155,-20.325061417834483,28.04468193535797,-47.773141572477954
1761285437.5930758,-5.868036759485329,-0.03886002804409243,0.8267955125070001,0.062604455555623,-19.698371279382854,23.424281929388084,-47.190606957897394
1761285437.6030893,-6.3194831826433635,-0.04489333800913069,0.7975059895453837,0.05704530718622948,-19.322589870804983,18.83361937613201,-46.54401274293333
1761285437.6131144,-6.767045583993172,-0.05479367318150328,0.7784934495034525,0.05328924404799027,-19.23486971683028,14.427710222274113,-46.027414806551654
1761285437.623458,-7.214869737153808,-0.0682181333326259,0.7692432286899414,0.05038814761851358,-19.41735205719591,10.33422911267426,-45.8149201453228
1761285437.633221,-7.6683265627313215,-0.0848539712940985,0.7686296914324917,0.04705373637535558,-19.80105253494192,6.653284819252417,-46.042394707423455
1761285437.6431167,-8.133485951366922,-0.10441598464176786,0.7750988556103485,0.04205572050929283,-20.275070536492724,3.4581081994641507,-46.793630742279724
1761285437.6531758,-8.616516582269774,-0.1266368496369247,0.7868879739632342,0.03457283810226945,-20.699881464239763,0.7956588697122798,-48.09308879276949
1761285437.663102,-9.12309173833915,-0.15126551290459112,0.8022369158275958,0.024427626090215548,-20.923304751745903,-1.3138168789711704,-49.906079724720804
1761285437.673203,-9.657876941309258,-0.17807201531730255,0.8195561143252779,0.012161902529928444,-20.79755826947312,-2.878860672306787,-52.145945200126036
1761285437.6830869,-10.22415357479095,-0.20684241276853624,0.8375341517326144,-0.0010544550135114003,-20.195694867158814,-3.940345023067201,-54.68670499826803
1761285437.693099,-10.82360200060912,-0.23734478515852803,0.8551861617907178,-0.013651649643756236,-19.025793711635092,-4.5753909033801365,-57.3789671722338
1761285437.7030706,-11.456238676296042,-0.2692594899487016,0.8718537332391904,-0.023966522156661552,-17.241595237332465,-4.899782272329318,-60.06670219920323
1761285437.713214,-12.120481642423243,-0.30208572740025275,0.8871662664076805,-0.03055673853313015,-14.848744688499089,-5.066703591967157,-62.60268745232217
1761285437.7231002,-12.813308792986358,-0.33505027614135674,0.9009702464907764,-0.03245808019581108,-11.906286711079817,-5.260023975330598,-64.8608914011018
1761285437.7330937,-13.530471234303084,-0.3670472218927054,0.9132347659880496,-0.029340807985074015,-8.523400438447116,-5.681405077469922,-66.74465745894783
1761285437.7431085,-14.266727057188263,-0.39663155945050654,0.9239485177835376,-0.021547556904334565,-4.851576871867524,-6.531931982737207,-68.19017265292469
1761285437.7531323,-15.016066968739747,-0.4220786146244023,0.93302880967798,-0.010019422332021535,-1.0726415442942434,-7.990343817159987,-69.16529880478528
1761285437.7631068,-15.771910748874962,-0.44150716128038275,0.9402619533604726,0.0038662317939050454,2.6166637424843255,-10.190896112012963,-69.66435956603387
1761285437.7731285,-16.52726132757875,-0.45304869147423366,0.9452866485535316,0.018514018741465743,6.022410113694419,-13.204178666499049,-69.69990030326557
1761285437.783202,-17.27481173976343,-0.4550346244148416,0.9476214532910504,0.032349452899012546,8.971988323212727,-17.02378029625021,-69.29276081995931
1761285437.7931125,-18.007010753789697,-0.44617567123333535,0.9467286546346025,0.04404207089044727,11.331612004396243,-21.560681794073506,-68.46199660653728
1761285437.8030934,-18.716106399710753,-0.42572351579206547,0.9421016717983376,0.052677483720100914,13.021029047215066,-26.645993531540103,-67.21621459740446
1761285437.813138,-19.394200755001705,-0.39362134636585394,0.9333601022543659,0.05785108712670914,14.023868511939845,-32.04151544685515,-65.54771957469384
1761285437.8232183,-20.03335818572011,-0.35065046967442726,0.9203346628240568,0.059672310929162656,14.392420570908874,-37.4568710217019,-63.43048203964521
1761285437.8331363,-20.625805746629574,-0.29856171142127846,0.9031251629256024,0.05868694615105829,14.246126020108221,-42.57171762959747,-60.82237178840478
1761285437.8430998,-21.164245261753532,-0.24015368499778003,0.8821196575900239,0.055739592129230686,13.763601779795835,-47.061560662280264,-57.671451089239106
1761285437.85315,-21.642264884972136,-0.1792414379179083,0.8579705803760701,0.05180607869895117,13.168581170783321,-50.62564362993673,-53.92551415049273
1761285437.8630855,-22.05480278914098,-0.12046173576900467,0.8315311265704671,0.04782671192020574,12.710653969301182,-53.014989803175254,-49.543600627551136
1761285437.8731046,-22.398589193902083,-0.06889152383576068,0.8037616126138419,0.0445662267123737,12.64217128552618,-54.05796362780443,-44.507959950494026
1761285437.8832002,-22.672485646033785,-0.02950806101030042,0.7756224154009865,0.042517901011835633,13.193182440931478,-53.68002950722382,-38.83491848760355
1761285437.893089,-22.877655731141243,-0.006573293824928671,0.7479770495425354,0.04186038834774097,14.546789048403426,-51.9141614014731,-32.583269701738324
1761285437.9030902,-23.01753327180153,-0.003057242065958637,0.7215317876861435,0.04246822853800877,16.81771031442202,-48.89896271736904,-25.859065569431944
1761285437.913455,-23.097590561925845,-0.020212593705374197,0.6968334463877015,0.04397108251963504,20.036922234883253,-44.863129405087236,-18.815927289506167
1761285437.9230993,-23.12493904950115,-0.05738020108248816,0.6743355654472628,0.04585188903626817,24.144752332226386,-40.0972516991793,-11.650218607560708
1761285437.9331384,-23.107812511289843,-0.11205800413739374,0.6545281580576071,0.04756918231882227,28.99374507515545,-34.91659782200842,-4.590753183091795
1761285437.943093,-23.05498877272088,-0.18021878902479016,0.6381094387901903,0.048683125826849534,34.361154537429286,-29.620780110857865,2.1167414431488463
1761285437.9530847,-22.975204602210617,-0.2568234963282181,0.6261613771339714,0.04895931180795888,39.96943683287801,-24.457446615434478,8.229378200284337
1761285437.9630823,-22.876613495120868,-0.3364485313008679,0.6202776201932008,0.04842130602333295,45.51200299708654,-19.596937300814353,13.529133815759034
1761285437.9731894,-22.766328751206753,-0.41392740687321766,0.6225863700805135,0.04732591423363588,50.68099253427723,-15.123080105111477,17.844423850254135
1761285437.9831393,-22.650083095285368,-0.4849008098398891,0.6356174240277207,0.046049049090642905,55.19391701005596,-11.042332486112276,21.06818784739164
1761285437.9930804,-22.532019697086554,-0.5461788388783294,0.6619860865856807,0.04489699063521427,58.81649512469588,-7.310025102951413,23.169719916184707
1761285438.0030906,-22.414609539407795,-0.5958481124106711,0.7039057533562181,0.04389143963207758,61.379620488093686,-3.869216232337434,24.198345640212885
1761285438.0130923,-22.298672422786726,-0.6331044296468102,0.7625873804698645,0.042602362518539105,62.789029209030296,-0.6949359258925155,24.27832739140822
1761285438.02368,-22.183469846121813,-0.6578523538050953,0.8376271807783533,0.04010392300790626,63.026889001149826,2.165494550842592,23.595792158697055
1761285438.0330956,-22.06683970899788,-0.6701734257261309,0.9265149511756884,0.035096199292714264,62.14539217021406,4.566461015534624,22.37972171433833
1761285438.0431097,-21.945352036916887,-0.669808344164854,1.0244072501357526,0.026173651685583707,60.25369289865878,6.261983315101499,20.879919235841715
1761285438.053144,-21.81447580064666,-0.655812304547741,1.1242964991321986,0.012154280111383508,57.50109634415473,6.933626702522142,19.34527834455204
1761285438.0631948,-21.66875491348575,-0.6265209736467918,1.2176630891931228,-0.0076521584946977386,54.06062659153136,6.24796392468805,18.005524066695195
1761285438.0732453,-21.501997900511014,-0.5799054249088568,1.2956101737198296,-0.033335093643701484,50.11692765404089,3.9349392817604945,17.058626030125346
1761285438.08336,-21.307496616655246,-0.5142956716694722,1.3503380706139219,-0.06445521453138234,45.86030630717968,-0.12905791607468228,16.664136958979643
1761285438.0931835,-21.07830620049464,-0.4293202857627589,1.3766429707250878,-0.10023094851560581,41.485318611243024,-5.853809524937645,16.940242013230563
1761285438.103736,-20.807629549394445,-0.3267800657608879,1.373014603715454,-0.13972026350676658,37.189488027157154,-12.902837885786736,17.9606488817787
1761285438.1136737,-20.489336302594594,-0.21112055878941818,1.3419672074243587,-0.18189404016639038,33.167309989796436,-20.708041938331576,19.74811595445096
1761285438.1234975,-20.118601310577212,-0.08925964971771805,1.2894806854094991,-0.22557787130566373,29.597017443776927,-28.53174717117126,22.264679414375486
1761285438.1332107,-19.692587224355737,0.030249547636501187,1.223732793571055,-0.2693386684760572,26.62136429466214,-35.5638897474088,25.402751421085625
1761285438.1431694,-19.211051686587773,0.13849421419556002,1.153510731213268,-0.31144150811932114,24.327059789225306,-41.03331616730378,28.983488889640796
1761285438.1530848,-18.676755108781435,0.22755138134014977,1.0867269860143276,-0.34996449000429364,22.729125821927383,-44.31042253928539,32.76756888612145
1761285438.163092,-18.09557953183101,0.29157051501817005,1.0293554057454224,-0.38306478512873987,21.765803565718866,-44.983314504640305,36.47937444577516
1761285438.1733882,-17.476322906080345,0.3273906391665834,0.9849247064418475,-0.409303723839609,21.306905741023826,-42.898300511209925,39.840746683719544
1761285438.1831336,-16.830184970880133,0.3346654771255564,0.9545386583332023,-0.4279095739196486,21.17468319270622,-38.16407218006709,42.60713298250943
1761285438.1939833,-16.1699994050627,0.315593785596563,0.9372865990623064,-0.4388855492793091,21.172742787485166,-31.124803854912685,44.59836904713983
1761285438.203533,-15.509290530982309,0.27439794336071427,0.9308696557977616,-0.442931413819068,21.11644804180759,-22.31005020140988,45.71826747074938
1761285438.2131498,-14.861245545050064,0.21667918769089228,0.9322758152401458,-0.4412122300994582,20.858105976755006,-12.369718432075507,45.960447980055896
1761285438.2231653,-14.237701674085516,0.1487378654628433,0.9383735075618315,-0.43505696628501594,20.3020696166226,-2.001972280533358,45.401112925253635
1761285438.2331195,-13.648256479439668,0.0769114838413762,0.9463478635913565,-0.42568682502068134,19.40803952770585,8.118381340343142,44.18187176749664
1761285438.244879,-13.099613188017019,0.006969267198852476,0.9539606097759384,-0.414051010526234,18.18419290889371,17.403636967153272,42.48688123902369
1761285438.2534487,-12.59525544240181,-0.05639167208372668,0.9596558226177702,-0.400797024529037,16.67410546468722,25.4023199218312,40.5185304437782
1761285438.2635176,-12.135497011900217,-0.10989548741489331,0.962551551515083,-0.3863494475775929,14.9420727050605,31.828634131314555,38.47503467694414
1761285438.273445,-11.717882782259128,-0.15183926768934053,0.9623573175205783,-0.3710390174970024,13.060483350141666,36.569896151297655,36.532144390963566
1761285438.2831113,-11.337853621466058,-0.18203536676700816,0.9592504731749449,-0.35522016388007405,11.101069315451742,39.67288193233465,34.830150501350744
1761285438.2931416,-10.989550556002943,-0.20157097204947189,0.9537368362035054,-0.33933345652183355,9.130062648396077,41.31302353815258,33.466614923448525
1761285438.3030949,-10.666628607443641,-0.21244199588012713,0.9465142804798959,-0.3238976296758885,7.206182474571199,41.752483977770325,32.494687488462446
1761285438.3131328,-10.36297099141025,-0.2171321300596297,0.938352100153477,-0.3094422589470582,5.3801170559500475,41.293999385771755,31.92635398817891
1761285438.3231125,-10.073229382597177,-0.21820448357384611,0.9299936262431865,-0.29640924224104104,3.694497203900446,40.237084866192106,31.73946211123135
1761285438.3331223,-9.793156011197315,-0.21795840480436823,0.9220841145323639,-0.28505719104600297,2.1838717002558106,38.84204532040357,31.886975650009465
1761285438.3430953,-9.519731412160633,-0.21818497501465775,0.9151211493245838,-0.2753993617173896,0.8746023001997579,37.305544064401104,32.30673610017797
1761285438.3530903,-9.251122393215276,-0.22003576682719422,0.9094230658790718,-0.2671951647783334,-0.21520550364449773,35.749531705871156,32.93014621612774
1761285438.3631082,-8.986524253871025,-0.22400257768571374,0.9051128700593938,-0.26000046986570907,-1.0756046131830153,34.22333845815153,33.6886263158805
1761285438.3731132,-8.725947308229369,-0.22999168799725983,0.9021183682833445,-0.2532668341192796,-1.704494764771526,32.716888819887004,34.517335552683846
1761285438.3831015,-8.470000491377478,-0.23746554457808544,0.9001906949454059,-0.24646836766105265,-2.107139137168229,31.181530445604043,35.356346319723805
1761285438.3931227,-8.219706846990446,-0.24561878043988147,0.8989420010815221,-0.23922947284600204,-2.2955824955670834,29.554088687562622,36.15005246165011
1761285438.4031024,-7.97636143088702,-0.2535548466624351,0.8978994133776754,-0.23142697195661432,-2.288013462621202,27.779605236405793,36.84595307330341
1761285438.4131434,-7.741416743871483,-0.2604334366090131,0.8965683773136391,-0.2232446154889623,-2.108049600815962,25.82882142944383,37.39400883130544
1761285438.4231136,-7.5163594995757395,-0.2655656991970024,0.8944966088294505,-0.21516570610147692,-1.7838664843323961,23.70772535563767,37.74750892196494
1761285438.4331062,-7.302531465813766,-0.26844370360246766,0.8913312639477469,-0.2079006319099822,-1.347080823918894,21.458190062728864,37.8658736503833
1761285438.4431307,-7.100853644179057,-0.26870440507762805,0.8868651484371981,-0.20225995344738482,-0.8313589640515003,19.1506054319137,37.71916738746215
1761285438.453307,-6.911443237867895,-0.26604719696629786,0.8810701185524699,-0.19899804475471086,-0.2708374051189091,16.871093270357935,37.29345844315311
1761285438.4632843,-6.733165801029811,-0.26014391291344074,0.8741159953770431,-0.19866328753941878,0.3014658978634417,14.706962077054904,36.59569221565499
1761285438.4731147,-6.563226970319399,-0.250590959871355,0.8663725155810399,-0.20149385885356486,0.8550887653082303,12.734106456065483,35.656582574999995
1761285438.483153,-6.396951845746525,-0.2369434508524786,0.8583924147241809,-0.20738958600539478,1.3633821359967395,11.008962817164822,34.53027956524355
1761285438.493149,-6.22789403527157,-0.21883703887224354,0.8508769444095882,-0.21597042184565207,1.8046970033398337,9.5657420612506,33.29025681999348
1761285438.5031133,-6.0483452410251966,-0.19615810186058924,0.8446293309997979,-0.22670658875829086,2.1636165320604377,8.417740058488075,32.02183177156239
1761285438.5132456,-5.85019730574762,-0.16919279759614061,0.8405032466200716,-0.23908309548988804,2.432172191993366,7.5604329257572465,30.812659762451748
1761285438.523353,-5.6259889954620235,-0.13868910418772926,0.839350630782472,-0.252749949301325,2.610707580725865,6.974246284886737,29.743056014024525
1761285438.5332355,-5.369903443965591,-0.1058014644579181,0.8419685636619723,-0.26761369929261497,2.7078602169624926,6.626100698216408,28.877889803032563
1761285438.54317,-5.0785002530412315,-0.07193632884702338,0.8490419322466316,-0.283845243559292,2.739186162147132,6.470306265594287,28.26114831988949
1761285438.5532808,-4.751058693071445,-0.038555040586308514,0.8610791821462409,-0.30180512685162786,2.7242867512600495,6.450290038023818,27.913393337116453
1761285438.5631158,-4.389530260985186,-0.007000877686922952,0.8783425515473993,-0.321909371578426,2.682773547805449,6.502568838084243,27.83157960857274
1761285438.573107,-3.998197663910445,0.021602427958532403,0.9007804151084855,-0.34446885441259756,2.6298139241280016,6.563455751512563,27.990300675346393
1761285438.583171,-3.5831821662786068,0.04636899181393708,0.9279749165734702,-0.36953388896203476,2.572192232165046,6.577733695805774,28.343529284240024
1761285438.593129,-3.1519324437918734,0.06660658416554767,0.9591198598099611,-0.39676849702076034,2.505786546629357,6.507542721990079,28.82622625618371
1761285438.6036906,-2.712786168019447,0.08174729451785206,0.9930401631535858,-0.4253707220372174,2.4151449172673107,6.339399011853989,29.35563610848418
1761285438.6133244,-2.274644315569914,0.09128965309468137,1.0282560864498178,-0.454048568454669,2.2754688290378433,6.087648694133556,29.832521883554787
1761285438.6231227,-1.846754721688341,0.09477589392256787,1.0630866965539367,-0.481057065792764,2.0567858781176356,5.793529885039304,30.14290971956337
1761285438.6331837,-1.43857341205881,0.09181108792356911,1.095781651162845,-0.5042998512662473,1.7295010930480244,5.520018640420282,30.161035331165746
1761285438.6431506,-1.0596594984294012,0.08211758039215836,1.1246688451076103,-0.5214943962157583,1.2700327253661912,5.343460801161717,29.754060933934497
1761285438.6540046,-0.7195581710185975,0.06561167007228556,1.1483042498519598,-0.5303907350571366,0.6650529293944552,5.343473956645465,28.788777870333586
1761285438.6635773,-0.4276338251615155,0.04248792723681146,1.1656066198407633,-0.5290221070637005,-0.08693395194229399,5.592716172903038,27.140025564125477
1761285438.6738913,-0.1928305115508138,0.013297327257731641,1.1759564197528425,-0.5159573175975344,-0.9773684530443396,6.147933782360118,24.70009455621104
1761285438.683685,-0.02335836193094809,-0.02099292268273698,1.1792412265657468,-0.4905212679827726,-1.9926709540799137,7.043348549732019,21.38807273790566
1761285438.6934137,0.07367059304308801,-0.05896860011405179,1.1758406399538113,-0.45295142093514623,-3.1216241526747046,8.287062967237041,17.15798503547329
1761285438.7036011,0.09261084108736488,-0.0987773735168115,1.1665575841973737,-0.40446281165207454,-4.363539560756484,9.860832035422929,12.004641408402142
1761285438.7138906,0.02959478205180551,-0.13818888428698628,1.1525136276633396,-0.3472033343630322,-5.735291940533753,11.723248629211499,5.966317506643683
1761285438.7243564,-0.11727566625959035,-0.17471714187263054,1.1350305179836588,-0.2840961524353351,-7.275339460320423,13.816024208513772,-0.8762560859860316
1761285438.733751,-0.3479055127992745,-0.20581121840342223,1.1155180819960513,-0.21858548220235624,-9.043283135956187,16.072555922893482,-8.404641574571919
1761285438.7437756,-0.6603700902134613,-0.22910732503460507,1.0953806652543854,-0.15431952455049716,-11.114291586471712,18.427423140750566,-16.47067988258115
1761285438.753692,-1.0512463562999421,-0.24271654393296596,1.075942889236607,-0.0948139307380652,-13.568696863650793,20.825050537296473,-24.90668724619847
1761285438.7632217,-1.5160578418979955,-0.24550574014796706,1.0583859908074449,-0.04313858654434907,-16.478086475268377,23.225736609874982,-33.536415077008556
1761285438.7732303,-2.0497581262242215,-0.23732286737738195,1.0436846687685946,-0.001661340123116571,-19.890072530219822,25.60768821802751,-42.18517702276299
1761285438.7831833,-2.6471760669049953,-0.21912328055361738,1.0325429836942899,0.028130411160238563,-23.814378558499136,27.964534482229148,-50.68783524601548
1761285438.7931938,-3.30335996490936,-0.1929655939045969,1.0253400319418962,0.045720219265134664,-28.212769355968696,30.298765132092228,-58.89401090330896
1761285438.803156,-4.013780275371448,-0.16186058113756072,1.0221020538533028,0.051562708651622144,-32.99466707166958,32.61239178308985,-66.67064297806975
1761285438.813226,-4.77437592843928,-0.12947684452822075,1.0225133760924474,0.04699713210456444,-38.01926123504978,34.896714156292,-73.90256697952817
1761285438.8232558,-5.581455253192891,-0.09973479150609417,1.0259687077516177,0.03408368179033262,-43.10380916279569,37.12329984468625,-80.49200533487854
1761285438.8335254,-6.431487105849994,-0.07634991087005415,1.0316604059740297,0.015375584606907295,-48.03684980095777,39.23807543943365,-86.35779472879551
1761285438.8431304,-7.320837346045373,-0.0624035690876874,1.0386879787449412,-0.006356221456265519,-52.5943718241245,41.1597661508527,-91.43492082509127
1761285438.8534725,-8.245514707274124,-0.060014120778440566,1.0461713668222823,-0.028420748475463314,-56.55671172478819,42.782953484692825,-95.67458451376827
1761285438.8636072,-9.200984090074325,-0.07015565030720376,1.053345244023778,-0.048489639665314596,-59.72415424889293,43.98501355793629,-99.04467468719757
1761285438.8737288,-10.182084463052218,-0.09263774303919099,1.0596130349394641,-0.06482015073371612,-61.92976002434561,44.63542585983996,-101.53026288041752
1761285438.884737,-11.183058334204011,-0.12622756398151297,1.0645495311018798,-0.07637997042089209,-63.04864623654556,44.605600096094555,-103.13365297259959
1761285438.8943062,-12.197669712241701,-0.16887067633568498,1.0678572060902067,-0.08285528168954104,-63.00360304593444,43.777546833714034,-103.8736579307041
1761285438.9032624,-13.219368232818608,-0.21795354996696525,1.0692955656201952,-0.08454948267250476,-61.76740938107673,42.05037349969546,-103.78408164665065
1761285438.9132097,-14.241455601029717,-0.27055295016290537,1.0686076953405448,-0.08220400363789016,-59.36244255250121,39.34452979430029,-102.91171489124804
1761285438.9235466,-15.257224924126055,-0.3236361949533781,1.0654635552961131,-0.07678813178312834,-55.858164370991425,35.60464131850141,-101.31435571218576
1761285438.933132,-16.260063686643868,-0.37420437750431323,1.0594320997551583,-0.06930660636726063,-51.36691267752645,30.802300617266372,-99.05933032666427
1761285438.9432378,-17.24352633238509,-0.41939506124797094,1.0499890529416989,-0.060660845833621,-46.038271390139656,24.940071211293482,-96.2226920607568
1761285438.9532156,-18.20138818536457,-0.4565711709450816,1.0365627911822748,-0.05157717337253405,-40.052235326225855,18.057193101738186,-92.88879296808994
1761285438.9639611,-19.12768935942148,-0.48341622959641983,1.0186136028950208,-0.04259266092116169,-33.61143980719801,10.236355095452364,-89.14944733385491
1761285438.9735591,-20.01676814308837,-0.4980380956457789,0.9957321295015451,-0.03407483553240808,-26.932805858213104,1.6098995763405828,-85.10167191748104
1761285438.9831645,-20.86327379110856,-0.4990660408491179,0.9677363293315283,-0.026249688849314865,-20.238923614941715,-7.636636427764635,-80.84314943677985
1761285438.9931412,-21.662146491270374,-0.48572334338654466,0.9347478796755663,-0.01922185348925617,-13.749264829088292,-17.26551205710523,-76.46511532028862
1761285439.003132,-22.408561696339955,-0.4578732172287021,0.8972378639694666,-0.012984893298647165,-7.6709550095848495,-26.99338797658288,-72.04316806104536
1761285439.013211,-23.097853214112885,-0.4160555302553766,0.8560410685173352,-0.007429469825577891,-2.188626551293732,-36.50359613134962,-67.62732177123988
1761285439.0232687,-23.725444924306608,-0.3615348275132134,0.8123418908284195,-0.0023580005442885832,2.5468966361809735,-45.46321173494992,-63.233186319868985
1761285439.0336592,-24.286825842502488,-0.2963607795930863,0.7676334582828876,0.0024902859053314175,6.430636461742753,-53.543542770415236,-58.836263641859
1761285439.0432453,-24.77759420438293,-0.22341379649604745,0.723650039550827,0.0074040917671313496,9.414865486824818,-60.442520391215595,-54.37096401578251
1761285439.0539935,-25.193576706894333,-0.1463893842599547,0.6822730161996626,0.012656696394625957,11.517761865350796,-65.90747343642735,-49.73523376451052
1761285439.0633476,-25.531006838633953,-0.06967452856696116,0.6454112071916892,0.018458569990323245,12.826889740108031,-69.7565795846118,-44.80086709635371
1761285439.0732331,-25.786730648459287,0.0019108177234202488,0.6148578842214619,0.024912807830410135,13.495432006257298,-71.89675790902288,-39.428840824762005
1761285439.0832093,-25.958407204780237,0.06349797932639901,0.5921320915609757,0.03198243643686313,13.730159691402227,-72.33510277579866,-33.48847860588209
1761285439.0932121,-26.044686506680414,0.11062928523580254,0.5783206526950766,0.03947892141530033,13.771708492970355,-71.18063980864754,-26.878926655560274
1761285439.1031964,-26.045372840779624,0.1397147863593998,0.573944891040463,0.04707854409800207,13.869432459105683,-68.63368002220051,-19.551199028202227
1761285439.1132638,-25.961603459060097,0.14840439454022242,0.5788781089554204,0.05436700635219364,14.254408921492619,-64.96158426970771,-11.528769460847949
1761285439.1232517,-25.796078854150444,0.13581342883515746,0.5923356988015556,0.060904310867332244,15.114701619451868,-60.46224906047359,-2.924250779201835
1761285439.133181,-25.553365772400568,0.10257019516982484,0.6129513284066935,0.06629583196583368,16.576603263948304,-55.41967594609299,6.050809528557744
1761285439.1438463,-25.240259031290652,0.0506858568887518,0.6389414198981987,0.07025459834926201,18.694337705154492,-50.058879768968076,15.086274327115298
1761285439.1532714,-24.866142314602122,-0.016726142937449447,0.6683467794821056,0.07264311599754836,21.448895598281105,-44.50926937292045,23.78678680428772
1761285439.16335,-24.443245667407073,-0.09583377106598698,0.6993254973572046,0.07348709880649466,24.754815004089227,-38.785703736458345,31.699709851838723
1761285439.173776,-23.986673222992646,-0.18251269946257453,0.7304567330978203,0.07295637156135151,28.472357905054427,-32.79422669406197,38.35689779282171
1761285439.1831615,-23.51407977562561,-0.2727481924726402,0.7610037118101132,0.07131123529285255,32.42205894215122,-26.365154888542417,43.3267300459154
1761285439.1937015,-23.044913269612543,-0.362946630920174,0.7910796470210495,0.06881782895544233,36.399143796842004,-19.310507788394755,46.27010737817803
1761285439.2036,-22.59920774306909,-0.4501006178925181,0.8216648147627416,0.06564353237497386,40.186633853211475,-11.496900632630929,46.992216356228596
1761285439.213658,-22.195996015276346,-0.531772793278078,0.8544385657991446,0.06175176101870046,43.567504104088286,-2.9202602796599813,45.48136345576582
1761285439.2231781,-21.85149739404732,-0.6059001792616862,0.8914183681915232,0.05682336602781065,46.337200613855245,6.233784255724974,41.9273386581419
1761285439.2331874,-21.577305639707344,-0.6704723433620298,0.9344375244988513,0.050236198857971,48.317506523909614,15.559430491316672,36.71456204380827
1761285439.2447774,-21.378840410363043,-0.7231880775850532,0.9845382867583697,0.04112868795174429,49.37132496923935,24.44176693810474,30.389289857120954
1761285439.2532275,-21.254318874597462,-0.7612217853681854,1.0414002649724512,0.028553391164213505,49.416421492850766,32.113838503030195,23.604621601457588
1761285439.2632432,-21.194447113503152,-0.7812155954598222,1.1029545935210578,0.011696665609122085,48.43560466318045,37.75497349573135,17.050995326149387
1761285439.2732046,-21.18292917956167,-0.7795600850939244,1.1653350490848546,-0.009889334303395262,46.48149440997016,40.61637285184761,11.382398630917772
1761285439.283197,-21.19776558579461,-0.7529531216565941,1.2232701359861538,-0.03611386777104349,43.67530084141589,40.15288869766409,7.149054588034708
1761285439.2932603,-21.213192518580836,-0.6991521883277109,1.27091691782041,-0.06629635663602194,40.19995365547722,36.136706686249326,4.745707852189437
1761285439.3031611,-21.202027437109134,-0.6177761940047045,1.302990022496382,-0.09925600959688312,36.28792610006854,28.730160888361443,4.381184154332072
1761285439.3131719,-21.138152327784237,-0.5109761919510568,1.3158953313694342,-0.13350353134800313,32.20351127577365,18.501236018233634,6.070512546892049
1761285439.3231583,-20.998876863264783,-0.3837841020850556,1.308520551679208,-0.1674620035484172,28.219191497408755,6.375478244410425,9.646971289844597
1761285439.3331535,-20.766956803135646,-0.2439781919483276,1.2824288483454205,-0.1996576947332094,24.586995111793957,-6.469996963426649,14.789279935653255
1761285439.3431578,-20.432079482910936,-0.1013957561726563,1.2414190197340418,-0.22886401424230682,21.508177126313953,-18.753428959782262,21.05912999541373
1761285439.3532052,-19.991671608121997,0.033228530202633715,1.1906388550982052,-0.25421115967959884,19.10690365228794,-29.251184229915694,27.945324745318825
1761285439.363175,-19.450950977321043,0.1496715121895609,1.1355545716819688,-0.2752700316166513,17.414349269064637,-36.94860977976685,34.91157179692204
1761285439.3732119,-18.82223622285485,0.23957271930611232,1.0810597997517772,-0.2920968454206094,16.367960481720253,-41.15496658104394,41.44476543147954
1761285439.3832219,-18.123626429896095,0.297447924306841,1.030898119762633,-0.3052107234759633,15.827019738885632,-41.56729335543711,47.099756898203765
1761285439.3932037,-17.377236504129176,0.32119299180777333,0.9874404239498623,-0.31548362939332414,15.601405955821768,-38.27882912664523,51.535974708244055
1761285439.4032333,-16.60720818021655,0.3120475110712697,0.9517552468983334,-0.32394649796230324,15.487109431272293,-31.73727939847622,54.541521250291375
1761285439.4132082,-15.837713694753107,0.27411088927135535,0.9238620940243573,-0.3315447675868032,15.300664579206595,-22.664956494918382,56.04180019090092
1761285439.4231868,-15.091143372890327,0.2135704492669931,0.9030599020482079,-0.3388991969788457,14.90551165095921,-11.956123842597444,56.09210507617889
1761285439.4334536,-14.38663173572806,0.13780527524653263,0.8882514364997695,-0.34613646746573934,14.225951395728538,-0.5671494223834235,54.856293729123465
1761285439.443232,-13.73903195489306,0.05449698573719613,0.8782167557245675,-0.35284286263649667,13.247846571141428,10.586703686640508,52.575881692802966
1761285439.453238,-13.158392369708675,-0.02915793111874006,0.8718145609547607,-0.3581611635679461,12.00843459746142,20.716902616002685,49.535023908035285
1761285439.463211,-12.649922679618442,-0.10706662546918991,0.8681085347868011,-0.36100530920702323,10.579663860518144,29.222158457721175,46.02678322010004
1761285439.4733832,-12.214373044364025,-0.1746454239357158,0.8664269570682784,-0.3603298757907569,9.049937091817066,35.720042992703256,42.32503866200152
1761285439.4832284,-11.84870284440221,-0.22899680389158367,0.866368013111761,-0.3553791297030386,7.50818659822253,40.04981614078361,38.664753861109745
1761285439.4931984,-11.546897115394843,-0.2688724180917927,0.8677630372952413,-0.3458551331815585,6.032456723435505,42.25020723360519,35.231519794203855
1761285439.503156,-11.300797412532601,-0.2944614033831547,0.8706096568729798,-0.3319753989092418,4.683437313670376,42.51869110443013,32.159661272288
1761285439.513171,-11.10084430116159,-0.3070587967441226,0.8749880612760291,-0.3144240559347788,3.502233568037027,41.16034160200088,29.536987667128408
1761285439.5231485,-10.936673924364865,-0.30867690057751734,0.8809748081861817,-0.2942256946799919,2.5111814965437516,38.534539340841526,27.41359459134814
1761285439.5331461,-10.797562665335237,-0.3016637373097689,0.888567426984433,-0.2725826976671314,1.716524186674601,35.006810078772965,25.812017482657552
1761285439.5431485,-10.672759857401434,-0.288384905611904,0.8976292701761561,-0.2507152174434922,1.1119900792421007,30.9111666068442,24.736439815518807
1761285439.553152,-10.551775405787616,-0.2710060137830527,0.9078594227445097,-0.22973247567598218,0.6825746141157341,26.525910317915532,24.179405580693448
1761285439.5631723,-10.4246886369917,-0.25138569792383575,0.9187887276327895,-0.21055053030187637,0.4080300317382902,22.063370481062446,24.125360181768816
1761285439.5731907,-10.282518844721952,-0.23106301080039438,0.929799956265314,-0.19385912479747036,0.2657022186944281,17.67194417232416,24.551152179032467
1761285439.5831597,-10.117658358522336,-0.2113060713041005,0.9401670685835213,-0.1801299828872202,0.23246230477551888,13.447316581866923,25.424244011962763
1761285439.5933058,-9.924329372760921,-0.1931835378459346,0.9491060165194892,-0.1696515581955381,0.285624642293799,9.448954953986956,26.69974259430557
1761285439.6031477,-9.69899688116551,-0.1776242758794303,0.955829198207115,-0.16257228944528346,0.40294616356774027,5.717823512485033,28.317469797675827
1761285439.6132047,-9.440658044556075,-0.1654406152683791,0.9595980530393895,-0.158936645323779,0.5620253313287501,2.291673733646623,30.200194834944146
1761285439.6231484,-9.150935023187868,-0.15730433128883803,0.9597724523869074,-0.1587041204404339,0.7395834916648012,-0.7848771634666643,32.25390398426338
1761285439.6331918,-8.833921216671378,-0.15367885917787683,0.9558596224920514,-0.16174826576392906,0.9111535591760066,-3.4570820220769543,34.37063517288957
1761285439.6431556,-8.495764167832885,-0.15472314808573165,0.9475673342375599,-0.16783933817663402,1.0516008484040054,-5.663863357896138,36.43399952022829
1761285439.6535363,-8.144005471024407,-0.16019013448501887,0.9348645830298549,-0.17662001154858245,1.136677944049813,-7.347584067277521,38.327090772942555
1761285439.6632621,-7.786733415240032,-0.16934558941411634,0.9180478140859205,-0.18758820913820323,1.1455169836684556,-8.467538988059149,39.942077579245726
1761285439.6731977,-7.431633516039092,-0.18093108177329398,0.8978036624144391,-0.2001026426125997,1.0636561285240957,-9.014116548322907,41.190419372288666
1761285439.684039,-7.085041888281376,-0.19318835539706863,0.8752532938012566,-0.21342322286621643,0.8859575106931933,-9.020305287714256,42.01239912206509
1761285439.6931748,-6.7511142802011035,-0.2039532165222396,0.8519611398282221,-0.22679039246531088,0.6186680466560691,-8.567564858887406,42.38457122579201
1761285439.703184,-6.431219926178484,-0.21081870358903876,0.8298922371396991,-0.2395374122886997,0.2799473337511697,-7.783992345599523,42.323797303320625
1761285439.713268,-6.123656885173292,-0.21136325153723573,0.8113065191241534,-0.25122074738224404,-0.10155065874680189,-6.834022025501631,41.8867911079575
1761285439.7231658,-5.823765003051962,-0.20343716945908738,0.7985854104759583,-0.26174617068092393,-0.49004380964997873,-5.900408114774954,41.16452655786773
1761285439.7331707,-5.524477225457866,-0.18548931099394525,0.7939975248818437,-0.2714601429800342,-0.8474804108479987,-5.160790922784261,40.27149567995708
1761285439.743557,-5.217288486986833,-0.15688828983402736,0.7994266402261164,-0.28116888393452877,-1.1390820760462623,-4.762511991563452,39.33061748613946
1761285439.7565765,-4.893534668912584,-0.1181619207519106,0.816102308980077,-0.2920489399925102,-1.3386518599059976,-4.800117641929145,38.455468808299536
1761285439.7636266,-4.545787087543215,-0.07107224313070795,0.8443827910950525,-0.3054305593598395,-1.4328884989733275,-5.2997142455655855,37.732193024163266
1761285439.7739246,-4.169119888472957,-0.018477224803680588,0.8836343781630907,-0.32246823467414487,-1.424251988334617,-6.212893532679065,37.20370210835892
1761285439.7844424,-3.7620286661645888,0.0360071620744697,0.9322316683334481,-0.3437522341863064,-1.3321666678431316,-7.420793386898735,36.8585194330261
1761285439.7932425,-3.326869585389241,0.08846842093915856,0.9876782411876148,-0.3689475453726249,-1.1924168068089314,-8.746809242718923,36.6258982673451
1761285439.8033295,-2.869814572860551,0.13517301626979467,1.0468252343447797,-0.39655910362426205,-1.0545903644353678,-9.97519728001095,36.37791407655614
1761285439.8132398,-2.4004252852427004,0.1729549898491,1.1061517326251566,-0.4239063607218257,-0.9775729773754008,-10.87253876993547,35.93831621017557
1761285439.8232074,-1.9309963688228284,0.19945977820593744,1.1620683097742501,-0.44734832209738395,-1.0234735554793606,-11.209550125641213,35.097197937475535
1761285439.8331547,-1.4758046736944315,0.21324049125877334,1.2112135882499353,-0.46274409209830947,-1.2508300931477536,-10.781562113767206,33.63003324494344
1761285439.8432543,-1.0503526606177995,0.21374770791997896,1.2507269952373572,-0.4660794479784837,-1.7082612609663042,-9.426679848279399,31.319285644972503
1761285439.8532734,-0.6706419494836683,0.2012707236597879,1.2784873612878835,-0.45415020717325566,-2.429759518828275,-7.040890616220204,27.976571922847885
1761285439.8631992,-0.35247519955660056,0.17687615368422122,1.2933008753255055,-0.42517559310139597,-3.432561044148338,-3.5892177206899882,23.46325463685641
1761285439.8732202,-0.11076821074221611,0.1423589586558716,1.2950113977836553,-0.3792216191651509,-4.71802195597963,0.8883174164901021,17.70736684050152
1761285439.8831828,0.04113941544132446,0.1001862668486078,1.2845051019588662,-0.31834503436201983,-6.2752531369620534,6.2773063292856115,10.714979677996588
1761285439.8932366,0.092160652978874,0.05339069243860128,1.2635951330804172,-0.24641974055056542,-8.086563527818793,12.397166667958828,2.574538843894885
1761285439.903166,0.03407409423263855,0.0053694263558730065,1.2347948380343927,-0.1686711779474009,-10.133234933055844,19.016981249461246,-6.546655429368922
1761285439.9132166,-0.13800624409115655,-0.04042821247766612,1.2010111567662927,-0.0910027807076448,-12.399976330357427,25.87740588633223,-16.413752288878406
1761285439.9232118,-0.42538975246791977,-0.08089850328075679,1.1652058292969707,-0.019234216329872583,-14.876682117478902,32.71535271522771,-26.7422824774129
1761285439.9336522,-0.8258547369571979,-0.11369821221261407,1.13007703966733,0.04162218558710305,-17.556837709634724,39.28696194045014,-37.220498199320986
1761285439.9433386,-1.333985670103086,-0.13758606301670132,1.0978072113666855,0.08793667401731255,-20.432908453336083,45.384358796327234,-47.5331594822293
1761285439.953554,-1.9417484751882395,-0.15260439540361123,1.069905774267431,0.11781075398635836,-23.4899858907458,50.84307886123539,-57.38370019973234
1761285439.9635563,-2.639205971358831,-0.1600422678624142,1.0471537036605663,0.13116356191258005,-26.699486317265073,55.53951369457392,-66.51235309672803
1761285439.9732015,-3.415257652470922,-0.1621660983119638,1.0296379586233757,0.12956664776443205,-30.014589973900918,59.3805178441911,-74.70893672429507
1761285439.9832323,-4.25829792574403,-0.16175920149285014,1.0168559576732734,0.11587804233415089,-33.36843639201741,62.28954172019262,-81.82007476314813
1761285439.9938004,-5.156719453083165,-0.1615650270819208,1.0078717568050972,0.09375089270467447,-36.67515997293555,64.19464918871293,-87.751270224078
1761285440.0037546,-6.09923293233424,-0.16376120526953294,1.0015070117943505,0.06709915184080247,-39.83306187095501,65.02324810424662,-92.4645411581225
1761285440.0137067,-7.075018938198566,-0.16958602426890815,0.9965433393050138,0.039598397448899855,-42.7288580045264,64.70639557625685,-95.97248616951579
1761285440.0232174,-8.073761177966114,-0.17919567025961186,0.9919031146265862,0.014287546909272317,-45.24205585231586,63.19263403879098,-98.32979999512933
1761285440.033196,-9.085628118166772,-0.1917673366774613,0.9867759768878444,-0.006683358674970328,-47.24893737597799,60.46829178123793,-99.6233338759126
1761285440.04321,-10.101268869287207,-0.20580255365484015,0.9806728511145586,-0.022141743705451494,-48.62616767186904,56.57892095281583,-99.96172425734312
1761285440.0532548,-11.11187001570701,-0.21954301567532167,0.9734093130273587,-0.031829089484187445,-49.254537116071035,51.64568079120601,-99.46542511857278
1761285440.063197,-12.109288756789388,-0.2313962364374385,0.9650355241229155,-0.0362210889425429,-49.02361699389044,45.87123898791204,-98.2577612698655
1761285440.073299,-13.086245198861272,-0.24028045803402173,0.9557377908238279,-0.036280848629264485,-47.83804818701768,39.531968705963244,-96.45745703667124
1761285440.0833888,-14.036533757346426,-0.2458293185815584,0.9457380474062799,-0.03319781623368981,-45.625764649860436,32.95626731574523,-94.17300616057206
1761285440.093228,-14.955206352886263,-0.24843587522275384,0.935213673219604,-0.028159981883926422,-42.34775038626361,26.491851532972326,-91.4991656868252
1761285440.103227,-15.838687889090913,-0.2491524924167876,0.9242531299947073,-0.022195332129855024,-38.008115736929184,20.467090024563234,-88.51569147351142
1761285440.1131825,-16.684801488802066,-0.24948844782924195,0.9128545604024313,-0.016100261914691823,-32.66263899813206,15.152416722967759,-85.28816853886451
1761285440.1231956,-17.492699062493244,-0.25115510238647676,0.900964550358169,-0.010449180118878507,-26.423756249494435,10.72766850594994,-81.87049027701117
1761285440.1332285,-18.26270595223923,-0.2558016322116645,0.8885430027571963,-0.0056581812694655054,-19.460426977888854,7.260067679039865,-78.30829176055093
1761285440.1431859,-18.99609483013371,-0.2647711634694425,0.8756306471615137,-0.002065493433453971,-11.992193452470138,4.6958003480358474,-74.64248978208535
1761285440.1532435,-19.69480483474639,-0.278894785231956,0.8623928350867671,4.940627617326547e-06,-4.277754371027372,2.866019215780179,-70.91203537751399
1761285440.1632025,-20.361119180956063,-0.29833262240722697,0.8491199339959893,0.0002181402326617767,3.4007916331874717,1.506002663018525,-67.15506281875601
1761285440.1733022,-20.9973109807129,-0.32246863861995934,0.8361795752190139,-0.0017515965917320549,10.756360909879191,0.28455034674022306,-63.40786080887569
1761285440.1832209,-21.605266214055227,-0.34986887549457024,0.8239336014857996,-0.006159524042498356,17.51613522951566,-1.1602280440426953,-59.701509995664004
1761285440.1932158,-22.186097325117434,-0.3783178650522717,0.8126458402923753,-0.013103148010667016,23.43997191063673,-3.182755107993109,-56.0565713221849
1761285440.20323,-22.73977067671346,-0.40494964534227157,0.8024113095162047,-0.022431333470338138,28.336614705518848,-6.093142865672599,-52.47674343041218
1761285440.2132092,-23.26478244974945,-0.426483106913113,0.7931321247010609,-0.03367607202478776,32.07672644496769,-10.124785413975653,-48.94278509904336
1761285440.2237043,-23.757924589370678,-0.43955326662897354,0.7845516456255861,-0.0460292767395508,34.6021045179616,-15.408926417482734,-45.40813034021384
1761285440.233348,-24.21417999608043,-0.4411036010230854,0.7763401683117892,-0.05837516689700762,35.930634650526606,-21.958174416592378,-41.79749367091975
1761285440.2432833,-24.62677393476606,-0.4287817523377786,0.7682092232537178,-0.0693747523913811,36.156582145100934,-29.660300583573587,-38.00940088540303
1761285440.2532437,-24.987392279421226,-0.40127628195684034,0.7600234517232161,-0.07758982501840939,35.44584803016917,-38.282835855990285,-33.9230677478781
1761285440.2633107,-25.286564737169595,-0.358549998142982,0.751880931469542,-0.0816317695192761,34.02598207901785,-47.48793311752725,-29.40952133096703
1761285440.2732406,-25.514206315729282,-0.30195449505452354,0.7441420639093428,-0.08032186870935254,32.17109082680096,-56.8557609552567,-24.346428815678482
1761285440.2836525,-25.660309416160672,-0.23423343874025093,0.7374000305836139,-0.07285005049835551,30.182256928459555,-65.9136613822793,-18.63575565946088
1761285440.2938354,-25.715774440395556,-0.15942871937580524,0.7323991930991794,-0.05891627219775397,28.364612060309458,-74.16783936605714,-12.22300711708533
1761285440.3034813,-25.673352667197783,-0.08269540080190453,0.7299180064503143,-0.03883468724195695,27.002675980003012,-81.13460860340642,-5.116337485471579
1761285440.313238,-25.528650095219994,-0.010017406202167647,0.7306378094873942,-0.013579568838552018,26.33589700084627,-86.36898049200819,2.596718384129947
1761285440.3233104,-25.281109191369,0.05219161764281231,0.7350201653190144,0.015243275641922571,26.536481888416212,-89.48930933059692,10.737583445955206
1761285440.333237,-24.934856286192915,0.09760728787567984,0.743215879656908,0.04550588698664767,27.69161478097126,-90.19755137319629,19.032906508791584
1761285440.343456,-24.499286938915777,0.12060738922366206,0.7550271244399569,0.07474277233373068,29.792026119778946,-88.29535706941151,27.121341992640595
1761285440.3538625,-23.9892671871115,0.11691405580782646,0.7699375925654339,0.10039460668339582,32.72852477734184,-83.69668352488617,34.57262576377816
1761285440.3632135,-23.424854713501926,0.08417468823203597,0.7872145610443531,0.12008643741760923,36.297519180141215,-76.43783715374043,40.91941747623075
1761285440.3732867,-22.830484965077794,0.02239007382277569,0.8060729950206412,0.1319087127424633,40.2157770635551,-66.68567630328845,45.70062578267712
1761285440.3832185,-22.233618335861443,-0.06588152646990315,0.8258763339746982,0.1346637463196087,44.14381663869082,-54.74398136599408,48.512909702781975
1761285440.3940718,-21.66290438064837,-0.17558522481376893,0.8463326200099038,0.12803741493645182,47.71648192900441,-41.05678136116327,49.06500992988598
1761285440.4036334,-21.145986284432638,-0.2995040395829044,0.8676324861707598,0.11265734118721006,50.57846523270454,-26.20599017466446,47.227848526049534
1761285440.4132266,-20.707136302058668,-0.4288448201787142,0.8904747507576258,0.09000763936542713,52.421767862015734,-10.899539999085142,43.072398864874124
1761285440.4232025,-20.364966989220818,-0.5540233153798273,0.9159421427676289,0.062192744858132434,53.021285674319714,4.054107634192428,36.887647861066455
1761285440.433655,-20.130489298024802,-0.6655663426448297,0.9452233471004259,0.03158088930037938,52.26392920890476,17.78817919180305,29.17284357024394
1761285440.4432814,-20.00577687924195,-0.755020157523336,0.9792209419560441,0.00040090971760329435,50.1663213563455,29.437200104539208,20.601587729742995
1761285440.453202,-19.983441256971386,-0.815732866495568,1.0181285885617537,-0.029604687313688885,46.87685875310718,38.21111447040694,11.959774844729479
1761285440.4631495,-20.04702647135293,-0.84338117598548,1.0610932336185248,-0.057369612182314504,42.66027646239143,43.476996603577234,4.064196447073116
1761285440.4732025,-20.17230762153804,-0.8361589642988112,1.1060822070722343,-0.08248015179003146,37.8664345493587,44.83780994032039,-2.3271404224597205
1761285440.483186,-20.329352391026134,-0.7946408203890453,1.1500363628113932,-0.10496392271035807,32.88852824862508,42.19565064223782,-6.599495894769003
1761285440.4932125,-20.485108845545227,-0.721439229428149,1.1893116777693928,-0.125003481821436,28.117829373998426,35.78761106256471,-8.347619967185285
1761285440.5032203,-20.606235247732737,-0.6208233892342209,1.220317212015812,-0.14272064135990783,23.901702382707064,26.18589007781645,-7.414127736622208
1761285440.5132537,-20.661887571735004,-0.49842453353010463,1.2401815443667914,-0.15812429510918283,20.509519104863678,14.258918755107965,-3.8959532962331656
1761285440.5232306,-20.626213218961755,-0.36104654978850975,1.2472568515907074,-0.17121015208369983,18.10861929161587,1.0957021447333848,1.8793864813856223
1761285440.5332036,-20.48034694713786,-0.2164988000267192,1.241321868436402,-0.18212358659703698,16.75097331497598,-12.099379304992206,9.401527663949759
1761285440.543205,-20.213754351029344,-0.07332388368330922,1.2234592510091034,-0.19129162400227392,16.37101829524548,-24.12958011305734,18.040496674717424
1761285440.5532048,-19.824817825569244,0.0596775773115962,1.1957023845387422,-0.19947153833255424,16.795426286738735,-33.93135398398425,27.116578132098258
1761285440.5631676,-19.320617997638355,0.1741385011642006,1.16060639990111,-0.2077011462487312,17.765191339672846,-40.685660803635905,35.96873139397061
1761285440.5732956,-18.715937280340384,0.26294693147148823,1.1208764458566123,-0.21715255191807586,18.968893461233495,-43.89967757861378,44.014749624880615
1761285440.5832758,-18.031596875214298,0.32104099507017675,1.0791149927655017,-0.2289043146346635,20.0836776021743,-43.44808298922274,50.7978058120517
1761285440.5932024,-17.292317567568734,0.34600749250299373,1.0376802537442833,-0.24367068016599555,20.818253788747047,-39.569459552675305,56.015668706060005
1761285440.6031823,-16.524348766353082,0.33835695097058244,0.9986121428742833,-0.2615516768919584,20.951000947503562,-32.820126859902935,59.53084359202489
1761285440.6132023,-15.753127633869894,0.30142179664757446,0.9635826034692073,-0.28187632364283105,20.356636287748906,-23.99371563449778,61.362177615509005
1761285440.623195,-15.001209855130178,0.24090130746377245,0.93384811394264,-0.3031948997182924,19.01695783542444,-14.01909243461722,61.6607445472438
1761285440.633205,-14.286662412083455,0.16413893236360405,0.9102067200153253,-0.32344141231583323,17.01439430490119,-3.851199007941209,60.67464673315499
1761285440.6431997,-13.62203731016338,0.07925602623448239,0.8929780510929572,-0.3402458540861229,14.510633096986849,5.631114676762044,58.7084154579715
1761285440.653206,-13.013966709844608,-0.005723321423170828,0.8820266695048895,-0.3513378489378962,11.715486968658077,13.70862768563176,56.08282330196518
1761285440.6632507,-12.463348925160792,-0.08364047848865305,0.876837559598213,-0.35495785734860674,8.852659719101897,19.878704815208494,53.10018639550972
1761285440.6736436,-11.966042822993204,-0.148789187657501,0.8766335418092536,-0.35018739254619907,6.128841609176559,23.881974886561686,50.01880681744737
1761285440.683613,-11.513957639364833,-0.19729352369170525,0.8805069309087347,-0.3371288240172243,3.710790340228818,25.699227739916832,47.03836386620317
1761285440.6932478,-11.09640808545923,-0.22728063504389012,0.8875315039760064,-0.3169027525589885,1.712452063978086,25.52254620712252,44.29615484542215
1761285440.7032025,-10.701589986409088,-0.2388607180515556,0.8968307363377855,-0.2914740941848284,0.19171661452061073,23.70707830487576,41.8724488431006
1761285440.713408,-10.318016847748005,-0.2339234685005508,0.907599125606973,-0.26335339639803024,-0.8452001572906921,20.711043876243185,39.802089090620214
1761285440.7231927,-9.935752432443467,-0.21576387693385668,0.9190925645030515,-0.2352388419058504,-1.4343293113817015,17.031827820645976,38.0889726127438
1761285440.7332087,-9.547293926892872,-0.1885704837244721,0.9306112288256592,-0.2096652476228733,-1.641889329018607,13.145638777867552,36.72015517463362
1761285440.7431922,-9.148012741833565,-0.15683915547850957,0.941493988175814,-0.18871322675141838,-1.551507274736739,9.457320700831994,35.67699218199111
1761285440.753274,-8.73613905888897,-0.12479848003370456,0.9511330773748058,-0.17381151231264685,-1.2521143395078842,6.265457961354131,34.94176620592013
1761285440.7631836,-8.31236358191996,-0.0959360290481387,0.9590073948708808,-0.16564513174194773,-0.827506813843505,3.7458724503107543,34.49942939909046
1761285440.7733057,-7.87920321118859,-0.0726956639311476,0.9647247299412978,-0.164165888482579,-0.3482871284302352,1.9540659245913239,34.335146942910654
1761285440.7835927,-7.440316764639168,-0.056380772362916116,0.9680581404581686,-0.1686900621948693,0.133312776808191,0.8444200840668935,34.429083126701286
1761285440.7932618,-6.999949849224685,-0.04725616869356379,0.9689604755834006,-0.1780601616672122,0.5854603987068302,0.3015115302918245,34.750256401521284
1761285440.8032026,-6.562633712162676,-0.04480250839420806,0.9675448264394851,-0.19084254475151918,0.9956557076187544,0.17722535914333937,35.25131432860602
1761285440.8132746,-6.133174912185695,-0.04805059564321056,0.9640277480604753,-0.20553164961653395,1.3669964079175296,0.3268153120882453,35.865790585091865
1761285440.8232052,-5.716875104226522,-0.055914091271399534,0.9586444696509283,-0.2207347831227741,1.7125586661925025,0.6377774661956398,36.50886947148071
1761285440.8333778,-5.319839354634232,-0.06744783932993957,0.9515568974784337,-0.23531740114887767,2.0489226477461866,1.0472118137696598,37.08197921389735
1761285440.84322,-4.949188204217965,-0.08198189661819459,0.9427817270778187,-0.2484955393594391,2.389947658621946,1.5458293105168743,37.48076597467429
1761285440.8532236,-4.612994919075129,-0.09911308100166517,0.9321649274747834,-0.2598687506433141,2.7417860188589596,2.1693934009635982,37.60528929543405
1761285440.8632522,-4.319825466385789,-0.11856980084917286,0.9194200848294707,-0.26939418116522196,3.099851551859321,2.9806616390603624,37.37075573916856
1761285440.8732305,-4.077854390197146,-0.13999563402313595,0.904233623586405,-0.27731081861056756,3.4481085267810654,4.046416844920683,36.716889460864245
1761285440.883245,-3.8936467711417633,-0.16271792950132444,0.8864234220172929,-0.284031803001683,3.760711706551048,5.414707646910042,35.61420672065542
1761285440.8932478,-3.770811716411166,-0.18557622992094328,0.866122692509249,-0.29002989389984435,4.00577091069484,7.0969175979860175,34.06600932776459
1761285440.9032137,-3.708819005870383,-0.2068775297801377,0.8439512239584755,-0.2957434818205332,4.150840570171867,9.057906127361434,32.10573188187121
1761285440.9132378,-3.7022962014529073,-0.22451649866154222,0.8211337009947093,-0.3015245218484258,4.1695769651085115,11.215510821168632,29.790215311429915
1761285440.9239805,-3.7410608861049175,-0.23624952147608108,0.7995316049344643,-0.3076346076252834,4.048749185603003,13.448599388785027,27.190378596970906
1761285440.933768,-3.810988113961051,-0.24005711565432566,0.7815694535230736,-0.31427590956375206,3.794387261766244,15.611169607981086,24.381431493077752
1761285440.9436631,-3.8956055592103906,-0.23449652985323832,0.770051685396386,-0.32162948277772474,3.435433486348346,17.549240749792617,21.434966889083885
1761285440.9532528,-3.9781205331265523,-0.21895296455236712,0.7678785128035996,-0.32987211733207783,3.0231344065177193,19.117633718455284,18.414791007866338
1761285440.963235,-4.04348180411181,-0.19373785139520072,0.7776801173616492,-0.33915351524668624,2.62489710413975,20.194824227179158,15.377217196353742
1761285440.9732318,-4.080090543164787,-0.16003183933379964,0.8014046545937477,-0.3495305420385498,2.312541767864757,20.695151140354973,12.375100148239495
1761285440.9832118,-4.080874410109751,-0.11970512242549247,0.8399164151029402,-0.36086857082643364,2.1465283437788174,20.57821197476001,9.463639848182943
1761285440.9932835,-4.043580062586311,-0.07506123634659176,0.892677025055305,-0.37273122226349886,2.159230441163341,19.855242579685925,6.705367669094416
1761285441.0032022,-3.9702881103597076,-0.028551746264597284,0.9575834833998458,-0.38429059457499937,2.3411026835432587,18.592036058823492,4.171880487736749
1761285441.0132024,-3.86629761783473,0.017490426674038457,1.0310172375961177,-0.3942973857061751,2.633347478934108,16.907921508175257,1.940664936891075
1761285441.0232065,-3.7386524283222777,0.06105225211939179,1.1081231329617767,-0.40114623744713945,2.9294857654919615,14.97065248552237,0.08647903441629379
1761285441.0332215,-3.5946606023166074,0.10054089627419227,1.1832957206406616,-0.40305057867731253,3.08640865006515,12.987581156287112,-1.3320070981624923
1761285441.043215,-3.4407573635919264,0.13477323223635534,1.2508109130632736,-0.3983072398703003,2.943515395750375,11.193882559385385,-2.28843096728048
1761285441.053313,-3.281968787174643,0.16287650159280115,1.3055086532382036,-0.3855975430851368,2.3468593084132667,9.838617304720863,-2.8049529194094105
1761285441.0632157,-3.122071173079712,0.18414613800781326,1.3434141990647406,-0.36425418718926933,1.174092826521322,9.169134831043587,-2.9649706739064405
1761285441.0732434,-2.9643571755880624,0.19791541093767384,1.3621906018054692,-0.3344306945745919,-0.6444045612465027,9.413996486615376,-2.9187646860780476
1761285441.0835364,-2.812763970746506,0.20348647290895766,1.361346731485487,-0.29713743916928986,-3.1123638728890257,10.764540386374824,-2.8792048513924926
1761285441.093222,-2.673027244500201,0.2001575620977913,1.3421762768131549,-0.2541406844514294,-6.1651791365902335,13.355610353682431,-3.1061937419457335
1761285441.1032298,-2.5535162647528256,0.18735705525267768,1.3074577339054845,-0.20774696081857588,-9.678781013353628,17.24683823068945,-3.880711012572578
1761285441.113277,-2.465481940527253,0.1648625596378318,1.2609892141093548,-0.16051251245582548,-13.488016105175422,22.406962135226195,-5.471673377469612
1761285441.1232338,-2.422595384528058,0.13304978573209472,1.2070568696193886,-0.11492868283958972,-17.410673173423966,28.704489363627836,-8.100678711282736
1761285441.1332197,-2.439831624507472,0.09309469000433887,1.1499373730368443,-0.07313785280541896,-21.27224498677523,35.90800408780316,-11.91046637583121
1761285441.1432168,-2.5319102684561554,0.04705378580188347,1.0935118844598315,-0.03672658962503383,-24.92671916921369,43.69827323785227,-16.94236500464
1761285441.1532264,-2.7115977247530796,-0.00222717341980087,1.0410274408019573,-0.006622117681238533,-28.269972099698617,51.69221710277838,-23.126357156711325
1761285441.1632216,-2.988186775965441,-0.05138419147011533,0.9949964852061108,0.016907829582508922,-31.244241866720646,59.47637896645214,-30.28518079971497
1761285441.1732202,-3.3664107704129367,-0.09694714578843483,0.9571932601472105,0.0341719233319294,-33.83415752806171,66.64543271728121,-38.15161414611855
1761285441.1832342,-3.845948504362738,-0.1358154395953929,0.9286966332791532,0.045917357709129664,-36.05642426501929,72.84007391573599,-46.39614513494095
1761285441.1934497,-4.42155985444276,-0.16569972590370757,0.9099406146220204,0.05316539391231797,-37.94616734223047,77.77867983756445,-54.66087305144046
1761285441.2044878,-5.083783860006772,-0.1854383994848596,0.9007564391973142,0.0570456452509278,-39.54301331949122,81.27836775212404,-62.59484320489284
1761285441.213934,-5.820047463287404,-0.19512777932170963,0.9004119938650076,0.05864979978932854,-40.87937803422451,83.26315948870234,-69.88610351360538
1761285441.223835,-6.615986531819248,-0.19604869763098007,0.907666548350895,0.0589181816370163,-41.97244874561146,83.75935211616809,-76.2865727849172
1761285441.2338953,-7.456775437027036,-0.1904161797690158,0.9208581673083,0.05856464593887819,-42.820333334261484,82.88034997919141,-81.62717800091775
1761285441.2432258,-8.328292227815071,-0.18101232809819362,0.93803117356767,0.05803988247996065,-43.402063290107094,80.80463764353317,-85.82237082494417
1761285441.253303,-9.21800108435876,-0.17077896710086288,0.9570972362384029,0.05753058133751493,-43.68069790519886,77.75098914068516,-88.86476560092507
1761285441.2632215,-10.115497351139906,-0.16244399626953704,0.976011000436582,0.05699005567576523,-43.60864250598939,73.9544782307135,-90.81198190587895
1761285441.2732108,-11.012719069147343,-0.15823674757729528,0.9929343150181427,0.05619341062191554,-43.134322632531784,69.64571452128284,-91.76861066871248
1761285441.283798,-11.903872335209394,-0.15971991349763678,1.0063652011780537,0.05480804345480191,-42.209420138984946,65.0344206090428,-91.86645955412743
1761285441.2932382,-12.785141790975427,-0.16773670779559388,1.0152172518973739,0.05246965870128565,-40.79592277200833,60.297382435111516,-91.24592968724826
1761285441.3032162,-13.654264179635042,-0.18244881672944385,1.0188466613697624,0.048854746378443385,-38.872283801903876,55.57020519580164,-90.04069759266714
1761285441.3132186,-14.510037835659366,-0.20342853902829724,1.0170328299776936,0.043741293972084656,-36.438090953359,50.94222245561325,-88.36701138197814
1761285441.3232124,-15.351829303971748,-0.2297691470053257,1.0099235769709083,0.03705079629762867,-33.51685401747231,46.45413667335051,-86.3180073189244
1761285441.3333845,-16.17912293369691,-0.2601880534536399,0.9979584202197274,0.028867841290975638,-30.156828041809334,42.098247866706785,-83.96262066103124
1761285441.3432355,-16.991142265255412,-0.29311125697815876,0.9817831726761248,0.01943801844270898,-26.430097774408726,37.82132608375567,-81.34800410806866
1761285441.353241,-17.786555739704525,-0.3267387697123231,0.9621660769522158,0.00914799723512546,-22.430305564337438,33.53032011821075,-78.50397324847324
1761285441.3632207,-18.563266232082714,-0.3590975607958076,0.939921405166117,-0.0015076757342199266,-18.269308094070045,29.101182440991924,-75.44792711622293
1761285441.3732285,-19.31827584955449,-0.3880924826745522,0.9158434471339714,-0.011968638673194011,-14.072763719858129,24.391075112299838,-72.18893484473594
1761285441.383269,-20.04761490311735,-0.4115684154512051,0.8906537765898409,-0.021654935068666736,-9.974388238371558,19.254034579888955,-68.7301654816077
1761285441.3933961,-20.74632687726034,-0.427399104828508,0.8649671971603696,-0.03001263509809957,-6.108560853735813,13.559766405660346,-65.0694530059935
1761285441.4033046,-21.408508644682232,-0.4336180758722736,0.8392836366127906,-0.03655455457438475,-2.601175887579975,7.214597154319555,-61.198397299048075
1761285441.4132771,-22.02741371443299,-0.42859944143270534,0.8140101980935257,-0.0408916868335639,0.4409224946256773,0.18279569928297518,-57.100876562532626
1761285441.4250426,-22.595630333036702,-0.4112782290099803,0.7895088131156404,-0.042750756055668124,2.9410165670692825,-7.494313353836989,-52.752093946985205
1761285441.4332778,-23.105342474985214,-0.38137771883721827,0.766155621316726,-0.04197578336461008,4.862674374987817,-15.684515459374177,-48.11925168263201
1761285441.4432478,-23.54867345427543,-0.3395987345793424,0.7443946788921796,-0.0385175808813582,6.217300232672484,-24.159188177882402,-43.16465287867465
1761285441.453279,-23.91810559572748,-0.28772976723445554,0.7247714443082607,-0.032420816432599225,7.067489314219333,-32.59843819443096,-37.851568258264045
1761285441.4632483,-24.206966696101706,-0.22865146599251715,0.7079358773121436,-0.023819384437222816,7.525023411967276,-40.607892217825906,-32.15269471377684
1761285441.4732308,-24.40996972889319,-0.16622382618210746,0.6946075815742566,-0.0129467838228486,7.742986445482071,-47.74640321506623,-26.060534608571913
1761285441.4832482,-24.52378085103642,-0.10505336075234631,0.6854984151691852,-0.00016110943528455546,7.902266840423457,-53.56219222822727,-19.598528800092947
1761285441.493439,-24.547571388004428,-0.050141887675266686,0.6811961853146202,0.014023517451900242,8.193568872308049,-57.63356891701341,-12.831283396387658
1761285441.5034335,-24.48348677430602,-0.006425982770191258,0.6820274609521095,0.028913102725134504,8.796842387404295,-59.60958262657174,-5.871838276486327
1761285441.5132968,-24.336949352720797,0.021763606517904037,0.6879322518063117,0.04363354232229822,9.860601034945851,-59.245817204273685,1.1161628836828201
1761285441.5232334,-24.116714146730818,0.03125910246731393,0.698389808048344,0.05716807745078952,11.483807210447354,-56.431043786518536,7.9231418915485285
1761285441.5332801,-23.834622394815934,0.02053279025626194,0.7124292002445511,0.06844050972799652,13.702808876212332,-51.20154736553279,14.305950885717483
1761285441.5432506,-23.50504034300784,-0.010012289540335013,0.7287428755894145,0.0764407857873215,16.48523360546988,-43.74153817829934,20.007621402000563
1761285441.5532966,-23.1440170568993,-0.05801954178965094,0.7459002115362976,0.08037368751908541,19.731811099682353,-34.369932791919915,24.782961588361193
1761285441.5632687,-22.76823361250416,-0.11945331248210904,0.7626342777340103,0.0797974995271096,23.285916158624666,-23.51563866541029,28.427306643268732
1761285441.5732527,-22.393842510510147,-0.18913843292072552,0.778151867730303,0.074715266769049,26.94948251835539,-11.684938402018057,30.804740437851237
1761285441.5832727,-22.035310575611163,-0.26147822602240184,0.7924000399346243,0.0655891576133556,30.503169308036952,0.574665677050427,31.871491024459676
1761285441.593242,-21.704381369270262,-0.33122858482359996,0.8062186526473083,0.0532661862968132,33.72837161960845,12.709824028040554,31.690200505563745
1761285441.6033003,-21.409263323020237,-0.394193450354316,0.8213213389868828,0.038827406771683615,36.428660234185514,24.192345719043626,30.431560428554363
1761285441.6132705,-21.15412647507808,-0.4477177419405633,0.8400752040337981,0.023397236701605397,38.44825744925896,34.54349120997017,28.361442478243152
1761285441.6232588,-20.938955263455885,-0.49088337299127033,0.8650868070063548,0.007966007346282847,39.68517161093167,43.350682921062464,25.81397999714681
1761285441.633263,-20.759761264889768,-0.5243574320844971,0.898642873523613,-0.006722108011290412,40.09688490941654,50.27723677648087,23.153647237618298
1761285441.6433098,-20.609113715824932,-0.5498968691878425,0.9420924997618814,-0.020186086165578595,39.69739003254031,55.06702274842208,20.731673044143864
1761285441.6533494,-20.47690526951633,-0.5695829781623648,0.9952854773207357,-0.03213942027859836,38.54607972341863,57.54695012452045,18.84358339743749
1761285441.6633027,-20.351246657512217,-0.5849387968075941,1.0561921257731623,-0.042386207626307494,36.73127320849486,57.63062992420425,17.69491644241581
1761285441.6732588,-20.219385526427047,-0.5961526762591058,1.1208225385301964,-0.05075325486901266,34.353265235886845,55.32620790248047,17.38102870355272
1761285441.6832602,-20.068571168197625,-0.6016546479876241,1.183536726910456,-0.057113540647672524,31.512555100735224,50.749821877362905,17.884494861407674
1761285441.693268,-19.886826776819106,-0.5982370749743805,1.2377808836085982,-0.061505138131295684,28.307381075520524,44.14314351349828,19.090257118090037
1761285441.703245,-19.66362838478286,-0.5817748208922614,1.2771834005934048,-0.06428719443154193,24.840904309288348,35.88936341420839,20.81505903010867
1761285441.71324,-19.390512160238014,-0.548415726961098,1.2968064882938835,-0.06623650272123882,21.233768655896604,26.518227419710275,22.84468021300269
1761285441.7237794,-19.061632515042344,-0.49593653829386064,1.294232039333763,-0.0685023395211875,17.634469866771603,16.689613746364497,24.97095540266035
1761285441.733837,-18.67427030055434,-0.424857249139341,1.2701455012972815,-0.07240252344124631,14.21976070829456,7.148452926473562,27.021097064865856
1761285441.743287,-18.229247223292226,-0.33893324989526546,1.2282108357035548,-0.07912374553998329,11.180600037578236,-1.3485875099188926,28.874419010300016
