timestamp,angle,linear_acceleration_x,linear_acceleration_y,linear_acceleration_z,angular_velocity_x,angular_velocity_y,angular_velocity_z
1760516989.4692326,1.42090600662665,0.03957131067662493,0.9320101738470651,-0.3358117361495621,0.40845745768818376,1.5935798178869163,4.935031073564779
1760516989.4792557,1.5498537453601797,0.05139047365580951,0.9288672285322355,-0.3296621855686018,-0.19231310998440848,1.1769850216374074,5.187962249347532
1760516989.4892828,1.7012012538490462,0.06125784302247362,0.9269981653273809,-0.32331875196678755,-0.7296166662755251,0.7120392306551251,5.465474219683196
1760516989.4992583,1.8658879367448717,0.06816538685065138,0.9264257593795696,-0.31726692685078556,-1.191318285323305,0.23202156258341292,5.737850731672223
1760516989.5092363,2.0330395090159357,0.07135678993973808,0.9271066390212591,-0.3119797399513548,-1.5698300312008697,-0.21662479221276593,5.975535000425
1760516989.5192297,2.190878026315367,0.07038339009152869,0.9289288807662043,-0.30786545461962506,-1.862888640769986,-0.579774646141836,6.15107082360423
1760516989.5292587,2.3277001140045415,0.06513710254307324,0.9317148247793372,-0.3052176512811559,-2.0739088066432454,-0.8028978130302241,6.241023523125722
1760516989.5393257,2.4328635819129514,0.055863286660153194,0.9352310286408569,-0.30417505415516893,-2.211871189254014,-0.8391058014788123,6.227722636419761
1760516989.5493653,2.49772246178401,0.04315345302598896,0.9392069701961224,-0.30469893681851923,-2.2907652526434603,-0.6567961045707724,6.1006373443721325
1760516989.559297,2.5164391441853735,0.027913214243384797,0.9433617473266276,-0.3065747493871383,-2.3286496212771657,-0.24575460596660095,5.8572076152298065
1760516989.569397,2.4865889355318465,0.011299439860208541,0.9474339900323719,-0.3094402362723936,-2.346410440119104,0.3792176776640658,5.503011463335526
1760516989.5793247,2.4094726632181493,-0.005375109589383728,0.951207617506645,-0.3128360119631217,-2.366295710671331,1.1777388192372653,5.05124026111069
1760516989.5894313,2.2900770893310667,-0.02076291171576834,0.954527260072917,-0.316269132744944,-2.4102953172325443,2.0864928857387453,4.521557878354562
1760516989.5993493,2.1366690333229363,-0.03361335189378621,0.9573009163731614,-0.3192773968113099,-2.4984406713057647,3.024806027343074,3.9385062205645833
1760516989.609265,1.960067135045784,-0.0428944149544155,0.9594909563569992,-0.32148244148804683,-2.6471258450981523,3.902517544832237,3.3296629397055475
1760516989.6192327,1.7726918284487254,-0.04788322964876643,0.9610966947341281,-0.3226234962952056,-2.867599300312886,4.6292969511915665,2.723748542870545
1760516989.6292298,1.5875324852052675,-0.04820999848978917,0.9621328277831911,-0.322570211391344,-3.1648192130569517,5.124477018921811,2.1488341105563187
1760516989.6394744,1.4171728240761454,-0.04385267652406162,0.9626083752848476,-0.32131963474063696,-3.536873046781814,5.326484576420319,1.6307429308431456
1760516989.6495247,1.2729753305426637,-0.035095531551261626,0.9625103016148592,-0.31898591345228033,-3.9751102310857624,5.201010536704344,1.1916937317767495
1760516989.659239,1.1644596424655866,-0.022474641122964614,0.9617950534747838,-0.31579015920878023,-4.4650318293637925,4.747147107339939,0.8492143289863203
1760516989.6696594,1.0988514017084097,-0.006731159056364387,0.9603909197826722,-0.312053144431608,-4.987858262186305,4.000830574736714,0.6153595259374929
1760516989.6792293,1.0807516654023646,0.011218734362393075,0.9582147676992575,-0.308187693182637,-5.522596523848853,3.035054836714231,0.4962742423677948
1760516989.689241,1.1118844123435319,0.030301564985686272,0.9552064639292444,-0.30468343535564035,-6.048371849087994,1.9564556443000416,0.4921256185972259
1760516989.6992426,1.1909097603648606,0.04930575530611564,0.9513801321114195,-0.30207517822846375,-6.546767257832884,0.8980300327171777,0.5973747176121041
1760516989.709397,1.3133337971386192,0.06692152940802054,0.9468824740874625,-0.3008874295014576,-7.003909993611257,0.0080115854896811,0.8012810076147132
1760516989.7192647,1.4715894501646258,0.0818203742191905,0.9420387121026498,-0.30155222974798146,-7.4120545858204645,-0.5646573181570028,1.0884647201964615
1760516989.7292485,1.6553808443130942,0.09278151967973483,0.9373642627940479,-0.3043068619893092,-7.7704603342591385,-0.6872034686728733,1.439340936024709
1760516989.7392464,1.8523530706404363,0.09885184808754043,0.933530009970521,-0.3090907588321294,-8.085475151640228,-0.2604787660119947,1.8303211462561106
1760516989.749248,2.049075344622638,0.09950626811416628,0.9312858164015244,-0.3154706388683155,-8.369915127012009,0.7653854179497032,2.2338452841239422
1760516989.759268,2.2322414375497055,0.09476932799973257,0.9313595243583119,-0.322622721449702,-8.642007758259117,2.379709642665257,2.618497747985385
1760516989.769252,2.3899318965958596,0.08526695321311266,0.9343515876710197,-0.3293896408860472,-8.924250860055428,4.50656707273692,2.9495856457056377
1760516989.7792668,2.512761722830119,0.07219217028586203,0.9406414558791117,-0.3344118140841645,-9.242471925005418,7.007871001183021,3.1905446380145572
1760516989.7892833,2.5947492213254506,0.057183430098736415,0.9503157233464865,-0.3363138050974163,-9.625183773001472,9.694222714622576,3.305364625201081
1760516989.7993958,2.633777895125998,0.04212744862445857,0.963123552688187,-0.3339102574993124,-10.10311042881215,12.342328306937393,3.2619290792931226
1760516989.8094308,2.631579853421639,0.028911767326838644,0.9784642862531565,-0.32638835153587986,-10.70858865455032,14.716944832930938,3.035821229352495
1760516989.8192656,2.593241568787836,0.01916398349100911,0.9954140959948902,-0.31342863458629244,-11.474491136461726,16.59485816875486,2.6138745693723755
1760516989.829342,2.5263082932574004,0.01402029654354995,1.0127981774266694,-0.2952427296831881,-12.43239325269074,17.78828985543426,1.9966258433801072
1760516989.8393118,2.439626174260748,0.01396334114760704,1.0293090222305188,-0.27252806118477424,-13.609902019757383,18.165275140941404,1.198902296419022
1760516989.8492832,2.34210172571716,0.018759930865509308,1.043660616348751,-0.2463572182505804,-15.027320356511044,17.6648356117914,0.24801623344197427
1760516989.8592675,2.2415702005583453,0.02751257612771761,1.0547559472742858,-0.2180272694793326,-16.69405706565542,16.30514056894687,-0.8206079565032877
1760516989.8695827,2.1439345147141093,0.03881070903684688,1.0618348710680565,-0.1888932544528471,-18.605373122878547,14.183355204428592,-1.9701445563629907
1760516989.87927,2.0526592000314436,0.050936575514516934,1.0645679179950482,-0.160205715819105,-20.74017029165239,11.466581466055402,-3.1707784553020972
1760516989.8892622,1.968605388020315,0.062069833161962594,1.0630747445477438,-0.1329691973772139,-23.060562694927118,8.374223985123914,-4.408814585706827
1760516989.899246,1.8901198677447941,0.0704558359811849,1.057869643886201,-0.10783726144057171,-25.51388829878469,5.153182361374224,-5.6951957052529485
1760516989.9092512,1.8132725490449726,0.07453801155912507,1.0497578461757993,-0.08505666823037367,-28.037579055881576,2.048345466433523,-7.071989891516894
1760516989.919244,1.7321633622941912,0.073076919615476,1.039714851368464,-0.06446732449984363,-30.566905488245766,-0.7282030407499027,-8.615462744402238
1760516989.9292457,1.6392611110894706,0.06527592437237051,1.02877597357219,-0.04555720559817231,-33.04507585538761,-3.0252010516943457,-10.43465597180378
1760516989.9392433,1.5257676408026581,0.05091363749056778,1.0179506942109537,-0.027564572786984147,-35.434576214774175,-4.773123305529572,-12.664935716156542
1760516989.9492483,1.3820135138885188,0.030460018373757503,1.0081631566034857,-0.009613517694248326,-37.72808158581578,-5.99394197247328,-15.456652846009845
1760516989.9594574,1.197890319668114,0.005134575414921562,1.0002106341930408,0.00913595786024295,-39.95685018481965,-6.796616737035631,-18.95975749050237
1760516989.9692574,0.9633140995491551,-0.023144174852886175,0.9947286442249792,0.029343138289930033,-42.19434912289451,-7.356975178246841,-23.30584752369073
1760516989.9792569,0.6686978518840339,-0.05195988361578631,0.9921556239431718,0.0513643463159232,-44.55310604009535,-7.883336163044082,-28.589608907520326
1760516989.989301,0.3053976118925734,-0.07875482496963804,0.9926988074647035,0.07516749954483899,-47.1735698500085,-8.572531854096818,-34.85176882977424
1760516989.9992704,-0.13390218812785074,-0.10128818415088806,0.9963087430575299,0.10029473248739779,-50.205057597420506,-9.564015013669371,-42.06542611716407
1760516990.009271,-0.654878966595138,-0.1180916860772718,1.0026677601192602,0.12587929124427183,-53.780416646692835,-10.90132163270474,-50.127074811611934
1760516990.0192766,-1.261324375585091,-0.12880008654310215,1.0111917017498568,0.1507162015041212,-57.98753774632996,-12.50950913185547,-58.85312087732623
1760516990.0292525,-1.954923821971608,-0.13425754602073647,1.0210424668053584,0.17338071717683182,-62.84206572257422,-14.194380597261027,-67.98246805939806
1760516990.039253,-2.7350272166756238,-0.13636019684072478,1.0311533909217832,0.19238525108487128,-68.26632250680568,-15.66513860006858,-77.18581090600159
1760516990.0494266,-3.5984006828593813,-0.13767379023115772,1.0402764189905251,0.20636245301603254,-74.07928844779055,-16.57763691754328,-86.08236229833456
1760516990.0594635,-4.538995656058732,-0.1409355981530762,1.0470655413639585,0.21425697421255877,-80.00124444497685,-16.59149654782369,-94.26449005100147
1760516990.069495,-5.547821797912634,-0.14858066318801355,1.0502100428918166,0.21550121101186112,-85.67436490827224,-15.431586995096067,-101.32984140779573
1760516990.0794046,-6.6130375255564715,-0.16240540507196138,1.0486160707724543,0.21014425566285877,-90.69755866860463,-12.943078302635184,-106.91892888636183
1760516990.0892804,-7.720354241313752,-0.18340804362181756,1.0416050721682573,0.1989031876106528,-94.67090007110937,-9.129717100311924,-110.75408906048219
1760516990.0992675,-8.853783567285939,-0.21176894068681862,1.0290687703686243,0.18311515443268442,-97.24284145269642,-4.167417913827383,-112.67377360879229
1760516990.1093419,-9.996661729907649,-0.2468996983795919,1.0115172022681709,0.16458776513767204,-98.15259009394511,1.6103091392844266,-112.65514849748962
1760516990.1196687,-11.13279764322431,-0.2875065534935648,0.9899893004691915,0.14536996342661074,-97.26081116221054,7.752825502394817,-110.818930888826
1760516990.1294274,-12.2475458565097,-0.33165579278889074,0.9658474996800861,0.1274869314754569,-94.56407609177298,13.750984789730868,-107.41369926183016
1760516990.1395764,-13.328621345700476,-0.3768668811283539,0.9405181873258229,0.11269169998340765,-90.19163810354992,19.102869690038993,-102.7817322536546
1760516990.1492698,-14.366544687780362,-0.4202748419792872,0.915250073406015,0.10227962606810206,-84.38629284818786,23.375439772073676,-97.31292937446894
1760516990.15935,-15.354705000623232,-0.4588899317281456,0.8909458792272966,0.09699274577584745,-77.47348501398088,26.253246742692887,-91.39584830412426
1760516990.1692724,-16.289116673386793,-0.4899445756778629,0.8680933009212309,0.09701626766614417,-69.82403687676285,27.56882072497348,-85.37471263988009
1760516990.1793063,-17.167996675894564,-0.5112735032467588,0.8467921164721147,0.10204824962125716,-61.815909202799084,27.312664526824687,-79.51888424167954
1760516990.1892636,-17.991295125236032,-0.5216466012257867,0.8268533269283392,0.11141304436874022,-53.79961243366532,25.623516291123998,-74.0078886777704
1760516990.199314,-18.760283032760174,-0.5209780661550902,0.807936022313952,0.12419016176611829,-46.070714733764376,22.761650289508633,-68.93176107965664
1760516990.209263,-19.477253560081373,-0.5103647556633605,0.7896875902049734,0.13933745095450206,-38.851627650031766,19.069613131435986,-64.30392718611442
1760516990.2192695,-20.145340442190594,-0.4919448847924392,0.7718602751829516,0.15579515129633362,-32.283591996776906,14.925977740078475,-60.08228083658958
1760516990.2292957,-20.76841141834808,-0.46860105286184545,0.754387834244617,0.17256333294256632,-26.42856033121492,10.698300319871246,-56.193559790577716
1760516990.2394555,-21.35096675985187,-0.443554519324446,0.7374161053669654,0.18875038783007042,-21.279509926072873,6.701277922508831,-52.55645343569796
1760516990.249276,-21.897970838000173,-0.4199129831700264,0.7212887898155377,0.2035954625612121,-16.776749263654676,3.165085526386578,-49.09991962377582
1760516990.2593377,-22.41456816857466,-0.40024248090977665,0.7064950354601888,0.21647274040542425,-12.82722263925475,0.2172376662874083,-45.77467636640124
1760516990.2694063,-22.905676834191926,-0.3862321296995814,0.6935899387723508,0.2268886926798789,-9.323823254666861,-2.1205975997171516,-42.557419682381386
1760516990.2794583,-23.37549967283238,-0.37850642844250354,0.6831036399724173,0.23448257188040336,-6.162229635797788,-3.921329694421181,-39.44865678410835
1760516990.289367,-23.82703505581102,-0.3766162563912084,0.6754577699563116,0.23903485446886347,-3.2535520359577066,-5.328979667761581,-36.465929475773
1760516990.2994804,-24.261694634713468,-0.37921117236580815,0.670906367675526,0.24048111839686623,-0.5319053166677064,-6.526743658688401,-33.634619543779074
1760516990.3093588,-24.679137333206455,-0.3843658918113571,0.669510504110515,0.23892449065860422,2.0431855372784677,-7.701338619323029,-30.978543630685188
1760516990.3192964,-25.077401016325016,-0.3900054646266574,0.6711445117896683,0.23463963049108133,4.488948959955956,-9.008811179016798,-28.512212419768577
1760516990.3293288,-25.45335492750401,-0.39435058511511983,0.6755224634561832,0.2280628600230213,6.804986521023484,-10.546725045605891,-26.236019065349293
1760516990.3392766,-25.803418017992733,-0.3962944983197823,0.682230953058954,0.2197644041709962,8.980980944214222,-12.336711792373954,-24.134883998308375
1760516990.3493218,-26.12441400497366,-0.39563412018737804,0.6907590658392321,0.21040028120377333,11.005147605738486,-14.319910319645961,-22.180205278294707
1760516990.3592699,-26.41438988394794,-0.39311023838238446,0.7005249164524937,0.20064494734461372,12.872266660014215,-16.36600807721048,-20.334470114915078
1760516990.3693247,-26.67322710865088,-0.3902551408001167,0.7109045084952473,0.19111166866765592,14.59025853472436,-18.294620358248476,-18.55758430949762
1760516990.3794842,-26.902922154909536,-0.3890871945746987,0.7212693052733941,0.18227368762703391,16.184235482986512,-19.90584600976177,-16.813813713537957
1760516990.3896508,-27.107488313915688,-0.39172043715351496,0.7310343367496859,0.1744024578009359,17.696940480947784,-21.015343702568984,-15.078154489335533
1760516990.3994174,-27.292509830781942,-0.39996867879242387,0.7397125714844868,0.16753776988108132,19.18476837136393,-21.488499287554966,-13.340951929606137
1760516990.4095805,-27.46444265426618,-0.41501739364293827,0.7469677260023635,0.16149953572473044,20.7093082821635,-21.26836375200406,-11.609715015960683
1760516990.4193242,-27.629790265939167,-0.4372142975606622,0.7526580953353239,0.15594471918421,22.32543002542442,-20.392988556844347,-9.907389939452305
1760516990.4293413,-27.794284457014612,-0.4659972232659552,0.7568668095797922,0.1504655117031302,24.068051990201297,-18.99937811944487,-8.266893385354589
1760516990.4392748,-27.96217543423641,-0.49994772700109535,0.7599170813986087,0.14471445507161487,25.940544034681395,-17.313238174729168,-6.7224340645468255
1760516990.4492834,-28.135696396310326,-0.5369409624822433,0.7623728120875641,0.13853030848849052,27.907944986785022,-15.62569000611576,-5.298949548902871
1760516990.4594657,-28.314728669266728,-0.574356865481267,0.7650234378900882,0.13203161654834147,29.897564708692315,-14.259810538689115,-4.001635967420904
1760516990.4692895,-28.49666396744834,-0.6093173694371945,0.7688465687586303,0.1256490177070026,31.80804619453663,-13.531002201872353,-2.807797516733675
1760516990.4793208,-28.67644415761428,-0.6389145305923382,0.774935917357617,0.12008206529482135,33.52593876623849,-13.705711464953762,-1.6629356340219845
1760516990.489274,-28.846754983622603,-0.6603984179234115,0.7843816145852105,0.11618567303771118,34.94697472927659,-14.962976712994454,-0.48217140530643227
1760516990.4992836,-28.998352823236754,-0.6713085817789363,0.7981009375280077,0.11480763403755308,35.99820949161233,-17.362854957921467,0.8430160963075529
1760516990.5092897,-29.120505927852964,-0.6695597378796745,0.8166385236730952,0.11660771224987508,36.65721016290658,-20.82512721201802,2.4338064369459738
1760516990.5192816,-29.20153239570111,-0.6535199335792782,0.8399766550625506,0.12189113482296601,36.96525841884862,-25.120965115910074,4.410586219363923
1760516990.5294335,-29.22942005564458,-0.6221312960325169,0.8674076163624769,0.13048709132868394,37.03252619148096,-29.879530417003195,6.879051890198224
1760516990.5396144,-29.192518714775485,-0.5751092554638079,0.8975173983891871,0.14169707664657105,37.03402093031929,-34.610697769747844,9.917738368889276
1760516990.5493014,-29.080295323108917,-0.5132174659355686,0.9283139773218035,0.15432916483417472,37.19575454348886,-38.7440144589552,13.568439586612232
1760516990.559294,-28.88412890365497,-0.43856435239983904,0.9575043625916527,0.16682316066837344,37.77127115861308,-41.68238860696121,17.830459901262287
1760516990.5693028,-28.598094595045172,-0.3548222735219925,0.9828818198305237,0.1774575525736664,39.009668181526415,-42.86673657073002,22.65905207774458
1760516990.5793114,-28.219655911827473,-0.267251996604415,1.0027355862104779,0.1846120463001938,41.1178028961107,-41.84514851514685,27.967758592145152
1760516990.5892932,-27.75016611312835,-0.18243576102416578,1.0161660636620449,0.18704315540761468,44.221368922473225,-38.3377020947479,33.63372835498163
1760516990.5993114,-27.195082459324787,-0.10768056080330381,1.0232093842040748,0.18412243844232867,48.33117610340315,-32.28683131962859,39.504651703555986
1760516990.6093059,-26.56382273602913,-0.05013795524736514,1.0247454987524374,0.17599131080442174,53.32116808092439,-23.883982786952533,45.40600409358564
1760516990.6193113,-25.869240224402926,-0.015777335903448823,1.022242647599548,0.16359927954208306,58.92297592527531,-13.56638929089431,51.147791061440245
1760516990.6293206,-25.12675683753017,-0.008414634687899493,1.0174331950023792,0.14860869888504025,64.73881673877244,-1.9825769534298878,56.5306048755395
1760516990.6393182,-24.353261537611413,-0.029007254234822307,1.0120080014521262,0.13316699857089834,70.27161206671026,10.069499166284448,61.35126822204956
1760516990.6493084,-23.56593067482302,-0.07537218886737257,1.0073780241461332,0.11956665871663792,74.96921134266925,21.723358911076172,65.4086909349598
1760516990.659299,-22.781138566128487,-0.14238995695351997,1.0045119168245291,0.10983323865998919,78.27852433937093,32.132939582605104,68.5108930264465
1760516990.6693103,-22.013594994061908,-0.22265398185701155,1.0038367122197855,0.10530169131011642,79.70460834456837,40.557909821681676,70.48428422592264
1760516990.6793954,-21.27578342594826,-0.3074408191588734,1.0051912794602205,0.1062591134599523,78.8689240802372,46.434775232328185,71.18589431945436
1760516990.6895132,-20.577701920283882,-0.38782989630150433,1.0078442133389534,0.11174203819850702,75.560214992094,49.425772937834935,70.51815599276426
1760516990.6994202,-19.926850619006995,-0.4557980503948018,1.0106093809807772,0.11956755799706013,69.7712415797487,49.44135531009681,68.44435076291396
1760516990.70941,-19.328381101811907,-0.505143684729652,1.0120808503694414,0.12663960174550914,61.71531391245455,46.63626641598732,65.00165209323045
1760516990.7192907,-18.785326414424734,-0.532135801070941,1.0109514139242302,0.12950548536853904,51.818391151293156,41.38243626485891,60.3085192322046
1760516990.729422,-18.298853890081848,-0.5358175841402258,1.0063164259638404,0.12506262725443776,40.68545396056856,34.22342407377812,54.56414773818422
1760516990.7393007,-17.868507077495025,-0.5179280134973886,0.9978586692477064,0.11126102889361168,29.043642179555164,25.815592627038402,48.03928508031504
1760516990.7493353,-17.492418025779926,-0.4824562494122954,0.9858680871625555,0.08763649656250981,17.668581055901566,16.861651877877964,41.059261562417284
1760516990.7593563,-17.167480178626242,-0.4349113642695455,0.9711215416569826,0.05554582022221053,7.303400856255528,8.042920832335374,33.981090825453194
1760516990.769304,-16.889482397904178,-0.38144696278807816,0.9546882410840498,0.018043467801958733,-1.4185566507492668,-0.042814154267747984,27.166934000014933
1760516990.7792897,-16.653218471058448,-0.32800028432977757,0.9377314108665162,-0.02058235760721252,-8.036674431687723,-6.93106367638578,20.95638896556639
1760516990.789317,-16.452600803706655,-0.27958469801898916,0.9213582551071917,-0.05552681570474724,-12.303028395748274,-12.322269007018912,15.640202881234085
1760516990.7993095,-16.280814937067245,-0.23982507530842945,0.9065390198563906,-0.0823012635538239,-14.194388679273587,-16.091759603265345,11.438061976577226
1760516990.8093214,-16.130543979545514,-0.21076331823009206,0.8940847371035314,-0.09752128397168834,-13.895933750728556,-18.277814571300905,8.482864361094586
1760516990.8197744,-15.99426528075261,-0.192903842604883,0.884655633514576,-0.09949866002980776,-11.761107577122313,-19.051353999159957,6.813211782910467
1760516990.8296008,-15.864586557379804,-0.18543272717271447,0.878772597641614,-0.0885273025018638,-8.255632236291829,-18.67382232000261,6.374855898429155
1760516990.8395445,-15.734566494958727,-0.18653646316661465,0.8768152025253507,-0.06681600802775949,-3.8952644457803407,-17.45125131768682,7.030711261467177
1760516990.8493211,-15.59796909968044,-0.19375892166270825,0.8790015154774908,-0.038089820663132816,0.8135930911298948,-15.692071987208461,8.578026178912733
1760516990.8593094,-15.449426628836077,-0.20435384296594913,0.8853527001060596,-0.006942965242941325,5.423294999776138,-13.674335174990402,10.770563399192572
1760516990.869409,-15.28451707228546,-0.21560562766965427,0.8956504596123864,0.021930323086144992,9.579965610740308,-11.625226735595334,13.343253254776121
1760516990.879321,-15.099784492973788,-0.22510099811574896,0.909400083525153,0.044482409073031456,13.042458107627718,-9.712801926738841,16.03669004329715
1760516990.8894408,-14.892734926289567,-0.23093790301434697,0.9258156335838055,0.05790101108716925,15.685841130507223,-8.047370315639641,18.61896656214406
1760516990.8994303,-14.661826972482636,-0.2318587768449715,0.9438431012767117,0.0609400371737979,17.491581447141133,-6.688531225869942,20.902680826248435
1760516990.9093497,-14.406458426890635,-0.22730060778236758,0.9622294261732115,0.053949346437109,18.527666539325995,-5.653886186848721,22.755579820400108
1760516990.9193556,-14.12694642077669,-0.2173681162510279,0.9796312371318835,0.03862897358537059,18.92260892464739,-4.926855694881242,24.104234557261424
1760516990.9293425,-13.8245106582809,-0.20275055679205334,0.9947423626513546,0.017593076761606347,18.837522232175917,-4.463077014715913,24.9311833736924
1760516990.939606,-13.501278822698792,-0.18460516832722476,1.006411415265422,-0.006142852792912377,18.440107518770684,-4.196488327166883,25.266844046060424
1760516990.9494078,-13.160321434826457,-0.16442040620953255,1.013727389382978,-0.02964697161830505,17.88346445483756,-4.046647429641649,25.177976999716893
1760516990.959296,-12.805692396914528,-0.14386146023159121,1.0160719957863504,-0.050456129232071406,17.291408102761974,-3.9280598863323726,24.754551066378284
1760516990.9693758,-12.442421772613985,-0.12459994063253217,1.0131586655903766,-0.06682576194105486,16.750757156185575,-3.760911304368147,24.096620043039685
1760516990.979417,-12.076399750454016,-0.10813872978363459,1.0050806100772556,-0.07783958939220129,16.31007192750884,-3.4814547728221785,23.302433631917125
1760516990.989315,-11.714110874567853,-0.09565306985131819,0.992368598481934,-0.08339512235942201,15.983608222498361,-3.0500112380981914,22.45864469830529
1760516990.99934,-11.3622152953917,-0.08787189825340297,0.9760291810247469,-0.08409374947644649,15.758802771973146,-2.4551414302887133,21.633201119161416
1760516991.0093565,-11.027013323851703,-0.08501753043701632,0.9575198481336522,-0.08106921117555983,15.605430120319046,-1.7135776676119485,20.871274982004344
1760516991.0193603,-10.713860442700968,-0.08681085478219666,0.9386311320975113,-0.07578701390223809,15.48469560132986,-0.8664256684049795,20.1943093041843
1760516991.029552,-10.426619487044881,-0.09253906556986756,0.9212785747860093,-0.0698422455926598,15.35693272459049,0.02730356018147611,19.601943524190663
1760516991.0393171,-10.167245523032094,-0.10117712696035677,0.9072398061275501,-0.0647762398921831,15.187160170669005,0.8985916016892436,19.076277289666955
1760516991.049328,-9.935594153583313,-0.11155029873521363,0.8978889331851636,-0.06192507911623566,14.948370713047192,1.6765843299800511,18.587722626457836
1760516991.059338,-9.729516373766131,-0.12251678813371758,0.8939807614055154,-0.062306332142867134,14.622912266184468,2.296122671564372,18.101608119497808
1760516991.069344,-9.545244897786333,-0.13313534083405018,0.895527372729828,-0.06654502678011655,14.20257749550623,2.7040260939741882,17.584717544221874
1760516991.0793343,-9.377999205791577,-0.14277307899089522,0.9017936198166627,-0.07483575217592162,13.688031156933894,2.863820595570583,17.011033718472188
1760516991.089354,-9.22267458386381,-0.15111936631447426,0.9114167509096328,-0.08693601426371059,13.088036359045619,2.7588281990608263,16.36609063359461
1760516991.099367,-9.074467316616799,-0.15810203493983838,0.9226303281845335,-0.10218714255894173,12.418689169073499,2.3936473862194116,15.649510748353366
1760516991.1094997,-8.929323969965523,-0.16373399807534914,0.9335495376694309,-0.11956179229557769,11.702628925450142,1.794044846947921,14.87553026249247
1760516991.1193087,-8.784158956679374,-0.1679338947464972,0.9424614128774594,-0.13773932070056272,10.9680231395986,1.0051784680604343,14.07158257169216
1760516991.1293235,-8.636835378871242,-0.1703642862191941,0.9480642549296062,-0.15521103035510053,10.247055326542288,0.08794898159425144,13.275266715735203
1760516991.1393287,-8.485941217152915,-0.17032412048193676,0.9496147440591045,-0.17041589399867313,9.573670554661755,-0.8867654731439625,12.530208961833832
1760516991.1493123,-8.330417011878414,-0.16672288343973266,0.9469635803925914,-0.18190266540589697,8.980457058366703,-1.8460830515860351,11.88139852663508
1760516991.1593282,-8.169105434997327,-0.1581525022019574,0.940485500046393,-0.18850522536218448,8.494774333205676,-2.7249332299136007,11.370546809418679
1760516991.169704,-8.000306273565231,-0.14306215512762763,0.9309331217109991,-0.18950578548938066,8.134582472311214,-3.4765557285774813,11.031909771658745
1760516991.1794136,-7.821439028715993,-0.12003087257361224,0.9192613669047993,-0.1847509744814775,7.904822897152387,-4.081584509210241,10.888868535845065
1760516991.1893222,-7.628925860214716,-0.08811593529356548,0.9064734689950195,-0.17468929096854927,7.7954549127839705,-4.55302283788904,10.9514323034716
1760516991.1994817,-7.418380640724279,-0.047226651726639625,0.8935261696087585,-0.16032009856004223,7.782109900955408,-4.934767951374663,11.214745556462294
1760516991.2093356,-7.1851161364785225,0.0015564606054264212,0.8813036219300137,-0.14307245035801663,7.82970587479809,-5.292828412985203,11.658663925934324
1760516991.2195666,-6.924890673257071,0.05580866739302308,0.8706385179573717,-0.12464659715442268,7.898496842224158,-5.700502263039307,12.248496668776976
1760516991.2293608,-6.634750844433147,0.11181042474484572,0.8623390838250846,-0.10684586008416597,7.951275645347009,-6.220713715448338,12.93704312553989
1760516991.2393227,-6.313808292546782,0.16485879981232773,0.8571797618335373,-0.09141251570742212,7.960062202895499,-6.889757701348554,13.668000902080506
1760516991.2494328,-5.963809151673695,0.2098315989610309,0.8558304776258603,-0.07987130961756733,7.910676264689131,-7.706571380799592,14.380649602211362
1760516991.259432,-5.589396567493587,0.24193728268555037,0.8587281350759971,-0.07338401885629808,7.804079840825417,-8.630378495668404,15.015428432266258
1760516991.2693496,-5.198016532541384,0.2575190396226619,0.8659272754326418,-0.0726278546241607,7.65418449324788,-9.587393092884598,15.519700683134422
1760516991.2794085,-4.799469468765882,0.2547270457502287,0.8769933483060718,-0.07772277928154345,7.482796378893402,-10.484709793713177,15.85276210342003
1760516991.2893977,-4.405160185317065,0.23387332880005768,0.8910021589631099,-0.08823452007368188,7.313227039162774,-11.227405372180145,15.989165818879373
1760516991.2995658,-4.027138699258706,0.19737150979519147,0.906670208888156,-0.10326144578099845,7.164448181399671,-11.734220753978834,15.919797869618717
1760516991.3093333,-3.677046925195604,0.14930022172052168,0.9225816423220743,-0.12158368696821804,7.0473099461676405,-11.948327621720164,15.650740962910021
1760516991.3193784,-3.3650930847489042,0.09472754313357926,0.9374382486768593,-0.14183432745775304,6.9634603615604815,-11.841891150941583,15.200530676843812
1760516991.3293936,-3.0991717219240775,0.03895459052415975,0.9502601981684544,-0.16265627670190563,6.9066471965693355,-11.415225158668745,14.596689017518447
1760516991.3393202,-2.8842294742201933,-0.013187470830365816,0.9604947708100254,-0.1828251738186325,6.865455171170637,-10.692484347577814,13.87235633794489
1760516991.34935,-2.7219382085464296,-0.05788181859021325,0.9680257878233622,-0.20133351553528037,6.826392859471241,-9.715899007418779,13.063541299138727
1760516991.3593266,-2.6106831069648297,-0.09263995372706435,0.9731041946551188,-0.21743830121125202,6.776501126103555,-8.53987214691823,12.207135685167612
1760516991.369856,-2.5458252612417054,-0.1163643769681736,0.9762352891746163,-0.23067676662142628,6.70507039769612,-7.225409784306559,11.339539598883732
1760516991.379416,-2.520176097604049,-0.129198439517066,0.978057573887334,-0.24085578900904414,6.604407323942266,-5.83485150623307,10.495589101898107
1760516991.3893833,-2.524626666360759,-0.13224316199153033,0.9792334261241568,-0.2480205375050374,6.469796287483209,-4.426858508049466,9.707477962053739
1760516991.3993485,-2.5488952144754227,-0.12722965333223876,0.9803544007612371,-0.25240724106268836,6.298894493461431,-3.0518904370547344,9.003480169306355
1760516991.4093304,-2.5823708314274567,-0.11621743070101977,0.9818584452302445,-0.25438570861503984,6.090842954508964,-1.7486643726964366,8.406457243419666
1760516991.41935,-2.615020313490543,-0.10135597841117833,0.9839637525447031,-0.2543996714479469,5.845389371113295,-0.5421620031044602,7.9323176073224975
1760516991.4295459,-2.638288050958665,-0.08471340225540802,0.9866324732904079,-0.25291406585777176,5.562286931864468,0.556413642460716,7.588730059288136
1760516991.4394062,-2.6458768175486482,-0.06815508900404173,0.9895774444608159,-0.2503757420215479,5.241143394112174,1.5476906269035462,7.374436816368346
1760516991.449426,-2.6342798825039124,-0.053251385222809415,0.9923170132099032,-0.24718907455353323,4.881765378227067,2.440589294607918,7.279446349939137
1760516991.4593844,-2.602956615532511,-0.041201276434956885,0.9942719276313644,-0.24370361153307168,4.48491336975854,3.2479712586491636,7.286227713843186
1760516991.4695663,-2.554101809019256,-0.03277154728113087,0.9948872538602589,-0.24020890306733925,4.053284646858536,3.9824651500114623,7.371818459857528
1760516991.4793656,-2.492041607085028,-0.028263366171286886,0.9937535135037392,-0.23693169023625194,3.5924814436537247,4.653446617577836,7.510554353850265
1760516991.4893553,-2.4223779165853587,-0.02752597440029693,0.9906985835452645,-0.2340319838627743,3.1116983202618864,5.26590409203377,7.676989755888385
1760516991.4993544,-2.3510690412703927,-0.030033108661180568,0.9858287408610694,-0.23159703297008866,2.6238836648429538,5.821459749328278,7.8485466130931725
1760516991.509355,-2.283645535622978,-0.03501956700763242,0.979511993021079,-0.22963525182076855,2.145205882790175,6.321213828279608,8.007515761625614
1760516991.519484,-2.2247075275154606,-0.04165222629977296,0.9723129295035894,-0.228074086262236,1.6937780405699558,6.769493116843899,8.142200130439445
1760516991.529599,-2.1777555866660925,-0.049195769255272456,0.9648990369570764,-0.22676513787545158,1.287738890481506,7.177202220880935,8.247172101169044
1760516991.5393577,-2.1453090837723368,-0.057134536499779336,0.9579412755770201,-0.22549772484875463,0.9429217479366037,7.5634531923818145,8.322760828332648
1760516991.5493612,-2.1291943367596557,-0.06522490812568806,0.9520284996567023,-0.22402067967785683,0.6704401260345014,7.954528554748057,8.373964002377752
1760516991.559327,-2.130854536343342,-0.07347082428824919,0.9476091180902892,-0.22207185949679692,0.4745648048126669,8.379909855287824,8.408994458945099
1760516991.5693464,-2.1515453373484785,-0.08203288121499884,0.9449662252329741,-0.2194141527755971,0.35125520239202007,8.865869929831682,8.437642352039173
1760516991.5793424,-2.1923253770736624,-0.09109521092104372,0.9442251168083265,-0.21587513002310468,0.28764000004312384,9.427776296963806,8.4695839614761
1760516991.589402,-2.2538159802513356,-0.10072217543818737,0.9453855885180507,-0.2113857463082368,0.2626269341504805,10.062653830989472,8.512728880993576
1760516991.5993664,-2.3357734434147206,-0.11073823696293074,0.9483671081304907,-0.2060123341651237,0.24867484573281087,10.743648068696052,8.571692593719591
1760516991.6098628,-2.4365758891879934,-0.12065953181801407,0.9530535440016124,-0.19997532640564464,0.21459942936671425,11.417811098633894,8.646516523972211
1760516991.619344,-2.552762505202073,-0.12969555876352173,0.9593250627508295,-0.19364783700088678,0.12912432447423935,12.00814502941838,8.731813991394775
1760516991.6293538,-2.678768024709452,-0.13682561938922602,0.9670676199911515,-0.18752868272561374,-0.03524996833077157,12.420168672682326,8.816562705423419
1760516991.6393437,-2.806967899071011,-0.14093982402461883,0.9761558184468395,-0.18218887013554955,-0.29858246807309713,12.55252560131446,8.884755096552313
1760516991.6493618,-2.928094570835544,-0.1410213117285666,0.9864131273762892,-0.17819746119108454,-0.6705829641916385,12.31043672185781,8.917033030649653
1760516991.6595385,-3.0320123256234597,-0.13633686996751054,0.9975624284962066,-0.17603954186857948,-1.1489440749892779,11.620225198050811,8.893272946521478
1760516991.6693428,-3.1087617359338706,-0.12659941308239941,1.0091855771808809,-0.17604243345587287,-1.7192426637009792,10.442792338340436,8.795875350943948
1760516991.6793494,-3.1497222484115297,-0.1120695547975129,1.020710321593268,-0.17832415503679008,-2.356510810991146,8.783857072579814,8.613292798804856
1760516991.6893547,-3.148707916573836,-0.09357429481645675,1.0314366196316076,-0.1827711516216273,-3.0283213578980916,6.6990285253538335,8.343159746702108
1760516991.6993454,-3.102813919226669,-0.07243588926286638,1.0406041608445435,-0.18904365987379013,-3.698998937499323,4.292388469705728,7.994323254065874
1760516991.7093527,-3.0128706565368444,-0.05032064276663565,1.0474916445132025,-0.1966006344758496,-4.3343939168521795,1.7082031633171946,7.587154011308659
1760516991.719341,-2.8834322708004354,-0.02903319231860452,1.051529798250603,-0.20473488963568293,-4.906579363530942,-0.8834521101151287,7.151746638487275
1760516991.7293522,-2.722312033371274,-0.01029227034053623,1.0524069169754169,-0.21261373917327253,-5.397886341552704,-3.3052199495979186,6.7239657123125784
1760516991.739347,-2.5397517647984893,0.004476555078281759,1.0501467445210282,-0.2193274837005322,-5.803893889932374,-5.3923399891111155,6.339705603988788
1760516991.7493496,-2.3473521072780903,0.014306717570652865,1.0451408634001795,-0.22395120943611016,-6.135283591884368,-7.010730955739861,6.028134436857723
1760516991.7593687,-2.156894412523587,0.018802646316120802,1.0381223777271078,-0.22562117518700844,-6.418726934283077,-8.070417843488396,5.804987314365514
1760516991.7693732,-1.979178152553878,0.018188525309851822,1.0300790172502856,-0.2236189143865939,-6.697057741917054,-8.532372920161565,5.667064478490991
1760516991.7793808,-1.8230036763439696,0.01328012564804462,1.0221209229016046,-0.21744992264294868,-7.028833740672482,-8.408187387834381,5.588938919438844
1760516991.7893674,-1.6944447942551624,0.005366192642831342,1.0153313325675843,-0.20690181514533704,-7.487079661971538,-7.753365778687816,5.522531254490831
1760516991.799414,-1.59654934512642,-0.003999589025691516,1.0106283530111662,-0.19206854849528626,-8.156694289950552,-6.656039387940466,5.399754066930423
1760516991.8093958,-1.5295480432600776,-0.01326680422086721,1.008655829011666,-0.17333315745706462,-9.129876034635803,-5.223311837249866,5.137940429725422
1760516991.819487,-1.4915400914569996,-0.021158501370199097,1.009710673303701,-0.15131177737963317,-10.49908985347371,-3.5673129630906004,4.647317492159624
1760516991.8295314,-1.4794980239817426,-0.026875151947221277,1.013707277273411,-0.12677240229172984,-12.347563275933597,-1.7925764494150034,3.8394425317466827
1760516991.8396792,-1.4903566827071586,-0.030184373167603813,1.0201748072556251,-0.10054646033155626,-14.737953521890336,0.014141443461536118,2.6353650418568733
1760516991.8494139,-1.5219604649816036,-0.03138852463590323,1.0282802440628531,-0.07344848301915245,-17.70049917280338,1.7908320342940456,0.9723545981110912
1760516991.8593593,-1.5737214660959304,-0.031197133892552416,1.0368718927673988,-0.04621375126722413,-21.222477790651528,3.5034184657876124,-1.1916779012519831
1760516991.8695145,-1.6469359538407087,-0.030544453725685403,1.044543661431312,-0.01946026900086433,-25.240997842318258,5.144793991558492,-3.876496526117668
1760516991.8793526,-1.7447769902955232,-0.03038934365332768,1.0497238851872521,0.006320700670004692,-29.64098983435495,6.729808833209033,-7.080503484195022
1760516991.8893797,-1.872019570432845,-0.031529466984326814,1.05079086183575,0.03074498455540049,-34.25971927449412,8.287067402578717,-10.783741050957145
1760516991.89948,-2.0345726738575807,-0.03446181392404887,1.0462133022101359,0.053492670393646885,-38.89827145623446,9.849286516205623,-14.951918851393451
1760516991.9094224,-2.2389004388428027,-0.03932414365091554,1.0347111327168463,0.07425545133199093,-43.33936275630392,11.44458462598401,-19.54029292724299
1760516991.9193885,-2.4914160767703812,-0.04594886080793216,1.0154303942925056,0.09269297517878497,-47.36966744890675,13.090987205325566,-24.496412311550305
1760516991.929357,-2.797926766998331,-0.05404125369106125,0.9881229309514054,0.10841908648700288,-50.8038003779606,14.79535773096413,-29.761261198643517
1760516991.939366,-3.1631928017496893,-0.06345251763130075,0.9533161726278704,0.12103552957133432,-53.506405295828436,16.55606162463672,-35.26894713205226
1760516991.9493642,-3.5906375124540837,-0.07446778054089949,0.9124507832069275,0.13021741412395907,-55.40874780796083,18.36677724296487,-40.94552843571979
1760516991.9593651,-4.082209196151245,-0.0879974440598692,0.8679531505406588,0.13583070357296936,-56.5169757637202,20.218139987633684,-46.70768981438264
1760516991.9693682,-4.638361086793752,-0.10556325761224593,0.8231955093184541,0.13803811658663226,-56.91064741335246,22.094966510063266,-52.461852759407556
1760516991.9793828,-5.258091062824509,-0.1290104887260915,0.7822859668662798,0.1373422899930356,-56.73178125306223,23.969222585722445,-58.10415756636079
1760516991.9893703,-5.938979938610087,-0.1599573235347376,0.7496406859762499,0.13453070366053718,-56.166055263809085,25.791490652345644,-63.52171614952223
1760516991.9993927,-6.67719219747175,-0.19910851952654615,0.7293400458772047,0.13052194578835474,-55.418615931259026,27.485234686218153,-68.59556748508716
1760516992.0093827,-7.467450089121749,-0.2456761506321729,0.7243629980324168,0.12615932550216688,-54.687298215214575,28.947811111540066,-73.20569705381077
1760516992.0193589,-8.303040477734662,-0.29719105018782827,0.7358962837562008,0.12203629665520203,-54.136192342356225,30.05974839417389,-77.23816488694457
1760516992.0294075,-9.17593457195963,-0.3498723963914185,0.7629567816136409,0.11843445334877328,-53.87271847528723,30.70033250974507,-80.59382708694024
1760516992.0394416,-10.077073260376343,-0.39945752483396507,0.8024839801038592,0.11539435558031814,-53.931645813095884,30.765154275704553,-83.19747112312388
1760516992.0493824,-10.996805024608923,-0.44214786216420765,0.8498801535753013,0.11286333691565763,-54.269308127141855,30.181456550893266,-85.00564421430464
1760516992.0594094,-11.92539845159671,-0.4752942879739058,0.8998130591932977,0.11083443177858034,-54.77002028532114,28.918923285074186,-86.01132732309223
1760516992.0693767,-12.853523888717042,-0.49763019074940673,0.9470460784974969,0.10941879918770395,-55.26432023936465,26.994942608429216,-86.24409139113948
1760516992.079388,-13.772616424151954,-0.5090948107253378,0.9871169165960229,0.10884201400231924,-55.555879195805616,24.473791589735523,-85.76534948014672
1760516992.0894816,-14.675078291666745,-0.5104308700103222,1.0167782663691585,0.10938813476716376,-55.45188369550093,21.45964554102524,-84.65940789693606
1760516992.099397,-15.554330138290155,-0.5027626358211283,1.0341888799703356,0.11132737075725417,-54.79120586522186,18.084510637141033,-83.02187185538622
1760516992.109372,-16.404759833088942,-0.48730287481396156,1.0388878359410567,0.11485751847829843,-53.46573888655257,14.493629559815208,-80.94742248127358
1760516992.1194415,-17.22163566354997,-0.4652482090001884,1.0316060680792865,0.12007255220799117,-51.43223509896562,10.8316665870574,-78.51904829667006
1760516992.129425,-18.001047052264134,-0.4378398882819743,1.013976988055954,0.1269542860353798,-48.71407049554499,7.2325039091746195,-75.80053960110219
1760516992.139433,-18.739915250709362,-0.4065132748418119,0.9882061713226151,0.1353743644292964,-45.39404278395642,3.8139275365024714,-72.83348684702749
1760516992.1493957,-19.43608624684619,-0.37304160792122143,0.9567496840988579,0.14509599505525006,-41.60039751350309,0.6765329551230457,-69.6392153292666
1760516992.1594458,-20.088485524040035,-0.33959295856952143,0.9220355563972815,0.1557737156265475,-37.4888207043168,-2.0953272255953266,-66.22514318167129
1760516992.1696951,-20.6972850155419,-0.3086517888937147,0.8862486829596444,0.1669588826383908,-33.223256082643736,-4.4332185477920625,-62.59412554068476
1760516992.1795454,-21.264011858332697,-0.28279625802351216,0.8511884256741605,0.17812214498147513,-28.95818347334451,-6.286923052750639,-58.75463148484664
1760516992.189496,-21.791522616302537,-0.26436147327251874,0.8181991830272534,0.18869871180497436,-24.824500575413733,-7.629838555613018,-54.7293061035415
1760516992.1994445,-22.283781188358912,-0.2550518074331867,0.7881660879869411,0.19815089467223063,-20.92042698905538,-8.466196680886545,-50.55976876548819
1760516992.2094624,-22.745414738112963,-0.2555864241158411,0.7615616563019384,0.20603252131850022,-17.307902815778505,-8.837544381452744,-46.3063855422819
1760516992.2194586,-23.181074105679592,-0.26546547389356817,0.7385258945401967,0.21203706129801617,-14.013873267009552,-8.825621271247892,-42.04301686195971
1760516992.229484,-23.59468247674129,-0.28292691402587034,0.7189623533383227,0.21601652964068113,-11.03489907793671,-8.549431267737052,-37.84806177472332
1760516992.2394001,-23.988705088535408,-0.305127904699687,0.7026354549394837,0.21796855243645744,-8.3430360531558,-8.15562965000724,-33.79415887407257
1760516992.249472,-24.363599028085442,-0.32853815675980913,0.6892589103745457,0.21800013328016274,-5.891105297970107,-7.802894047103809,-29.939324555141514
1760516992.2594361,-24.717592902216165,-0.3494863747780883,0.6785687557516542,0.2162844023752767,-3.616336363622201,-7.642325118659694,-26.32187392366627
1760516992.2696214,-25.046895429043506,-0.36476637487137076,0.6703758592580477,0.21302760599786344,-1.4426135988101112,-7.796842687715773,-22.96024662259951
1760516992.2793937,-25.34634677356235,-0.37219545695905876,0.664593276275122,0.20845684999081623,0.7173743240944035,-8.342863277894265,-19.85729929839326
1760516992.2895164,-25.610427696488596,-0.3710271665362153,0.6612364820592436,0.20282734948322909,2.9584132016050626,-9.29727580534639,-17.007338556654158
1760516992.2993815,-25.834457340531362,-0.36214920425297015,0.6603991674673315,0.19643688863884914,5.376240943602867,-10.61200869022291,-14.403583670799842
1760516992.3093865,-26.015763705401252,-0.348035202750253,0.6622105666597459,0.1896306549722942,8.057905910047399,-12.177483251300897,-12.043933304020975
1760516992.3194304,-26.15461106539554,-0.332456610844005,0.6667798774253891,0.18278364938434022,11.069622019261786,-13.835110173728774,-9.933637420424306
1760516992.32948,-26.25471251649363,-0.3199926745285658,0.6741305873795692,0.17625755440730062,14.443436989644091,-15.397789658536006,-8.084426259447948
1760516992.3394103,-26.32323182895015,-0.31540111138744764,0.6841258173647573,0.1703391056926743,18.1644674199189,-16.6762132293528,-6.510545852168948
1760516992.3494515,-26.37026868846279,-0.32292847531126934,0.6963880744117706,0.16517412975111662,22.1606798569259,-17.507769087843954,-5.222780947042455
1760516992.3593988,-26.407903566608518,-0.34564567430292836,0.7102242090633507,0.1607149867179243,26.297232178730475,-17.784152066243173,-4.221786250836219
1760516992.3693984,-26.448935136257486,-0.3848902075871111,0.7245767669553811,0.1566997459454506,30.377229285338466,-17.473459880940947,-3.491908338833083
1760516992.3795695,-26.505467665155113,-0.4398844393942317,0.7380305657825001,0.152677720228016,34.15039812900133,-16.632710866577728,-2.9963143986572724
1760516992.389675,-26.587503105908322,-0.5075822636104409,0.7489022506055213,0.14808569451795922,37.330684366884896,-15.407499772995358,-2.6738673239930835
1760516992.3994071,-26.701673417475913,-0.5827775834143549,0.7554289352354409,0.14236382470608638,39.623114073438536,-14.017052250643921,-2.437977511087167
1760516992.4093852,-26.85022271318206,-0.6584863869488353,0.7560518798998896,0.13508666754001944,40.75928508527392,-12.72516119766668,-2.1776580521145315
1760516992.41939,-27.03032229529483,-0.7265869485201404,0.749765308419188,0.126080172112371,40.53928685013799,-11.800002043114093,-1.7610845652532703
1760516992.4293914,-27.233779410188998,-0.7786698146893687,0.7364731309993272,0.11550102419058243,38.875674402022824,-11.4680644907158,-1.0419252131717978
1760516992.439395,-27.44718648017248,-0.8070162654708686,0.7172761274305494,0.10386614049996136,35.832837659042966,-11.868884095144205,0.13154692847296584
1760516992.4493945,-27.652548558782918,-0.805598899580283,0.6946093877483671,0.09203176795637705,31.653550057775785,-13.017649917253886,1.9049903157691879
1760516992.4594488,-27.82840909355019,-0.7709856562567224,0.6721686921066123,0.0811301354441522,26.7643907889834,-14.7822071011598,4.405107135171328
1760516992.4694633,-27.951451243188586,-0.7030275203225118,0.6545998033448942,0.07247612676093093,21.753486800144703,-16.87974494171006,7.726614497912378
1760516992.479396,-27.99847934814569,-0.6052166262714017,0.6469661366403401,0.06745756970747538,17.317644803983292,-18.89666727921412,11.920409272652238
1760516992.4894288,-27.94859765948803,-0.48461803995834285,0.654048550670763,0.0674207374754248,14.181182949885029,-20.33258521173025,16.983969130535485
1760516992.4996731,-27.785330522079,-0.35131662433933203,0.6795601744952223,0.07355699721789835,12.994937419641435,-20.665817494150584,22.854555098233583
1760516992.50942,-27.498400989393705,-0.2173886659176318,0.7253790493945282,0.08678861041360347,14.229699520326044,-19.433419657737836,29.405406427070528
1760516992.5194929,-27.084921314145838,-0.09549708734479502,0.7909182646958991,0.10764710423621879,18.081998044904765,-16.314492181925498,36.44504702386557
1760516992.5294893,-26.549842632378784,0.0027056624446014934,0.8727698735470059,0.13614144130587827,24.410252803793913,-11.202726795892952,43.7200280392014
1760516992.539399,-25.90563386137667,0.06812589305474295,0.964758430724615,0.17162311372476702,32.7155772239165,-4.253966612403439,50.92177269906943
1760516992.5493946,-25.171275340764485,0.09547377104618099,1.0584936150771602,0.21266460775362553,42.17485315980828,4.102738127437358,57.698554421493405
1760516992.5594988,-24.370732199284777,0.0839888903423503,1.1444103431376798,0.2569742493666856,51.72565612729825,13.196963006219606,63.67386440256853
1760516992.569453,-23.53110307143583,0.037513903945365766,1.2131576315899046,0.301377430251164,60.194443643124266,22.191194514271558,68.47216674609116
1760516992.5794523,-22.68062972050827,-0.036107804758486656,1.257091207231964,0.34190316602950066,66.45197751639542,30.18941853628978,71.75189599083876
1760516992.5894418,-21.84672583075065,-0.12622614847436156,1.2715742519345148,0.3740211417590032,69.57399054603478,36.36426555205222,73.24340741660156
1760516992.5996404,-21.054160439993225,-0.22098836004811392,1.2558069350574232,0.39306779687969,68.98170227939328,40.08105926830821,72.78693600677708
1760516992.6093986,-20.323518318949873,-0.30908784175798015,1.212986296586173,0.3948687799486097,64.53740401967545,40.99507094113076,70.36356522789588
1760516992.6194038,-19.670044923634546,-0.38134098245200077,1.149736036201953,0.37650236951496213,56.57614236763244,39.101883678636035,66.11195161926855
1760516992.629387,-19.10295303502312,-0.4317900725095251,1.0749193110779458,0.33706423685216014,45.86527632234966,34.72998970298332,60.325595774989786
1760516992.6394248,-18.625218402038463,-0.45813456029253596,0.9981085081484455,0.2782251582835194,33.49727187104343,28.477337533357556,53.42924772913963
1760516992.649405,-18.233835340236897,-0.46146515266168925,0.9280687707934535,0.20437153624342885,20.734231783958595,21.105943987799996,45.937319712503644
1760516992.6594245,-17.920461767325584,-0.44545343146553584,0.8715762286148138,0.1222091000714632,8.831864280172312,13.417299439631673,38.40060564539156
1760516992.6694055,-17.672369984429004,-0.4152654010204822,0.8327594182061886,0.03986042501391034,-1.1265493245242586,6.133850465785471,31.349339049753745
1760516992.6794243,-17.473628155269708,-0.3764846596366469,0.8129917350643753,-0.034370388395804044,-8.35946979464276,-0.19178033412655773,25.240583251682157
1760516992.6894283,-17.306447645096146,-0.33426033983108483,0.8112348300795363,-0.09330668538798327,-12.4619223422195,-5.226288593637319,20.416561888691028
1760516992.6996589,-17.152626081262884,-0.2927798074838511,0.8246631132609213,-0.13200697759885088,-13.419552966831349,-8.860443416208613,17.07832572554041
1760516992.7094061,-16.994992589685747,-0.25505618119599316,0.849388269242189,-0.14844742713086184,-11.566954724240691,-11.175182631476234,15.27662313643953
1760516992.7194355,-16.81873320167684,-0.222951323981107,0.8811369166629894,-0.1436605507459267,-7.503934049476593,-12.382031135925438,14.919481474909004
1760516992.7294507,-16.612462001754697,-0.19733535818200054,0.915791607372027,-0.12134186470907674,-1.987893427778942,-12.753969886509507,15.79413475302372
1760516992.7394211,-16.368921602495917,-0.17829946412480563,0.9497621521360365,-0.08704965295347655,4.179047599551996,-12.562171821810567,17.59962885831332
1760516992.7494037,-16.085243114823278,-0.16536793330963162,0.9801971612047089,-0.04718924786715624,10.252045142950866,-12.030141485252608,19.98564216851919
1760516992.7594292,-15.76275808730621,-0.15768417855130565,1.005070397335771,-0.007986171511922987,15.622612906006298,-11.310945671908128,22.5927179927086
1760516992.7694254,-15.406418584283188,-0.15416769522514343,1.0231830510747968,0.025376784441270697,19.86769223757152,-10.486936361068702,25.08922677484435
1760516992.7794144,-15.02393346970266,-0.15365089292779316,1.0341149632827713,0.04933976223842531,22.766799909437903,-9.586249411388097,27.20103440536639
1760516992.789425,-14.624757625172258,-0.15500426043935428,1.0381428573866387,0.06221263904325237,24.290217797999965,-8.607627862190377,28.731078736787364
1760516992.7995472,-14.219069795922666,-0.15724823555649442,1.0361296991352247,0.06410213607173854,24.564992639760867,-7.545147027791177,29.56770520697602
1760516992.8094418,-13.81684631095978,-0.15963826996387423,1.0293813888088208,0.05658200158172041,23.82761254498756,-6.406661892116456,29.68234491582349
1760516992.8195457,-13.427093939138961,-0.16170509506247913,1.0194687421200528,0.04219878639471347,22.3724657304583,-5.223113763218101,29.118533506011236
1760516992.829667,-13.057261400503634,-0.16323864390478868,1.0080249240333945,0.023916775573807537,20.50391987914036,-4.048989969695148,27.975098484482494
1760516992.8394408,-12.712816951554794,-0.16421698702455875,0.9965444240020385,0.004599078970848189,18.49767952165748,-2.956312073726326,26.386552964223192
1760516992.8494484,-12.396964360915574,-0.16469496476010842,0.9862176643001154,-0.013399383910572939,16.574561129361896,-2.0251806370305023,24.503468529424673
1760516992.8595326,-12.11047394397971,-0.16467863986989922,0.9778286665077327,-0.028481104177996146,14.887433166951737,-1.333378015734747,22.475046730689
1760516992.8694165,-11.85162733813407,-0.16401969141785644,0.9717251206239919,-0.03988341143356846,13.520119154667915,-0.9464723517119075,20.43541711270092
1760516992.8795767,-11.616303563627984,-0.16236393193229517,0.9678506059057409,-0.047600116714921384,12.495716337999106,-0.9089610551209413,18.49446353671009
1760516992.8895605,-11.39825195222825,-0.15917604138100575,0.9658178103874187,-0.05218868616707577,11.791062932146067,-1.2366485419567246,16.73329973337729
1760516992.89952,-11.189591427534493,-0.1538407408031803,0.9650033974983275,-0.054520477228734654,11.353931764786358,-1.910677770607673,15.203944590590133
1760516992.9093978,-10.981543380624037,-0.1458173923707382,0.9646542137592637,-0.055534172771962376,11.119843709761964,-2.8741309447911942,13.932326312443942
1760516992.919497,-10.765351873707107,-0.13480745966408847,0.9640013973344491,-0.05604147297427302,11.026069228154741,-4.032491182030047,12.923481502367919
1760516992.9295259,-10.53328161438655,-0.12088666809803723,0.962378976147667,-0.05661417283837597,11.021289569235815,-5.259203107267896,12.167715912833506
1760516992.9396503,-10.27953628876668,-0.10456143600915847,0.9593383508861562,-0.0575585444004423,11.07037901915736,-6.406937876054372,11.64657813113682
1760516992.9494293,-10.00093657908553,-0.0867332328300227,0.9547437424839461,-0.05896110025490326,11.15470293993192,-7.324013065811391,11.337773574814305
1760516992.959521,-9.697245365795618,-0.06858399908882828,0.9488302673599495,-0.06077442128402138,11.269058965574247,-7.874017010811055,11.218560845614576
1760516992.969435,-9.371103182617034,-0.05141475256008617,0.9422084351950994,-0.06290741019000812,11.416789931389728,-7.955489003018394,11.26760182212395
1760516992.9795017,-9.027605738416106,-0.036471309809988445,0.935806507250638,-0.06529196513838782,11.60459301284641,-7.517995852736372,11.465542989001479
1760516992.9894521,-8.673598623875648,-0.024781941745709874,0.9307525157371408,-0.0679133417869561,11.838176597758526,-6.571421289282223,11.7947204328585
1760516992.9994419,-8.316785219709049,-0.01702237641524156,0.9282076539444205,-0.0708071169862865,12.119341609670226,-5.1866453805867865,12.238341845255064
1760516993.0094476,-7.964753225562543,-0.013418879594368176,0.9291713819283209,-0.07403579115391706,12.444520521724844,-3.4875430419162714,12.779402189061633
1760516993.0194395,-7.624028748888963,-0.013698831601585495,0.934287147265853,-0.07766101403889906,12.804469461878128,-1.6357904303661717,13.3995132232669
1760516993.0294254,-7.299264700217861,-0.01709789307617866,0.9436860486614868,-0.08172470179540214,13.18471581426531,0.18902020253859747,14.077795869590922
1760516993.0394406,-6.992661843972557,-0.022431676582028028,0.9569094476251276,-0.08624588068378689,13.566443972109298,1.8110413684173303,14.789990364146997
1760516993.0494173,-6.70370502529629,-0.02823454805318943,0.9729421820004163,-0.09123201572332726,13.927642657256484,3.078742330040893,15.507963179792714
1760516993.0594466,-6.429268593673586,-0.03295551125171806,0.9903616482810573,-0.09669710330272348,14.244444682898777,3.8819091699701773,16.19980244203321
1760516993.0694382,-6.164098178283801,-0.03518389226885524,1.00757214536279,-0.10267681346434836,14.492625324639915,4.163230971939849,16.830660257417314
1760516993.0794425,-5.90161737004806,-0.03386673869853451,1.0230647021281782,-0.10923351677296718,14.64920408605707,3.923460534976674,17.36440074399628
1760516993.0894303,-5.634959024195672,-0.028484163220042834,1.0356358124410538,-0.11644904977508409,14.694052707922117,3.2200071513899933,17.765956012801055
1760516993.099431,-5.35809744996283,-0.019162118355473205,1.0445196671738124,-0.12440834224501701,14.611375106396528,2.159539683322837,18.004121996121242
1760516993.1094348,-5.066951556569067,-0.006709494920493515,1.049425671453278,-0.13318026303115202,14.390902752957727,0.8856600202289802,18.05440633283728
1760516993.1194327,-4.760320820377898,0.007436119878769761,1.0505029234382983,-0.14280118704488562,14.028651226957454,-0.43699243995617604,17.901517638485032
1760516993.1294258,-4.44050231453239,0.021370290453451932,1.0482612650372902,-0.15326224407690933,13.52712767530791,-1.640614370903543,17.541152707586505
1760516993.1394362,-4.113439373420992,0.03299163644108224,1.0434688728647794,-0.16449688585250172,12.894973064366894,-2.572291105123265,16.980851325027324
1760516993.1494374,-3.7883006419443337,0.040345806491386846,1.0370336166703291,-0.17636563800979227,12.146140643560514,-3.110289931630482,16.23980856710822
1760516993.1594388,-3.476492400816573,0.04197231081873615,1.0298718761660526,-0.18863992355238743,11.2987997590973,-3.176697283540047,15.34764924463678
1760516993.16951,-3.190239548047148,0.03716852066671455,1.0227767989447756,-0.20099234813224323,10.374173651347556,-2.744836809189661,14.342283633810322
1760516993.1794875,-2.940979631871772,0.02610641298993504,1.0163088682168444,-0.213002111624724,9.395470089737026,-1.8405533852039502,13.267080230078333
1760516993.1895373,-2.737859309197663,0.009781805309851043,1.0107329728560317,-0.22418024536873574,8.38696961467515,-0.5372975297918763,12.167693517712268
1760516993.1995132,-2.586595444910224,-0.010181420078986491,1.0060154927857232,-0.23401314401596843,7.373235907167142,1.054202503045327,11.088936726556396
1760516993.2095244,-2.488881862130829,-0.031822671041152745,1.0018790892197913,-0.24201781674286096,6.378351730095003,2.8002177454014823,10.072054827770138
1760516993.2196794,-2.4424154045778,-0.053172088379667894,0.9978991170470147,-0.2477996754913434,5.425094986068325,4.5603679648935955,9.152629811860955
1760516993.2294478,-2.4415060641757877,-0.07255652172192807,0.9936181751430934,-0.25110344688304276,4.534044086061622,6.204007747026424,8.359192426812124
1760516993.2394857,-2.47814142058008,-0.0888354247861049,0.9886557572113838,-0.2518494110103369,3.7226836368458103,7.624671754906622,7.712497990423159
1760516993.2497377,-2.543305955121452,-0.1015315933248128,0.9827958464282397,-0.250149273500303,3.0046061389274343,8.750858630870209,7.225381514947159
1760516993.2594855,-2.6283190540454138,-0.11083891829423441,0.9760426063714741,-0.24629768619725081,2.3888588126408834,9.551880317816961,6.903107892215208
1760516993.2694955,-2.725956480657595,-0.11750867785474185,0.9686408782121219,-0.2407376464937392,1.8794158207607972,10.038124136724775,6.744123081582795
1760516993.2796314,-2.8311595763487922,-0.12263522042152779,0.9610631121706837,-0.23400195129629106,1.474728389151441,10.25582494006985,6.7410662037181375
1760516993.2895203,-2.9412112373328765,-0.12737902309323942,0.9539667886083153,-0.22663826135768783,1.1673426017759787,10.277228673613543,6.881833622330531
1760516993.299442,-3.055357867425762,-0.13267699539331196,0.9481265791519062,-0.21913044718596075,0.9436530768814436,10.187703080063352,7.15043191792954
1760516993.30944,-3.173963386418211,-0.13899312962979166,0.9443456985626322,-0.2118318096878872,0.7839342611682605,10.071772894792216,7.527360524179511
1760516993.3194456,-3.2973723363220877,-0.14615592954561016,0.943353546577837,-0.20492513682405358,0.6628173169049012,10.000136585653593,7.989359173040331
1760516993.3294516,-3.424716595901689,-0.15331468141809615,0.9457014256964669,-0.19841971975045847,0.5503379841376472,10.019451980307473,8.50854145458616
1760516993.3395612,-3.552916633422767,-0.15902836685019367,0.9516713851180556,-0.19218682165449813,0.4135788675824532,10.146133904487744,9.051173285958493
1760516993.3494709,-3.67610388992844,-0.16148161334450428,0.961212338079413,-0.18602501037358143,0.21880184928052415,10.364717845922257,9.576575184103213
1760516993.3594613,-3.7856294911717123,-0.15880264250945872,0.9739132589033767,-0.17973908583263348,-0.06615154750735908,10.630644516653865,10.036759336343051
1760516993.3694458,-3.870731892789896,-0.14943958938233007,0.989017960556435,-0.17321401552962298,-0.469498162830908,10.876709593499612,10.377403432197275
1760516993.379449,-3.919822408780782,-0.13253605892610315,1.0054811667857997,-0.16646833542601727,-1.0135323535615919,11.02195595931471,10.540588189257221
1760516993.3894432,-3.922228473306904,-0.10823785054416411,1.0220617140806536,-0.15967711531058446,-1.7133488856501258,10.981498144505306,10.469395832168333
1760516993.3994396,-3.8701290406443296,-0.07786373661227623,1.0374457702424444,-0.15315939186347854,-2.5765093684426477,10.67570551836867,10.114029469121462
1760516993.4094362,-3.760344987345066,-0.0438862956837433,1.050389946004328,-0.1473274873039431,-3.603743367013224,10.03738957954774,9.438639663477382
1760516993.4195726,-3.5956304692755414,-0.009695649926100537,1.0598692927638496,-0.14259774327780175,-4.790571380009019,9.016178452266056,8.4276260087586
1760516993.4295316,-3.385166877116852,0.020840383078187634,1.0652088330544152,-0.1392678194642521,-6.129525948899796,7.580082340946841,7.0899394740656
1760516993.4395628,-3.1440932468854217,0.043957607608825354,1.066173810870137,-0.1373772753481821,-7.612516991842978,5.715198410907908,5.459982262221609
1760516993.4497097,-2.892091782989749,0.05661485673725581,1.0629976369857848,-0.13658298628377719,-9.232918328433792,3.4252806622938037,3.5941708885423695
1760516993.4597135,-2.651234785593909,0.057031982035027684,1.0563374775405365,-0.13609064483607686,-10.987151495133654,0.7331622980751419,1.5630569054002776
1760516993.4695437,-2.443439745989406,0.045041800452106984,1.0471631381375126,-0.13467901801770452,-12.875810190145348,-2.3144845586774814,-0.5600894379445776
1760516993.479472,-2.2879484455630785,0.02218723931863081,1.036603522090099,-0.13083235435725085,-14.904523047539959,-5.63884179344506,-2.7124087485689965
1760516993.4894516,-2.1992428340868955,-0.008461219322230444,1.0257911197445837,-0.12296548548635988,-17.08463045046658,-9.118635652361412,-4.853921263576481
1760516993.499441,-2.185737084300357,-0.04274532090869041,1.0157469215536163,-0.10969803770491131,-19.433346878127608,-12.581059380351139,-6.976939858115492
1760516993.5094624,-2.249442947380171,-0.07604458049630725,1.0073287087376568,-0.09011923022588114,-21.972619925078952,-15.798145217203425,-9.11053724385264
1760516993.5194535,-2.3866157175857867,-0.10397607928741312,1.001235174871268,-0.06398702964773652,-24.725735143143613,-18.492573837857332,-11.319076843987524
1760516993.529452,-2.589199184622338,-0.12304109441712886,0.99803649327461,-0.03182221239567991,-27.71110056775265,-20.35534842586467,-13.69489064467682
1760516993.5394847,-2.8467517896016865,-0.1311051023783936,0.9981978336575565,0.005117402065522121,-30.93354451153734,-21.07522662887688,-16.34616535211093
1760516993.5497472,-3.1484808530537736,-0.12763486859459375,1.0020708988215805,0.044971865467071236,-34.3745686312487,-20.376974929708936,-19.381750775299615
1760516993.5594747,-3.4850357398692355,-0.11366594424291297,1.0098433218629843,0.08549255030403237,-37.98388309261627,-18.06308162950555,-22.8948397846568
1760516993.5694675,-3.849794107312468,-0.0915265958532536,1.021453963990697,0.12429292761703721,-41.67484729283219,-14.05205792974446,-26.94735751906336
1760516993.5795121,-4.239492541821458,-0.06439217679166173,1.0364994449230989,0.15909498467311733,-45.32598814348057,-8.40621445744586,-31.556620834317368
1760516993.5894723,-4.654180376139346,-0.03577766343921036,1.0541668691938026,0.18793808745122134,-48.78963265221953,-1.343028275910496,-36.685587127281394
1760516993.5994644,-5.09659122314876,-0.00908041245074634,1.0732256888224923,0.20933247614820505,-51.90710310311642,6.773104728600545,-42.23788372029332
1760516993.6095684,-5.571109749243531,0.01275052903796428,1.0920990701967133,0.22235670782486286,-54.528242674760676,15.458313346991885,-48.058665981306994
1760516993.6194763,-6.08254853664225,0.027401712429817197,1.1090162519377094,0.22670796925515618,-56.53172683287629,24.15203312900543,-53.941975554519495
1760516993.62948,-6.634944475076487,0.03326599267412617,1.1222271837077122,0.22271069610841662,-57.84207507693755,32.269243247929246,-59.64458180997986
1760516993.6396945,-7.2305501583083025,0.029431843830611357,1.130243012694675,0.21128002899778975,-58.439673385410906,39.25603532079499,-64.90543394407923
1760516993.6494627,-7.86914558887111,0.015623728908130609,1.1320528481660603,0.193836238232117,-58.361404537648795,44.64310192540516,-69.46906912689549
1760516993.6595328,-8.547735214960328,-0.007862380105342369,1.1272638727743942,0.17217570082258515,-57.69149519751732,48.09213961139275,-73.11074154594048
1760516993.6694694,-9.260631934029448,-0.040178197440417535,1.1161289837529156,0.14831077876256135,-56.54450918356983,49.42998001826015,-75.66056463689958
1760516993.679488,-9.99987489824081,-0.07988326221554169,1.0994644891973389,0.12428964541412607,-55.04432585726977,48.66555652472082,-77.02348792676949
1760516993.689505,-10.755891758804717,-0.12490035877485892,1.0784961722857076,0.10200815650015138,-53.30378715072051,45.986543013793636,-77.19168678353003
1760516993.699472,-11.518299477811418,-0.1725600797013519,1.0546794155909078,0.08303612563723377,-51.409265215515404,41.73526632253158,-76.2464350639152
1760516993.7095084,-12.276735066799363,-0.21979597982448845,1.0295224344692273,0.06848964616884913,-49.412883165629324,36.366399759494385,-74.34807807217469
1760516993.719698,-13.021615106538354,-0.2634738154509957,1.0044253470466062,0.05897628493123063,-47.33297731047391,30.391714355557173,-71.71511623292089
1760516993.7297428,-13.74474341847443,-0.30078001558518547,0.9805443714774483,0.05462101581517651,-45.16134371633276,24.31958740423315,-68.5959227137477
1760516993.7395716,-14.439720031584526,-0.3295846595025606,0.9586943208434816,0.05515797960813292,-42.87456917605891,18.5982641990499,-65.23829372032687
1760516993.7496207,-15.102142304072917,-0.34871112073803456,0.9393036089353778,0.060057124070078335,-40.44654392423262,13.571280895552242,-61.862187596791244
1760516993.759481,-15.729618307277443,-0.3580648122422602,0.9224292339211692,0.06865070769750481,-37.8597861727582,9.450946412118242,-58.6396984963788
1760516993.7694921,-16.32162814459643,-0.35859769266151914,0.9078267788987694,0.08023179629761265,-35.11396512078203,6.3120373426585905,-55.684265346407194
1760516993.7794778,-16.879274612316838,-0.3521193639307015,0.8950584507166646,0.09411111593921329,-32.23064104678752,4.10398853578626,-53.04921253370928
1760516993.7895944,-17.404967052173085,-0.34100196396350185,0.8836154933962617,0.10963500214937173,-29.253726774211238,2.676955492371439,-50.73443143676315
1760516993.79957,-17.902083088107823,-0.32784650446475183,0.8730309912713475,0.12618029845469445,-26.245705256478473,1.8157746241663617,-48.69928799500789
1760516993.8095477,-18.374647581593884,-0.3151717909096403,0.862963614755151,0.14314660310789482,-23.280333527377948,1.2759620998026586,-46.87937506324955
1760516993.8195755,-18.827051675839826,-0.30516053732726117,0.8532405900210493,0.15996041635766223,-20.433289650030556,0.8169515331750367,-45.20433980846823
1760516993.8297,-19.26380897114279,-0.29946874527361766,0.8438577474584,0.17609407354608686,-17.772669358834943,0.22923396667595655,-43.61382206545195
1760516993.8394587,-19.689320625044346,-0.29908895436911614,0.8349438811905999,0.19109261841515293,-15.35118117573276,-0.6464014184600424,-42.068808267912374
1760516993.8494718,-20.107610227058963,-0.3042605237284093,0.826703036582263,0.20459825344897062,-13.201343770872983,-1.9078863739916847,-40.55657733777009
1760516993.8594587,-20.522002527010738,-0.31443488513486867,0.8193499783547344,0.21636405213845,-11.33418320665857,-3.588321932389948,-39.08877056595918
1760516993.8694663,-20.93475684624036,-0.32831765738155794,0.8130514352140799,0.22625410998778414,-9.741116908347111,-5.658275437088994,-37.69365443694374
1760516993.879669,-21.346713657712918,-0.3440103084297372,0.8078806103817756,0.2342336895409425,-8.39809095838517,-8.032153552539699,-36.404973863979556
1760516993.889474,-21.75705105855305,-0.35925782403974327,0.8037872298423111,0.2403563765211136,-7.270737051771888,-10.577176154442789,-35.25050421690507
1760516993.899464,-22.163256109695702,-0.37178095156389995,0.8005825315749691,0.24475314386633315,-6.3193611985956535,-13.124025531589302,-34.243233374654665
1760516993.9095824,-22.56138286977062,-0.379642777060711,0.7979392295604002,0.24762231434091952,-5.502871175756846,-15.478764894989464,-33.37709717567897
1760516993.9194524,-22.946601013052764,-0.3815820513168351,0.7954087824356766,0.24921472336883763,-4.781157806962389,-17.43590638994822,-32.62773839743337
1760516993.9294546,-23.31396139603014,-0.3772488359305662,0.7924587528023725,0.24980830396431764,-4.115874982400832,-18.792485786042317,-31.957371083237103
1760516993.9394803,-23.659247985248864,-0.36730075705561754,0.7885302965552452,0.24967027791180307,-3.4699500822913034,-19.36273187421081,-31.321924423999853
1760516993.949473,-23.97976579291465,-0.3533490529973263,0.783111643981662,0.2490105682295487,-2.806424118988599,-18.9925919143159,-30.678401178662682
1760516993.9594738,-24.274929728045265,-0.33777031551450176,0.7758197136856798,0.24793460527480704,-2.087318023124536,-17.573193632406113,-29.990742285402817
1760516993.9694674,-24.546558658509426,-0.32341758783529506,0.766479011286154,0.24640562644788272,-1.2731695154260987,-15.052355509756717,-29.233200896507302
1760516993.9794738,-24.798832146906555,-0.31327424170411017,0.7551847345487372,0.2442250536615994,-0.3237526826848546,-11.443421478086359,-28.391033856392422
1760516993.9894598,-25.03792414648814,-0.3100962172919077,0.7423362658369338,0.24103579747202947,0.799671019435583,-6.830889640467262,-27.4590015005741
1760516993.9994707,-25.271375361849273,-0.3160816145952801,0.7286288252263005,0.23635026512001822,2.1304114511828485,-1.372457472485561,-26.438543652393708
1760516994.0095174,-25.507290970489702,-0.3325929934471415,0.7149955347029575,0.22960382184376046,3.6907959709218927,4.702844211612884,-25.334450892426954
1760516994.019493,-25.75344903150849,-0.35994482290138957,0.7024998607410332,0.2202329885068757,5.4854115399201255,11.100859734359465,-24.151433318160695
1760516994.0295737,-26.016387843673186,-0.39726567232216214,0.692189092294109,0.20777221631788814,7.494044901984768,17.473505679815617,-22.890486033469436
1760516994.0397122,-26.300526409900332,-0.44245354516397717,0.6849312868162705,0.19195425298478816,9.66586171846846,23.43570745538695,-21.54472284867896
1760516994.0497384,-26.60737366452892,-0.49225368322067403,0.6812672325583781,0.17279245435687757,11.916925670394654,28.588490850972548,-20.094593201587013
1760516994.0594623,-26.934897899965467,-0.5424881336208807,0.6813113384592994,0.15062460892497864,14.13329287269048,32.54772190269414,-18.50301172716141
1760516994.0694826,-27.27714546631805,-0.5884484682525727,0.6847289497898538,0.1261075977928415,16.181376554912074,34.97671091709209,-16.711594815982806
1760516994.079512,-27.62420084078851,-0.6254289071201538,0.69080366765068,0.10016575225981893,17.92603038562541,35.619703707318294,-14.639558168465644
1760516994.0895572,-27.96255549974124,-0.6493352595344253,0.6985905409042061,0.07390673539062034,19.255020140999857,34.332515064587504,-12.186653867370646
1760516994.0995178,-28.275899357431893,-0.6572709930378409,0.7071340218424247,0.04852297224201162,20.10661471091079,31.10634939296981,-9.240805475385628
1760516994.109465,-28.54627883125671,-0.6479933613411331,0.7157172310675116,0.02519397246524287,20.49545667041369,26.081197996096822,-5.690050405860575
1760516994.1194777,-28.755498724185507,-0.6221574630141303,0.7241032826260368,0.0049992106419944485,20.531145993406454,19.5460356386383,-1.4373519569549682
1760516994.1295,-28.886597150018297,-0.5823129966179562,0.7327292363717095,-0.011152665199509987,20.424281514264152,11.924246794174945,3.583904270399007
1760516994.1395462,-28.92520626790339,-0.5326656245878448,0.7428153383255245,-0.02257332712482489,20.475991914322933,3.7441471604229837,9.396176600632344
1760516994.1494849,-28.860633987191605,-0.47864602476596757,0.7563534912523626,-0.028818516476782654,21.049143419829797,-4.403977706412477,15.967932724952544
1760516994.1596391,-28.68655752423403,-0.4263405954506608,0.7759418793956055,-0.029684538335783724,22.52232508043416,-11.921256334022626,23.20900661532848
1760516994.1696317,-28.40128933109432,-0.3818344659476965,0.8044481287074278,-0.025180272895790244,25.231091260895624,-18.25935743212357,30.971301177400473
1760516994.1796649,-28.007638491945315,-0.35051288489080146,0.8445198272219029,-0.015480417289160359,29.404163858030092,-22.979327983614954,39.05396031190999
1760516994.1895957,-27.512436330061963,-0.33637230665466916,0.8980086991656159,-0.0008674641338067296,35.10451339427692,-25.803314076569077,47.21156244526563
1760516994.1995106,-26.92582445996497,-0.3414071455939867,0.9654091672168496,0.018326616109288638,42.18571786851767,-26.65225841584799,55.16390221030576
1760516994.209515,-26.260419120156257,-0.36515243786700213,1.045419478387419,0.04176155327052522,50.272523189489675,-25.663398784018163,62.60644780768847
1760516994.2196054,-25.53046602144886,-0.4044679367484868,1.1347201496939572,0.06908830620163726,58.771492606446955,-23.18296864044403,69.22142515918664
1760516994.2294836,-24.75108250127056,-0.4536412648649634,1.2280411381194853,0.09988073948416812,66.91375038959708,-19.731880541184047,74.69047297948359
1760516994.2395077,-23.937649197525165,-0.5048633934061513,1.3185563485673375,0.13348482558386485,73.82774499810242,-15.945242136272777,78.7105790960315
1760516994.2494879,-23.10536897840311,-0.5490871297936518,1.3985950688257376,0.16880027002401635,78.63602542788514,-12.490253157408524,81.01503807200004
1760516994.2594962,-22.268969346967978,-0.5772195404413436,1.4605941003987797,0.2040512477714283,80.56627234329233,-9.97130375333938,81.40002352461734
1760516994.2695591,-21.442498517359578,-0.5815241759666745,1.498146381762245,0.23663914716411,79.06327415918557,-8.835446436761822,79.75503079348071
1760516994.279661,-20.63915978938064,-0.5570252241289334,1.5069578727186554,0.26317919522379124,73.88571299099173,-9.29453322133118,76.0925715528562
1760516994.2895303,-19.87113871818094,-0.5026358512552281,1.4855269387111762,0.2797922280980378,65.17072092517422,-11.280434137699636,70.5702823828188
1760516994.2994945,-19.149392150092563,-0.4217181658956234,1.4354152247634662,0.28265590481602965,53.45152467256686,-14.445664889242606,63.498241128023544
1760516994.309537,-18.48337836090004,-0.3218628765947197,1.3610706509967678,0.26873337669184516,39.619731360621614,-18.21360643067101,55.326362628648546
1760516994.3195071,-17.880712096274333,-0.21385324068329073,1.2692549414334495,0.23652114902106602,24.833154471523386,-21.872060319447627,46.61086376601945
1760516994.3295386,-17.346735633430274,-0.10998817580741098,1.168182502445634,0.18662640222993684,10.38043395253395,-24.69406287623508,37.963572474309764
1760516994.3395638,-16.884018309739865,-0.02209687711836852,1.0664983442370974,0.12201482988572539,-2.4775300786456413,-26.06357699277189,29.991607758114792
1760516994.3495054,-16.49183469127844,0.04036418891020434,0.9722458059136861,0.047846517716305534,-12.664253489913811,-25.58250488052495,23.236564738667333
1760516994.3596373,-16.165715306774025,0.07177296448795498,0.8919967193327167,-0.029094112437575207,-19.417250223016104,-23.13933364320326,18.121722290182017
1760516994.3697052,-15.89719902084065,0.07109819105089633,0.830289165381796,-0.10129000290195204,-22.37031771384592,-18.927374117582506,14.913675313301615
1760516994.3798006,-15.673930828840607,0.041826116838091974,0.789428272726809,-0.16155921665742864,-21.577403764153704,-13.410209590192968,13.702101859348812
1760516994.3900445,-15.480231385923567,-0.008897883995442717,0.7696028535471734,-0.20411308289429334,-17.47788846251969,-7.24177465755882,14.39871422272641
1760516994.3994954,-15.298202143153508,-0.07170177332174414,0.7692098180743868,-0.22540947628721197,-10.813290907079649,-1.156708118965688,16.754087395149593
1760516994.409644,-15.109320186615216,-0.13666784259054537,0.7852754500459694,-0.2246378367080606,-2.5125720775701774,4.1482439490204985,20.38922436084119
1760516994.419495,-14.896344416826372,-0.1949126942373359,0.8138990311064334,-0.2037466718997209,6.433835816286151,8.120066771548977,24.837566249014095
1760516994.4296222,-14.645249456374943,-0.239784510359484,0.8506878789983854,-0.16702223059501298,15.092281187820735,10.424386409728148,29.592631911158374
1760516994.4395142,-14.346870770226278,-0.26752092777828745,0.8911773882935881,-0.1203192204866906,22.681566572337694,10.978439217267747,34.15639833746399
1760516994.4495091,-13.997993880408973,-0.2773465823555293,0.9312267879511238,-0.07010711215004758,28.63686757449333,9.940123110644892,38.083799012642416
1760516994.4595947,-13.601726677649859,-0.2710992394037605,0.9673628126751721,-0.022517121186762214,32.63866983304916,7.65986355087138,41.01930400463604
1760516994.4696224,-13.167117625278236,-0.2525370395056648,0.9970307606349312,0.017445683655137118,34.60875891353138,4.6083137858587,42.72247766676906
1760516994.4795053,-12.708091880725698,-0.2264936541454935,1.01871915599216,0.046413748369971614,34.67927191717197,1.2954679722734996,43.08068245449937
1760516994.489539,-12.241856174802363,-0.19802740670153543,1.0319475909743938,0.06284764336160259,33.14322320565088,-1.8043985206618007,42.10858262564794
1760516994.4995048,-11.78697169471725,-0.17167678155578184,1.0371345789504811,0.06692520232622493,30.39574793524047,-4.311334028097751,39.93555817070809
1760516994.5096037,-11.361319234951043,-0.1509018889711355,1.0353822716320353,0.06019777333682267,26.874780695513397,-5.976146671482595,36.78333982136174
1760516994.5194972,-10.980186197924859,-0.1377593020554274,1.0282231028841247,0.045112044822475515,23.008331849124033,-6.693660039964472,32.936994679992985
1760516994.5295281,-10.654687934392951,-0.13282207803053986,1.0173705945955778,0.02450321192309552,19.173318363414815,-6.4953474619213125,28.712798341204998
1760516994.539632,-10.390693204129061,-0.13531995592912557,1.004505936628324,0.00115023343882007,15.668458649328308,-5.525994156794615,24.426534968293325
1760516994.549504,-10.188358750050476,-0.14344520635477842,0.9911176325954586,-0.022547363589497427,12.701441462763215,-4.009862771349261,20.36538018137394
1760516994.5595145,-10.042300900457938,-0.15475419332763185,0.978398401721723,-0.044749075636842016,10.38872195170434,-2.2118875765012618,16.765786839813824
1760516994.5695102,-9.942352615059203,-0.16659315911259057,0.9671956712665798,-0.06422075750427919,8.765061141425575,-0.39906516237589823,13.798856071693695
1760516994.5795078,-9.87478193503928,-0.1764852776588881,0.9580092289419985,-0.0802836639120886,7.799363296623297,1.1934610212301238,11.563715807087036
1760516994.5895095,-9.823795652857754,-0.18243251236588606,0.9510282523780855,-0.09270848037836131,7.413404326832697,2.3881357115075756,10.088547418924172
1760516994.5995145,-9.773132863854231,-0.18310791083231076,0.9461974492466618,-0.1015946159620745,7.500530401806281,3.0803586603452304,9.338147571343425
1760516994.6095893,-9.707568111918434,-0.17793580675630344,0.9432991433678941,-0.10726320311510963,7.942177682878189,3.242734890895807,9.226365171747744
1760516994.619697,-9.61418107525439,-0.16707269150260143,0.9420367863443985,-0.11017684832368332,8.620960236686035,2.9188766845477794,9.631480950754476
1760516994.6295037,-9.48329333292132,-0.151308318873196,0.9421065402891964,-0.11088551912798619,9.429917198263853,2.2086605843365508,10.412586712782039
1760516994.6395392,-9.309012918741601,-0.13190765045429245,0.943246989778845,-0.10998958589167554,10.2781502503582,1.2477488949132678,11.425200552694267
1760516994.649517,-9.089363292615001,-0.11041399852288208,0.945262077305338,-0.1081089688462162,11.093454881955505,0.184667374328309,12.53466246526278
1760516994.6595793,-8.826009315593,-0.08843513476278538,0.9480183785691576,-0.10585031580415141,11.822683620146794,-0.8412390908996278,13.626265544930385
1760516994.6695578,-8.523632065730759,-0.06743711016094685,0.9514234741113111,-0.10376960576342145,12.430548290748117,-1.718050611340561,14.611565883058455
1760516994.6795173,-8.189045081976841,-0.04857251165874838,0.9553955665869096,-0.10233294092277527,12.897442718998438,-2.3735548351115696,15.430821450109454
1760516994.6895082,-7.8301794842406025,-0.03256769303978662,0.9598348646145655,-0.10188176918307949,13.216712421578176,-2.7804141393804116,16.05195877175965
1760516994.6995285,-7.455084583506968,-0.019685479577798617,0.964605137661125,-0.10260960901543233,13.391670603204783,-2.9541696807012245,16.466795665978683
1760516994.709526,-7.0710869495646955,-0.009766915174197173,0.9695297940824826,-0.1045556355983147,13.432588868723968,-2.945074626777152,16.685434513239176
1760516994.719805,-6.684223549786715,-0.00234112127255328,0.9744016427522549,-0.10761718985671195,13.353866259776861,-2.825570627965687,16.72978934740577
1760516994.729569,-6.299018618476114,0.0032196055952977776,0.9790013736247459,-0.11157993219521306,13.17156816397129,-2.6757135217348162,16.627145774960425
1760516994.7395597,-5.918616992336477,0.007529188727564371,0.9831191494843445,-0.11616202243459349,12.901495839972952,-2.568958279286247,16.404510175266957
1760516994.7496195,-5.545226017355319,0.011033062116205581,0.9865764890084072,-0.1210671597860541,12.557885654258232,-2.5604292004640614,16.08432142169239
1760516994.7596002,-5.180762036548479,0.013897610327024329,0.9892487974949801,-0.12603976878451081,12.152755604648673,-2.679199151287967,15.681900341700132
1760516994.7695172,-4.827556846430299,0.01596388917083838,0.991088839811021,-0.13091386878833045,11.695835292578613,-2.9253201749478364,15.204799090550903
1760516994.7795527,-4.4889637533420075,0.016774149582958694,0.9921472479754582,-0.13564611708061422,11.194945862601129,-3.2715571266483376,14.653970381995464
1760516994.789527,-4.169713933269675,0.01566813560434574,0.9925808065189018,-0.14032455371490463,10.656642845058267,-3.6691155657676715,14.026417338283597
1760516994.7995892,-3.8759083593615857,0.011936428094292897,0.9926374352707517,-0.14514835051083752,10.086906299435052,-4.05619411685494,13.318764104084028
1760516994.809629,-3.6145875734962667,0.005008111284026417,0.9926119090070669,-0.1503799754710501,9.491674955479075,-4.367935879039732,12.531062266406511
1760516994.8197553,-3.392902524137144,-0.005362090626664372,0.9927784725814127,-0.1562784860457345,8.877088222958278,-4.54627961026724,11.670130376010468
1760516994.8295279,-3.2170070487031865,-0.018951758756900174,0.9933201501303276,-0.16302876631390412,8.249418678205107,-4.548298133297213,10.751794508047759
1760516994.8395462,-3.0908806760961562,-0.03501609977466296,0.9942799857561722,-0.17068317683994497,7.614806926677298,-4.351858975548472,9.801550308160174
1760516994.8495312,-3.0153351704648497,-0.052344076693239164,0.9955508389303049,-0.1791280499744519,6.978980275508926,-3.957864743281143,8.853409538042316
1760516994.8595319,-2.9874388832344136,-0.06941971457814078,0.9969029384068634,-0.1880801897839025,6.347105803826367,-3.388912959358152,7.947013869240263
1760516994.8695343,-3.000512981280309,-0.08465549991151428,0.9980344067261073,-0.1971118571563602,5.723830699156381,-2.6848639324992964,7.123437794344012
1760516994.8796275,-3.0447343994104985,-0.09664749432555132,0.9986269803267623,-0.205698549966949,5.113469324303523,-1.8963544646115242,6.42037224088084
1760516994.8896236,-3.108252368597679,-0.10439818936002235,0.998394865416801,-0.2132815978977032,4.5202513026551046,-1.0775836046921723,5.867504121576886
1760516994.8996024,-3.1786223564922262,-0.10746379847523752,0.9971221142382348,-0.21933600725641747,3.948549527298669,-0.2796567254342184,5.482856765085919
1760516994.9099839,-3.24430931343899,-0.10600371182963256,0.9946882456016296,-0.22343333483251965,3.403040231141087,0.4545458435420791,5.2706542879038825
1760516994.919794,-3.2960172786495647,-0.10073271412716557,0.9910826588372398,-0.22529068961414503,2.88877842177884,1.0934891533101134,5.2209759896558054
1760516994.9296093,-3.327652792957545,-0.09279431147056334,0.9864082539555299,-0.22480004257339328,2.4111738317592524,1.6181054022724533,5.311151851400462
1760516994.9395185,-3.3368080515705163,-0.08358456932422012,0.9808755350089174,-0.2220353106796828,1.9758233485869057,2.02132219981361,5.508592061655354
1760516994.949625,-3.32473905017353,-0.07456037400407053,0.9747894892652935,-0.21723734176867518,1.5881277462484287,2.306605965914641,5.774586107108854
1760516994.9595814,-3.295895581725808,-0.06706329919156527,0.9685310627886413,-0.21077948072521524,1.252634063137206,2.4861200611567686,6.068551142839098
1760516994.969548,-3.2571182949515234,-0.06218137094876771,0.9625334755676753,-0.20311919815356266,0.9721141587553612,2.578909883999504,6.35222330137483
1760516994.9795153,-3.216646677135429,-0.06065965512678166,0.9572527015506669,-0.1947437062472738,0.7464925868234512,2.609245771181725,6.593331698858845
1760516994.9895477,-3.1830826103911627,-0.06286013308586867,0.9531321477515012,-0.18611876485581724,0.5718301453964765,2.6049957569604487,6.768357432925494
1760516994.99955,-3.164433066981992,-0.06876349597682893,0.9505635750039085,-0.17764961644760657,0.4396134743653428,2.5957679770052002,6.864069529915149
1760516995.0096653,-3.1673208739624243,-0.07800119255306888,0.9498486968780738,-0.1696609884642799,0.33657871849256327,2.610596296077137,6.877662637036724
1760516995.0198858,-3.1964134586385695,-0.08990557689008848,0.9511675669059925,-0.16239903573220785,0.24521818887075697,2.675110055965694,6.815497918811128
1760516995.0296288,-3.2540834572369692,-0.10356847325755658,0.9545597487179311,-0.1560520685111146,0.1450083820706425,2.808362664574816,6.690649633319023
1760516995.0395334,-3.340286329516916,-0.11790244598384557,0.959921939604592,-0.1507805137227102,0.014283089842838556,3.019727500098919,6.51965080613947
1760516995.0495293,-3.4526206425599306,-0.13170322410505442,0.9670219127048323,-0.14674276813235543,-0.16742484004388986,3.306444380488986,6.318972749742146
1760516995.0595915,-3.58652740951067,-0.143715210006872,0.9755248858744556,-0.1441049422283068,-0.41683233881586146,3.6524593969479566,6.1018318837246905
1760516995.0695236,-3.735586673649601,-0.15270440573451752,0.985025997871363,-0.14302892087344038,-0.7444767852561976,4.029094528386137,5.875872988235901
1760516995.0795548,-3.8918827955864037,-0.15754418276942533,0.9950817131410894,-0.14364178344861006,-1.1527995118387886,4.397786888251382,5.642123747396048
1760516995.0895567,-4.04643275348665,-0.15731866330548533,1.0052334022307194,-0.1459966033273731,-1.635158546901786,4.7146853585888415,5.395363002609807
1760516995.0995378,-4.189698183843971,-0.15144526944986164,1.015018342833019,-0.15003756339727292,-2.176140438054584,4.936391077622069,5.125737653158231
1760516995.1095638,-4.312219186851745,-0.1398103427021523,1.0239676719614508,-0.15558083679407103,-2.7533934689651964,5.025724642816323,4.821181721237169
1760516995.1195493,-4.405397325172744,-0.1228977802903251,1.0315976380579008,-0.16231762614779904,-3.3409637697324053,4.956231198478473,4.470030817685892
1760516995.129562,-4.462405020524861,-0.10187411373003787,1.03740861331708,-0.16983837524496548,-3.9138320106874938,4.714276197534157,4.063236876081805
1760516995.139565,-4.479122721265988,-0.07858580293067725,1.0409115808261569,-0.1776692355318295,-4.4530867710343855,4.298044270663269,3.595733626304014
1760516995.1495569,-4.454941782621786,-0.05543533869027747,1.0416982399255104,-0.18530608758387135,-4.950977190591491,3.7134566285697588,3.066684877808842
1760516995.1596332,-4.393254734211958,-0.035129510885422696,1.0395553195133047,-0.19223107991250815,-5.414984965880917,2.967845655733719,2.4784953371876393
1760516995.169577,-4.301493210851194,-0.020324366631145924,1.0345988832804573,-0.19790386151484576,-5.870076436877385,2.063023746007071,1.8345942264448951
1760516995.1795733,-4.190649968386354,-0.013216951759246224,1.0273795955558238,-0.20173290880724298,-6.3585034509665865,0.9899721873761571,1.1361871498381426
1760516995.1895578,-4.07431112332073,-0.0151494279579847,1.018900334154771,-0.20304566355111298,-6.936957813458527,-0.2724797843853144,0.37844756433498544
1760516995.1995602,-3.967309564293513,-0.026294411374794893,1.01050643805198,-0.20108222612142865,-7.671462527745362,-1.7531315821516515,-0.45308286157538036
1760516995.20957,-3.884177787727233,-0.04548097728913305,1.0036533978928786,-0.19503237243805985,-8.630877821885392,-3.477426024398551,-1.384951879880639
1760516995.2195692,-3.8376197293929453,-0.07020252172454777,0.9996048687045307,-0.18412216489306008,-9.880081857621544,-5.4511252070370455,-2.456284348563676
1760516995.2295604,-3.8372298872433457,-0.09682483751463258,0.9991394420747947,-0.16774024088528508,-11.473684401827784,-7.641526255736928,-3.7168518699363338
1760516995.2398465,-3.8886568900162546,-0.12098518274227524,1.0023368007506954,-0.14557984929180215,-13.450680391172797,-9.960306478367709,-5.222809342837607
1760516995.249651,-3.993335709120293,-0.13814111703264248,1.0084830907440743,-0.11776410270709259,-15.830010151450892,-12.252400977762525,-7.030713267401882
1760516995.2596192,-4.14881134547108,-0.14419828640031243,1.0161022294348938,-0.08492153602085645,-18.60681732904584,-14.294720859647098,-9.190836328925368
1760516995.2696197,-4.349573316089661,-0.1361283465388256,1.0230992319639114,-0.04818802838201196,-21.749391388505778,-15.807228825303948,-11.740962511058463
1760516995.2795913,-4.588240078681593,-0.11248642283636938,1.0269959735878962,-0.009127081318565282,-25.19724271531189,-16.477117786164587,-14.701713250726508
1760516995.2895658,-4.856890315808433,-0.07375038761144494,1.0252426138732842,0.030421268405957956,-28.86122550776211,-15.994732451981854,-18.07401241532982
1760516995.2996242,-5.148335717150738,-0.022426524118072264,1.015589061743171,0.0685366153307722,-32.62681314213983,-14.097612709737623,-21.838653438057094
1760516995.3095834,-5.457159903130669,0.0371068579132068,0.9964918814251368,0.10342322555574718,-36.36135950506978,-10.61692226089667,-25.957308386393446
1760516995.3195686,-5.780399141386672,0.0990147986704044,0.967511071636143,0.13358622032773684,-39.925455492180575,-5.518942858390075,-30.373984766811464
1760516995.3296278,-6.117802696234101,0.15663858472492037,0.9296252804587666,0.15794823464144644,-43.18749401050545,1.0663172101758682,-35.01605644634448
1760516995.3395958,-6.471675345271338,0.2032643088635642,0.885377078379376,0.17589029625508434,-46.03952741862619,8.836593645963365,-39.79450873958031
1760516995.3495717,-6.846360434179771,0.23292187526528774,0.8387653819882576,0.18722071259929077,-48.41168293403356,17.333635892836572,-44.60370669040651
1760516995.359632,-7.2474563555571185,0.2411192543461083,0.7948355681226644,0.19209775546792954,-50.282082388054796,25.98490786865337,-49.321580936012026
1760516995.3695738,-7.68086928989147,0.22544524913008376,0.7589760358500491,0.1909466453777352,-51.67963526879685,34.166332927547934,-53.81149796000016
1760516995.3795686,-8.151803492738996,0.18598243671318912,0.7360069423662579,0.18440692776272574,-52.67823579467368,41.276826052816375,-57.92715912810753
1760516995.3895683,-8.663796749973434,0.1254477808831136,0.72923535007776,0.1733220647090269,-53.382559640623796,46.81193716398449,-61.52148672197323
1760516995.399618,-9.21792732383187,0.048961070783774145,0.7397244739765251,0.15875374769060263,-53.907547688704696,50.42337457964817,-64.45941849579043
1760516995.409994,-9.812328517301589,-0.03661075790590552,0.7660196378895834,0.14198433189470447,-54.35543167996548,51.95429408961029,-66.63297305559173
1760516995.4195836,-10.442116061467981,-0.12365543657474083,0.8044389430868111,0.1244690658790574,-54.79519822199367,51.446187206077155,-67.97550222035817
1760516995.429707,-11.099752478221196,-0.20493943966504405,0.8498255572446947,0.10771923693322866,-55.249080544070466,49.11955893947043,-68.47154135789738
1760516995.4396513,-11.77577157742671,-0.2745774608948638,0.8965083754261857,0.09313256309245041,-55.68891801557811,45.33493016497275,-68.15950934957532
1760516995.4496071,-12.459712268705582,-0.3286502451196367,0.9392082904761826,0.08181763470728806,-56.042656599688954,40.54224029463597,-67.12636542001431
1760516995.4596267,-13.141090088344946,-0.3654168332528447,0.9737161190951923,0.07446578195689511,-56.20884653988568,35.226335876725976,-65.4954125012202
1760516995.4696605,-13.810261243870443,-0.3851809931520157,0.9972730642068628,0.0713055902175179,-56.07550450623575,29.85513109523814,-63.4099969602457
1760516995.479749,-14.459084502288544,-0.3899204106949583,1.0086632346682247,0.07214530793054547,-55.53941989688698,24.835762300141678,-61.01646316592757
1760516995.4897735,-15.081338549183345,-0.38278601045007005,1.0080754175927764,0.07648092264536714,-54.522672027198794,20.482586323319694,-58.449349798761
1760516995.4995742,-15.672893878695756,-0.3675560645428304,0.9968130655017968,0.08363239901821676,-52.98429153780789,16.99910252687077,-55.820790294899915
1760516995.509614,-16.231666630371315,-0.34810828385673015,0.9769330371092542,0.09287042673889452,-50.9261637834238,14.473941559423402,-53.21487461238269
1760516995.51957,-16.757400807418726,-0.32796283175324836,0.950881332252802,0.10350721006718586,-48.39315791455357,12.889266866858271,-50.68672025297301
1760516995.5295725,-17.25133885799475,-0.30994540192086745,0.9211739826181963,0.11494035986613366,-45.468052260204374,12.138626758539338,-48.2653759550666
1760516995.5395675,-17.71584865853607,-0.29600874004026656,0.8901490408736822,0.12665372258664237,-42.262255726535955,12.050689717191355,-45.95945544218274
1760516995.5495858,-18.154073439317262,-0.2872241131789007,0.8597964606866909,0.13819089750498234,-38.90372038034333,12.415347905009744,-43.76442983046283
1760516995.5596325,-18.56965580142247,-0.28391573759476374,0.8316599536646301,0.1491241413695768,-35.52377352205659,13.009146439828212,-41.670560435465106
1760516995.5695705,-18.96655778674224,-0.28587658328009746,0.8067989967491478,0.15904040636249456,-32.244711401424006,13.617658699688915,-39.670358601681755
1760516995.579566,-19.3489626340186,-0.2925891693454627,0.7857981325595128,0.1675570045363264,-29.169755191228898,14.053176990370396,-37.76427201083381
1760516995.589575,-19.721212070565823,-0.3033869518931995,0.7688120869278319,0.1743657920760469,-26.376369963490546,14.166912477194545,-35.96328247351456
1760516995.5995588,-20.087718076980735,-0.3175256697969168,0.755637174454276,0.1792923616075888,-23.9131233770432,13.855765999932883,-34.287525640470044
1760516995.6097069,-20.45279741483006,-0.3341752097811272,0.7458008840286812,0.18234946144625636,-21.799433781919735,13.064502190336786,-32.76095888294462
1760516995.6195984,-20.820409041825286,-0.35237419799416186,0.7386616941624533,0.18376360823257437,-20.026974376287114,11.784616545461633,-31.403259131325143
1760516995.62957,-21.193817437435836,-0.3709999111836738,0.7335099217309284,0.1839604829212624,-18.56136648981966,10.051181605143423,-30.221076496188477
1760516995.6396399,-21.575241815457574,-0.38879376200302657,0.7296590825906271,0.1835055802670602,-17.34319231053562,7.938545018477327,-29.201091153576375
1760516995.649792,-21.965566706632725,-0.40445575206712153,0.7265183163732126,0.18300802929360038,-16.288167470620458,5.5551634491478765,-28.30687447746372
1760516995.6595871,-22.364176994495264,-0.41679297308098795,0.7236410611453173,0.18300513941989904,-15.287246614413956,3.0373724585537714,-27.48052065619972
1760516995.6695838,-22.76894730672294,-0.42488941617467296,0.7207511385330091,0.18385173697798846,-14.208168306966304,0.5416941832081863,-26.648780172898473
1760516995.679618,-23.176379826541492,-0.4282628093320767,0.7177510029957859,0.18563959109940312,-12.900239539055843,-1.7646114593695248,-25.732392308113802
1760516995.689566,-23.581864028293968,-0.426985657651384,0.7147165768135593,0.18816610157593094,-11.203873970788619,-3.7147551093693205,-24.656744092475503
1760516995.6995924,-23.980031418935514,-0.4217612855380547,0.7118798316566087,0.19095911038920652,-8.965511187029808,-5.155073609554319,-23.361948796688484
1760516995.709579,-24.365187285632587,-0.413950836965317,0.709595857862352,0.19335087219512007,-6.057225057048037,-5.958593994555524,-21.810830374331648
1760516995.719578,-24.731803702857032,-0.40554183852429454,0.7082878641189925,0.19458373968612275,-2.398925859367769,-6.038822423679915,-19.993904422485574
1760516995.729594,-25.075045272453682,-0.399040301795634,0.7083638906360324,0.19392566110050258,2.020041060232388,-5.362914537066807,-17.931028015263433
1760516995.7395647,-25.39127539259982,-0.39726647749043587,0.7101046506338939,0.19077508475945895,7.123620546283637,-3.963118695186405,-15.669776346802381
1760516995.7496748,-25.67846899797499,-0.4030453823690507,0.7135332455302457,0.18473984629959367,12.739660986339235,-1.9450135404872244,-13.280744445388917
1760516995.7596164,-25.93645051770507,-0.418805821622667,0.7182924459046254,0.17568050630845672,18.601220993872786,0.5092916419588582,-10.84997069284401
1760516995.7695878,-26.166888268315144,-0.44612802610936,0.7235677323733669,0.1637148741604738,24.360211353279684,3.1449374883340626,-8.468710438792225
1760516995.7795687,-26.373004303439508,-0.48530141215283334,0.7280972315438732,0.14918723480210877,29.61368708186899,5.646676266231661,-6.220965589915608
1760516995.7895868,-26.558994231623693,-0.5349661145199591,0.7303001164230282,0.13261201564148856,33.94180331124464,7.660556321383052,-4.169516233285117
1760516995.799786,-26.729190188219047,-0.591914927433762,0.7285345454443397,0.11460599630696554,36.95519791965051,8.82444143194138,-2.341684927514461
1760516995.8095884,-26.887041436858528,-0.6511264269862842,0.7214675682927882,0.0958253040152707,38.34821262285905,8.805535775638825,-0.7166519387043584
1760516995.8197188,-27.034030298854688,-0.7060831251965176,0.708506569031742,0.07692294426378955,37.952775195528496,7.341856955578462,0.7832987523517978
1760516995.8295734,-27.168680067003365,-0.74939549036972,0.690211992661848,0.05853849044421904,35.78604193827658,4.283569666377508,2.2949405887752445
1760516995.8396645,-27.285833113595192,-0.7736998369826548,0.6685931679462401,0.04132370225963257,32.083450479249535,-0.37076429027382535,4.007323464380199
1760516995.8496222,-27.37636800447474,-0.7727315163000797,0.6471898822634468,0.025998145756633943,27.308281822497065,-6.448611273630903,6.144814104927442
1760516995.8596265,-27.427478336653145,-0.7424123276614935,0.6308658804330514,0.013419990498161402,22.129865260098505,-13.59435395478787,8.940542355113777
1760516995.8695905,-27.423556667869963,-0.6817511324742953,0.6252862782112193,0.004650632561984124,17.36573223279029,-21.28176868460903,12.602983323847402
1760516995.8797433,-27.347625321175492,-0.5933519660345491,0.6361119967623722,0.000987120602256071,13.888510567261175,-28.851282072022922,17.280356063578843
1760516995.8896484,-27.183152271189766,-0.48336971638057674,0.6680086140506475,0.003931981205481048,12.505752787689305,-35.57173414417535,23.028686002151705
1760516995.899583,-26.916012966557417,-0.3608602445657105,0.7236216947120357,0.015068461700861081,13.828963319451944,-40.72160538749724,29.78918297173269
1760516995.9095953,-26.53633154450605,-0.23661406127023216,0.8027060169438448,0.03581997734428183,18.154389422325092,-43.67960000970114,37.378879516746196
1760516995.919611,-26.039960912865354,-0.12168180189236207,0.9016069466426387,0.06710288872216263,25.379658948509373,-44.01074090996396,45.49591848607902
1760516995.9296203,-25.429423498468086,-0.025856322020877967,1.0132690307362018,0.10892374230963013,34.97557769197831,-41.53309821643716,53.738578166573596
1760516995.9396434,-24.71421222441458,0.04362749256801708,1.1278689597193547,0.1600058849862055,46.02278702704746,-36.352338536433656,61.63575747362777
1760516995.949588,-23.91043156345323,0.08296339049547094,1.2340331745362503,0.21754067054038595,57.31171527613398,-28.85599373567799,68.6861307723386
1760516995.9597807,-23.03983200326214,0.09208653436689972,1.3204505196892689,0.27714529258226567,67.49388109137684,-19.66595245076394,74.40303212509214
1760516995.969641,-22.128348451821665,0.0743994448493322,1.377591817041241,0.333083286362518,75.2641731242503,-9.555297285296003,78.36182312292834
1760516995.979591,-21.204290296920366,0.03597714769694287,1.399221906691975,0.3787731251274038,79.54760177215111,0.6569542987229342,80.24568744554003
1760516995.989716,-20.29635205455525,-0.01559979653955426,1.3834180590185425,0.4075714865109297,79.66094137980922,10.214117053652963,79.88460607468764
1760516995.9995873,-19.43162178130573,-0.07256564055957815,1.3328843778760922,0.4137612665093243,75.421135009211,18.5124424152769,77.28152237769483
1760516996.0095842,-18.633755136320843,-0.12817874368713583,1.2544815199628854,0.393602875003653,67.1796775439785,25.15715155262331,72.62048272894833
1760516996.0195777,-17.921450858953534,-0.17756543636297384,1.1580615566515562,0.3462438606438159,55.77503492465025,29.97560102611759,66.25419915857067
1760516996.0295975,-17.3073148008697,-0.21803707905052885,1.0548626006953534,0.27425863595429795,42.41066015484694,32.99015464764675,58.672167861430495
1760516996.0395837,-16.797154127224704,-0.24887726593561516,0.9558159240353478,0.18363118399551076,28.480249871081263,34.362908788642606,50.45369572977797
1760516996.0497155,-16.389720482767522,-0.2707538470002355,0.8701089791905331,0.08310316936902996,15.371135096937296,34.32973832695621,42.21192375211054
1760516996.059704,-16.07692379163131,-0.28499945197529347,0.8042386100909251,-0.017037280273326464,4.279383280801946,33.14094566415196,34.535236701635895
1760516996.0697505,-15.844547883893465,-0.2929961117268458,0.7616314162388272,-0.1065047078036866,-3.933804675486518,31.020881583578408,27.9320327816211
1760516996.0795915,-15.673486413147213,-0.29581161684889984,0.7427650330684126,-0.17659218123607523,-8.824350996009043,28.151493753458553,22.78429718572491
1760516996.0896106,-15.541465052370574,-0.29411521492334464,0.7456375606482107,-0.2214546192520385,-10.379013362829529,24.67741748564405,19.31484054279173
1760516996.0996046,-15.425129652470693,-0.2883010512143631,0.7664144177633688,-0.23885256978633398,-8.96641459251447,20.7249161517358,17.572090333341077
1760516996.1095874,-15.302284969633213,-0.27870065037865416,0.8001168862537268,-0.23024039351590755,-5.241336418020616,16.424674058018507,17.434594388914416
1760516996.1196108,-15.15399812894268,-0.2657716224355245,0.8412729459973592,-0.20023403135028187,-0.023432398170544936,11.929174732021655,18.634838145684935
1760516996.1296148,-14.966266396188939,-0.2501905771635396,0.8844975506934458,-0.15562001898577335,5.828131856731562,7.4184884705579215,20.799020306187312
1760516996.1395965,-14.731006816362953,-0.23283173683320263,0.9249901568156706,-0.10413787598305578,11.525815149268494,3.092631009594976,23.496894756444245
1760516996.1495943,-14.446247776168784,-0.2146604797193041,0.9589359371552992,-0.05327608109184217,16.437599177401324,-0.847044825420838,26.29440890103615
1760516996.1596477,-14.115556261085143,-0.19659917745931746,0.9837886481201573,-0.009279743564240226,20.136760239569565,-4.221870404321982,28.801914225658656
1760516996.1696353,-13.746872373204711,-0.1794223957744415,0.9984097422591339,0.02350433264363257,22.416624813851797,-6.898603924701745,30.71201179124384
1760516996.1798823,-13.351003529383583,-0.16371180505507643,1.00304455011864,0.04290047964111122,23.274522209799688,-8.805116198966916,31.823232158706773
1760516996.1897333,-12.940039798792474,-0.14986499932392652,0.9991329411504356,0.048820761826479715,22.872787941019833,-9.935662534626651,32.0482652819772
1760516996.1996217,-12.525905342056658,-0.1381293578235206,0.9889771979184209,0.04290074694364327,21.48651920935153,-10.345403341104548,31.407842425968447
1760516996.209828,-12.119190040943845,-0.12863200012880724,0.9753170213392155,0.027957104397024663,19.447807534066,-10.136522844485933,30.013184167968106
1760516996.2196581,-11.72833454472108,-0.12139115444924771,0.9608799440711958,0.0073777177709905125,17.094669347746983,-9.439944117992459,28.040932138192915
1760516996.2295842,-11.359181595449199,-0.1163088285925518,0.9479783720026582,-0.015453367714624232,14.730413325192051,-8.39693287887719,25.704708237645225
1760516996.239725,-11.014860122654671,-0.11315372811380432,0.9382136012734189,-0.03761603100985533,12.596375466512168,-7.143964853646202,23.22709391649309
1760516996.249898,-10.695938599332656,-0.1115479415756293,0.9323272923873693,-0.05695089474095221,10.858393291761546,-5.802608859256365,20.815115470347518
1760516996.2596126,-10.40077039025008,-0.11097096119699666,0.9302146227812569,-0.07217994530575571,9.605436464956206,-4.474488483634427,18.641418321895767
1760516996.269591,-10.125952461257896,-0.11078874696968277,0.9310828291688897,-0.08287013848809048,8.857584807651893,-3.2401650236899893,16.832314343586642
1760516996.2796085,-9.866826731520414,-0.11030645194152242,0.9337105222183826,-0.08928225745492895,8.58001445545486,-2.16031042345554,15.462885085998622
1760516996.289594,-9.617971536310687,-0.10883759475897924,0.9367465849120118,-0.09215783879845126,8.69971796243535,-1.2777668632755965,14.558442124847852
1760516996.2995985,-9.373658914980703,-0.10578268192291608,0.9389879863086343,-0.09249469814016656,9.12219967921983,-0.6197108635357336,14.10100130541381
1760516996.3096445,-9.128282092256676,-0.10071173445437173,0.9395904723325862,-0.09134958383059821,9.746163836567064,-0.19976157970191372,14.03907486358045
1760516996.3196335,-8.876769538406004,-0.09344165699568002,0.9381873200216492,-0.0896901402257692,10.475046805872333,-0.02021555854378229,14.299011603806019
1760516996.3296208,-8.614986899075038,-0.08409157388357,0.9349122268691465,-0.08830298957134987,11.224980207557316,-0.0745756309838173,14.796276473473734
1760516996.3398063,-8.340094347199756,-0.07309494286834281,0.9303383700801807,-0.08775342420037471,11.929324269040276,-0.3502712244293174,15.445390307421397
1760516996.3496056,-8.050799229486021,-0.06115402194919177,0.9253548479903871,-0.08838552164772598,12.540256779309761,-0.8311512652523562,16.16765841275646
1760516996.35961,-7.747445605247853,-0.04913992828152261,0.9210051335845777,-0.09034912617091455,13.028061638271277,-1.4991829614062695,16.8962276542286
1760516996.3696778,-7.431916729252855,-0.03796085408915654,0.9183128137354823,-0.093641510313354,13.378786420379123,-2.334915168700134,17.578402790685967
1760516996.3796008,-7.107373619642506,-0.02843039191533295,0.918120442257038,-0.09815506117704667,13.590894700541345,-3.316615498669786,18.175526477592534
1760516996.3896112,-6.777885148395482,-0.021162782465051915,0.9209676077692975,-0.10372582097919987,13.671470640499805,-4.418410544050952,18.661050822700005
1760516996.3996105,-6.448008473112456,-0.01650724151638481,0.9270303655430787,-0.1101794880391074,13.632459132433345,-5.608074152083969,19.017628784887766
1760516996.4095986,-6.1223594151262715,-0.014518503172349538,0.936131583167043,-0.11737074527432605,13.487349029002315,-6.845208024828909,19.23407663194683
1760516996.4198308,-5.805190359766837,-0.014953578492491262,0.9478119675722686,-0.12520948479299432,13.248624152375868,-8.080438421102054,19.30291050048862
1760516996.4296181,-5.499989193949726,-0.01728977337522579,0.9614336382096305,-0.13366694632038892,12.926200092782146,-9.25600622031871,19.218893484131208
1760516996.4397812,-5.209134500217888,-0.020771883374272944,0.9762815839773848,-0.14275870540109425,12.526919315711359,-10.307881969150701,18.97871312678759
1760516996.4496257,-4.933675513310191,-0.024503886957823694,0.9916356905395627,-0.15250868827327002,12.055004390789817,-11.1693619895219,18.581617523194318
1760516996.4596515,-4.6733199952114255,-0.027590514503595877,1.0068027768505696,-0.16290507605086058,11.513214484417235,-11.775962821857284,18.03064621308309
1760516996.46968,-4.426683760098644,-0.02930874195444435,1.0211165531471578,-0.17386170588310207,10.90436542032747,-12.071249196697547,17.334046422510067
1760516996.4796603,-4.191782744222047,-0.02926474903707976,1.033925883681838,-0.1851962034569722,10.232876147501429,-12.012980971872459,16.506545790658834
1760516996.4896939,-3.966662847606254,-0.027485616226525584,1.0445932421924353,-0.1966298666975313,9.506061904560198,-11.578722973640886,15.570265843078891
1760516996.4996552,-3.750007540355438,-0.024413038207364433,1.0525160675364975,-0.2078072708866562,8.734955031360071,-10.769956369309462,14.555103885096408
1760516996.5097277,-3.5415693434740394,-0.020801152206764793,1.0571700502536225,-0.21832900668728772,7.934480718725483,-9.613847064873958,13.498373888737188
1760516996.5196154,-3.3423389282398293,-0.017555966170834787,1.058163639473101,-0.22779075152206663,7.122881568395692,-8.162158083886915,12.443478570662252
1760516996.5296998,-3.1544617327863835,-0.015571963314783971,1.0552912628396296,-0.23582477991455836,6.320414555909312,-6.487268165304811,11.437490110760606
1760516996.539778,-2.98098805987032,-0.015612557334533188,1.0485761325595793,-0.24214230596530956,5.547527454902821,-4.675783650556389,10.527750750188646
1760516996.5496166,-2.825563225705042,-0.01825110906052723,1.0382972208144532,-0.2465737670513116,4.822885277485713,-2.8206792377021346,9.757878428203949
1760516996.559636,-2.69212765703558,-0.02385672040952008,1.024997110220445,-0.24909984102075225,4.161674883652802,-1.0131379522978647,9.16376984657684
1760516996.5696285,-2.584632600591928,-0.032592196648708445,1.0094690025532558,-0.24986214459558645,3.5745338327721483,0.6647785877168965,8.770257686816004
1760516996.5796428,-2.5067262393263294,-0.04439668905075544,0.9927233800058353,-0.2491429970643669,3.067260219742474,2.145755309487151,8.588967563834418
1760516996.5897193,-2.4613551441453843,-0.05894519387761601,0.9759371032177808,-0.24731003482276492,2.6412288274002904,3.380643274813006,8.617656167460176
1760516996.5996325,-2.4502577456936643,-0.07559743275051033,0.9603882913641579,-0.2447322110938149,2.2942313472311286,4.339588450648629,8.840975189201528
1760516996.610815,-2.4733799835641403,-0.09335980296252318,0.9473782478435643,-0.24168451786769723,2.0213292892423893,5.011178574987109,9.232301532641708
1760516996.619636,-2.5282965064414755,-0.11088526377189932,0.9381388832619525,-0.2382653001816384,1.81529313732526,5.400203431766011,9.756088033668846
1760516996.6296384,-2.6097597017106255,-0.12653098944786703,0.9337245061015061,-0.23435035812748842,1.6663077877717751,5.524725193313214,10.370164926549478
1760516996.6396434,-2.7095143206735606,-0.1384844309594437,0.9348924989558712,-0.2296021942051326,1.5608311939562547,5.413061057336475,11.027561789151978
1760516996.649715,-2.816501004901072,-0.14495562443337404,0.9419855246057525,-0.22354128504254844,1.4797603683124216,5.101053479035852,11.677678810608498
1760516996.659635,-2.9175264118732342,-0.14441894267825775,0.9548336441430063,-0.21567075099903887,1.3963345463099983,4.629739577842973,12.266937182059698
1760516996.669633,-2.9984051919895682,-0.13587334783197788,0.9726958137717853,-0.2056303479783458,1.274425354070576,4.043313687200936,12.739295743673296
1760516996.6796272,-3.045487737340135,-0.11907842452591362,0.9942578391217769,-0.1933456335565809,1.0679581076927527,3.3871491003386165,13.03716321294135
1760516996.6896324,-3.047391857235455,-0.09471719304824434,1.0176995484720237,-0.17913685558780354,0.7221246131167736,2.705609034857585,13.103216144121053
1760516996.6996162,-2.996680489461622,-0.06444069673786433,1.0408371796136684,-0.1637591837539224,0.1767820744022509,2.03941324008431,12.883440089513964
1760516996.7098527,-2.891198096853677,-0.030766054090781956,1.0613363432925706,-0.14835801176744978,-0.6279603276908124,1.422420179438266,12.331373912799867
1760516996.719654,-2.7348100813259433,0.003174295395397144,1.0769771467991751,-0.1343364806743075,-1.744394949820267,0.8778442496978827,11.413124505867884
1760516996.7296705,-2.53737661956549,0.03400592868269297,1.0859397026723627,-0.12314542352503334,-3.208917432008603,0.4141875617481013,10.112334308906831
1760516996.739636,-2.313915101355998,0.05855676530795019,1.0870691107911847,-0.11601955303332374,-5.033872514441937,0.02154238886486344,8.434044360699135
1760516996.749827,-2.083041012121089,0.07430183757382836,1.0800759885868465,-0.11369942131983317,-7.200833721934264,-0.330668358053847,6.4063983727635225
1760516996.7597077,-1.864903645198531,0.07972934593011433,1.0656326452166978,-0.11619429434111712,-9.656706882238803,-0.6932101381813539,4.0794232039149145
1760516996.769672,-1.6789272829113677,0.0745565022120002,1.045337209063248,-0.12264811107751249,-12.314003201299615,-1.1327019763064108,1.520678812777026
1760516996.7797017,-1.5417066435503617,0.05975150582048262,1.0215386260544554,-0.13135879745946255,-15.056329155786353,-1.723042511423064,-1.1917057868357497
1760516996.7897074,-1.4653722915282201,0.03736072068506219,0.9970417654204674,-0.13996813578228032,-17.749478704526116,-2.533342479521873,-3.9774197530921898
1760516996.799673,-1.4566434121926333,0.010182426119965615,0.9747379851625598,-0.14579582543236289,-20.25748240037138,-3.6142811592471293,-6.76223364411618
1760516996.8096418,-1.5166503159844225,-0.01864488598366852,0.9572245663619575,-0.14625419494630781,-22.46175543458011,-4.985573033846039,-9.48470501598782
1760516996.8196406,-1.6414737902266534,-0.04606574369976187,0.9464796772892831,-0.1392615402049119,-24.2804751551242,-6.627272037762157,-12.10040027176713
1760516996.8297253,-1.8232414758109425,-0.06947826083577896,0.9436458952568298,-0.1235752730914782,-25.68492369492486,-8.476928826929434,-14.583364460568275
1760516996.8399243,-2.051557610372713,-0.08700602526560974,0.9489485000931033,-0.09898645621460563,-26.709945656866118,-10.433459113582698,-16.925127049131298
1760516996.8496795,-2.3150256642288634,-0.09764739933879668,0.9617435978581917,-0.0663468257217579,-27.45674376379334,-12.367439191447673,-19.131877521141526
1760516996.8596642,-2.6026499595759685,-0.10130112587594592,0.9806672306253226,-0.02743053973208419,-28.087589665317566,-14.136739321279798,-21.220639788723922
1760516996.869667,-2.9049609882442384,-0.09868555317613531,1.0038468183683635,0.015339108007172322,-28.81326909626606,-15.605935195504825,-23.215400521019234
1760516996.8797076,-3.2147817750534875,-0.09117807076531564,1.0291369433940756,0.0592455654768025,-29.87493657576027,-16.66757022117689,-25.144161403792413
1760516996.8897178,-3.5276215804607873,-0.08060299206412529,1.0543454959866132,0.10165138813957943,-31.52240653451426,-17.26291373756908,-27.037668362034672
1760516996.899649,-3.8417380541676747,-0.06899614761179776,1.077422992579384,0.14032003954536948,-33.99081341500421,-17.399507427110652,-28.93008662960692
1760516996.9098883,-4.157945267671891,-0.058374684521820985,1.0966008508142377,0.17363554719093197,-37.477297935933024,-17.16284519826675,-30.861264887183776
1760516996.9197223,-4.479260498839566,-0.05053708483545758,1.1104812944603863,0.20069805278105773,-42.119287343320764,-16.720144427020223,-32.879670551352966
1760516996.9296534,-4.810476996956899,-0.046908346994189255,1.1180931479801366,0.22130590311462991,-47.97620935342328,-16.315092871463243,-35.044745542705705
1760516996.9397354,-5.1577271508313585,-0.04843131189335075,1.1189267152553266,0.23585703933620725,-55.01688980561678,-16.253280099808677,-37.42740033351112
1760516996.9496853,-5.528068588947157,-0.055494471841441906,1.1129493308832568,0.24520838744860468,-63.11495331278153,-16.8785801458336,-40.10762982409984
1760516996.9596722,-5.929094868797657,-0.06788613323219035,1.1005906424421965,0.25052571391384204,-72.05387454401362,-18.541268594818824,-43.16873297557452
1760516996.9696627,-6.368551164027494,-0.08477518992351177,1.082683055429527,0.25314451551862377,-81.54184478379148,-21.559503090967716,-46.68822146783514
1760516996.9797704,-6.853927561644976,-0.10473339623491647,1.060352353906382,0.2544485688037237,-91.23467526634938,-26.177144073658003,-50.726039207686064
1760516996.990032,-7.392006808194498,-0.12582312609220608,1.034872553412682,0.2557599935802752,-100.76321138993221,-32.52255962710207,-55.311065334409044
1760516996.999766,-7.988355172370025,-0.1457697078042381,1.0075173234953823,0.258229322130163,-109.76080831947361,-40.57453405779825,-60.4270831596804
1760516997.0100224,-8.646759779894067,-0.16221535271823748,0.9794461934319193,0.2627211017048734,-117.88662196481911,-50.141920458481245,-65.9996320929839
1760516997.0197458,-9.368630387761465,-0.17301957241093532,0.9516501206751707,0.26970680649167517,-124.84171087870848,-60.862440658050716,-71.88551107485789
1760516997.0296674,-10.152398789674221,-0.17654735980234385,0.9249518409095616,0.27919093757905766,-130.376845638099,-72.2227372763583,-77.867069993773
1760516997.039644,-10.99296798889432,-0.1718890122920122,0.9000292382962418,0.2906972051650689,-134.29297624969092,-83.59717325463244,-83.65357597747018
1760516997.0496414,-11.881284877536382,-0.15898113427728985,0.8774238948535306,0.30332877054699037,-136.43697867946153,-94.2986497430587,-88.89159685731586
1760516997.059651,-12.804124456694852,-0.138622669285144,0.8575137564399898,0.31589795132806997,-136.6961076165117,-103.63259825895705,-93.1852943520133
1760516997.0696526,-13.744168682730498,-0.11238665402322316,0.840452709636116,0.3271042831152146,-134.99434319550525,-110.94605933152081,-96.12584058569759
1760516997.079646,-14.680437253956068,-0.08243097805774263,0.8260979524445299,0.33572927888803367,-131.29279489594302,-115.6668497643989,-97.32731686059365
1760516997.0898283,-15.589090759510134,-0.05122995096117797,0.8139581034012893,0.34081473718738653,-125.59493545312603,-117.3318320955266,-96.46499915139867
1760516997.0997891,-16.444588086624403,-0.02127629984027817,0.8032005758398542,0.34179971462112024,-117.95595712063846,-115.60671542251372,-93.31125062052986
1760516997.1096478,-17.22114160860028,0.005185812910109124,0.7927474718651387,0.33860411139331137,-108.49419173862165,-110.30154410688529,-87.7643993684161
1760516997.1196387,-17.894373995205967,0.026352793569656287,0.7814613050587899,0.3316565599377575,-97.40161033372526,-101.38555955294612,-79.86683750156081
1760516997.1296542,-18.443041539479076,0.04096443810932624,0.7683866577947327,0.32186893706326913,-84.95014074618906,-89.00264520405969,-69.80989301551064
1760516997.139652,-18.850656359139595,0.048327989514242255,0.7529894491746728,0.31056420977584015,-71.49090288838764,-73.4850466627144,-57.92455062442711
1760516997.149835,-19.106820360284278,0.04828707461174135,0.7353314732454111,0.29937084446301926,-57.44430224442987,-55.3598834758678,-44.65864287201281
1760516997.159812,-19.208085621005882,0.04116211889994994,0.7161317025279206,0.29010057237079107,-43.28012517500456,-35.341386141126,-30.542616382957092
1760516997.1697817,-19.15818990583766,0.027681931310710877,0.6966897459498075,0.2846227835194678,-29.488296802566353,-14.302513439630568,-16.14738278040595
1760516997.1796794,-18.967592142822223,0.008910654469025472,0.6786748231740397,0.28474114510005294,-16.542676673061855,6.777390642656182,-2.0389671655893276
1760516997.1896794,-18.652348645373717,-0.013841624680801676,0.6638128606836343,0.29207055709347574,-4.861927509013334,26.88763783767369,11.26463108498235
1760516997.199698,-18.232501884955827,-0.03914068435080832,0.6535327306339705,0.30790737472889845,5.227224458401763,45.077454247928365,23.329063879348233
1760516997.209742,-17.730254525616783,-0.06558634702621785,0.6486537979655621,0.33308668190264623,13.518489424609903,60.552165503297616,33.82752926712477
