timestamp,angle,linear_acceleration_x,linear_acceleration_y,linear_acceleration_z,angular_velocity_x,angular_velocity_y,angular_velocity_z
1760596603.3925862,13.801224746723868,0.24770453555735902,0.9455087523703389,0.3363114981887871,36.97151688435419,-27.197230976798288,-54.2219115748558
1760596603.4026039,13.26917586619072,0.27616288916955284,0.9957378490736714,0.3105730027387603,38.12419066325128,-36.14084982601465,-54.52295958916058
1760596603.4125803,12.746245854565384,0.30999885363083646,1.0524464392900492,0.27568815632028476,39.663954677115036,-43.122441669838146,-54.18931449436073
1760596603.4225802,12.236799687719738,0.3444053417755265,1.110202075583116,0.23409000278959088,41.61681499166849,-47.44876082977418,-53.40720895732774
1760596603.4325569,11.742029851845706,0.37344797759248627,1.1626659454211532,0.18891405176054335,43.914131903798136,-48.54368578019859,-52.382510779453156
1760596603.4425552,11.25988240985361,0.39078517339652385,1.2035618747133972,0.1435327001611813,46.3873228161204,-46.03108733131728,-51.3136206736565
1760596603.4526746,10.785420738807138,0.3906063329564721,1.2276897857216726,0.10103842679239446,48.78252368412332,-39.80929025895015,-50.3647350368554
1760596603.4632108,10.311614690900196,0.3686486372957461,1.2317829713167292,0.0637688908025905,50.79501060632409,-30.103534784170805,-49.64387119700965
1760596603.4725788,9.830466193639833,0.32309971295379436,1.21503261056642,0.03296917206488016,52.118163757727324,-17.483253318407122,-49.18966738345221
1760596603.483776,9.334307365775887,0.2551684516240087,1.1791792887855486,0.008664040344021509,52.497335559453035,-2.834422895999213,-48.96980696916912
1760596603.4925327,8.817049384242527,0.1691359199629249,1.1281789675742195,-0.010227451587122498,51.77697025733058,12.715853494736704,-48.89219943461624
1760596603.502605,8.275141546989381,0.07180064726544341,1.0675484106962687,-0.025552185716232554,49.93070496806908,27.91599474792958,-48.827868626166754
1760596603.512546,7.708043452597074,-0.028606273588377057,1.0035463330819272,-0.0394270544040816,47.06844798786647,41.531832737567484,-48.64187759682482
1760596603.5225463,7.118125852111753,-0.12379234555788879,0.9423465345502582,-0.05369965652764215,43.41994899401957,52.491067107054164,-48.22605416577806
1760596603.5325603,6.510070095173049,-0.2067122698489231,0.8893275037232876,-0.06949525429204856,39.29939291640857,60.005617990212016,-47.52589641454373
1760596603.542548,5.889974327540625,-0.27248000395140914,0.8485578542879791,-0.08695921541736489,35.05883805107306,63.65085791657933,-46.55483694916691
1760596603.5526426,5.264439424621332,-0.3186901453821538,0.8225091660409664,-0.10525513463949575,31.039369952877315,63.38975780830613,-45.39204030787856
1760596603.562629,4.639875197204622,-0.34516142726116467,0.8119877239371653,-0.12281582442038096,27.527890427233782,59.54226657032406,-44.16411390066619
1760596603.5726087,4.022155493038277,-0.3532979476289155,0.8162517544558572,-0.13777818236403072,24.72527083853089,52.7117924359262,-43.015216245863854
1760596603.5826833,3.416605571411262,-0.3453510218943211,0.8332696739928207,-0.14847954106842484,22.72899928358652,43.68774632459336,-42.07293700676491
1760596603.5926516,2.8281824374576634,-0.3238365134790442,0.8600714069428946,-0.1538748672135029,21.531003633315596,33.34421155780987,-41.418275385032054
1760596603.6025558,2.261654527179967,-0.2912478021919604,0.8931449101396046,-0.15376265587612695,21.029313484323907,22.55070382939414,-41.06681463743074
1760596603.6125717,1.7216160317777358,-0.2500591493395695,0.9288327084911642,-0.14877244901392278,21.050705749919643,12.103861335824266,-40.96512331476018
1760596603.6225638,1.2122588279992934,-0.20289758872940142,0.9636885779306942,-0.14014468343832173,21.38041664283275,2.68148245722846,-41.00240544578745
1760596603.63256,0.7369258994171939,-0.1527147774423911,0.99476291923954,-0.12939718888326482,21.794381802476998,-5.184983061689337,-41.03367651318397
1760596603.6426506,0.29754753910626747,-0.10282152559994376,1.019797385535218,-0.11799815861583784,22.089394768364436,-11.125349086591815,-40.90836214879212
1760596603.652567,-0.10589934483056254,-0.05673036593695843,1.037323773319033,-0.10714221544202823,22.10718857471509,-14.937734822730315,-40.49779432283971
1760596603.6625588,-0.47576784777348397,-0.017839722887168518,1.0466754737898825,-0.09766859008283174,21.749716514845044,-16.589537376657145,-39.71646264770805
1760596603.672572,-0.8168437412711362,0.010951740866632182,1.0479285433112442,-0.09010060785504574,20.984564066538695,-16.211201469660114,-38.5342562122154
1760596603.682569,-1.1361163342045801,0.027602402896013123,1.0417928874512503,-0.0847500338481764,19.84106350455845,-14.080213825913805,-36.97928024271658
1760596603.6925418,-1.442220336837742,0.031180991330117917,1.0294733861313985,-0.08182479569297031,18.398965209336616,-10.59346346449777,-35.132457089550996
1760596603.7025828,-1.744610625076155,0.02197412072397663,1.012517821559114,-0.0814958654940332,16.77228137638494,-6.228493424930864,-33.115896166671945
1760596603.7125766,-2.052580504063125,0.0014380521444913369,0.992664701296847,-0.08390563947540482,15.091160018688663,-1.49702663759669,-31.07720642964555
1760596603.7225478,-2.374263177554483,-0.02798886873639559,0.9717001938575794,-0.08912405894214388,13.48445411228182,3.1036922714472843,-29.1718540769052
1760596603.732685,-2.71575799248075,-0.06317598264024422,0.9513295630054567,-0.09707282395418428,12.065129257753133,7.135431890885203,-27.545530993855756
1760596603.7425733,-3.080496995305811,-0.1006426318663758,0.9330651592315733,-0.10744199996898826,10.919923379711133,10.253830789990605,-26.318342687820603
1760596603.7525845,-3.46892249981921,-0.13690194972573172,0.9181312356001361,-0.11962138967988709,10.103867969012454,12.229913744839685,-25.57241038566958
1760596603.762672,-3.8784974327396697,-0.16876495490246055,0.9073864555767626,-0.13266569104950723,9.639525203815824,12.9569954685206,-25.34413932691124
1760596603.772643,-4.304029165484378,-0.19358063298638042,0.9012677303356954,-0.14530943574076424,9.520175561248957,12.443994850790318,-25.621875816842188
1760596603.7826462,-4.738257980176575,-0.20940454653373433,0.8997624573870816,-0.15604394656897908,9.715763254770238,10.797986862936288,-26.348979630905635
1760596603.7925835,-5.172640221884714,-0.21509999181160303,0.9024182499681683,-0.16326194569677085,10.18021006671137,8.199917043281411,-27.43160212262506
1760596603.8025837,-5.598240461146516,-0.2103809814109799,0.9083982773761037,-0.16546498225763193,10.858748522944811,4.877722814934037,-28.749857719724893
1760596603.8125725,-6.00663804880006,-0.19580813023538324,0.9165858999184618,-0.16151565187310055,11.694167541658254,1.080700927756061,-30.17073800277287
1760596603.822646,-6.3907554052027,-0.17274917327442996,0.9257349409167879,-0.15090322720472887,12.631243283523704,-2.9420161727995304,-31.561080174677443
1760596603.832563,-6.745529480166026,-0.14331445186476235,0.9346530266043914,-0.13398057995601584,13.619073471293039,-6.957342318935794,-32.799116946772806
1760596603.8425756,-7.068369721505678,-0.11027174960224626,0.9423965423200843,-0.11212425060121341,14.611477189122912,-10.758368228723452,-33.78351290369126
1760596603.8525472,-7.3593686607840185,-0.07693390920891997,0.948448248008915,-0.08776940344114262,15.56599675389764,-14.169857209430283,-34.43924202311159
1760596603.8625653,-7.621250036642795,-0.047000042279468524,0.9528438210774792,-0.06427824767233578,16.442273618764975,-17.050981842654647,-34.72010569568017
1760596603.8726249,-7.859054222991315,-0.024324121281414254,0.9562141009110777,-0.04561766803609744,17.20059960837241,-19.297320635764066,-34.60807609061088
1760596603.8825788,-8.07957666676832,-0.012593486637914444,0.9597197136691513,-0.0358556774802796,17.801217318535528,-20.843678458620783,-34.10994475829271
1760596603.8925555,-8.290598400837188,-0.01492919765479805,0.9648763866273377,-0.03853732203184295,18.20446793616873,-21.668368800302144,-33.25194063475786
1760596603.9025538,-8.499978312657422,-0.03345901393600641,0.9732975168803693,-0.05605018267387275,18.371308382220146,-21.798403439616653,-32.073045075683424
1760596603.9125564,-8.7147045346303,-0.06894027845657563,0.9864028993092443,-0.08910705875760995,18.263332425658362,-21.313887542970686,-30.61768729557795
1760596603.9225612,-8.940014389764263,-0.12051134356341762,1.0051486342824476,-0.1364467718899584,17.84149748841975,-20.349180162043506,-28.928387322852753
1760596603.93261,-9.178684212285168,-0.1856306905044697,1.0298250098984294,-0.19480445109853528,17.063323871629176,-19.088321458107075,-27.03878021330523
1760596603.9425619,-9.430566925701912,-0.2602334627975657,1.0599569124476356,-0.2591595741439266,15.879201998471622,-17.752951687708887,-24.967378458800287
1760596603.9526327,-9.69242337190961,-0.33910254868762907,1.0943290556727252,-0.3232415746624897,14.22930577994957,-16.58240397582537,-22.71246956530554
1760596603.962601,-9.958056782617083,-0.41641731566880363,1.131139339895446,-0.3802471807775687,12.043127515788845,-15.807599027856586,-20.24869771234039
1760596603.9725618,-10.218721807580268,-0.48641067152302103,1.1682547009211541,-0.4236878669372469,9.243515678021328,-15.622297186472059,-17.526051447894957
1760596603.9826412,-10.463746972783495,-0.5440420802314012,1.2035161126987801,-0.44824245633706433,5.7561807252355255,-16.156531210137338,-14.472021947294296
1760596603.9925685,-10.681289488790604,-0.5855857699686852,1.2350287006653933,-0.4504652891895264,1.52413469848421,-17.457216414185726,-10.99746618866159
1760596604.0026069,-10.859135976305899,-0.6090388182234863,1.2613815590011925,-0.4292235022430441,-3.475070730893356,-19.47997464556072,-7.00615777772389
1760596604.0125635,-10.985469532239703,-0.6142755937712022,1.2817581296426173,-0.3858010915748157,-9.212642713146499,-22.094346125892887,-2.407219931400567
1760596604.0225952,-11.049539145427547,-0.6029185678685798,1.2959142016423695,-0.32367486470010637,-15.596205305548413,-25.10214397053073,2.871172949471323
1760596604.0326166,-11.042187407153362,-0.5779535905618995,1.3040227014453656,-0.24801582906480496,-22.46531257011252,-28.266190432256437,8.868958505337709
1760596604.04258,-10.956212270103071,-0.5431699176599135,1.3064184559750829,-0.16500432727146325,-29.597202344866655,-31.3446003149734,15.584311810706318
1760596604.0525734,-10.786556305696635,-0.5025347640217639,1.3033140236542,-0.08107123986711103,-36.7234572270031,-34.12462212035231,22.968192469003114
1760596604.0625849,-10.53033275748894,-0.4596148238851201,1.2945830964460605,-0.0021807771583868007,-43.55622881296803,-36.450127916895156,30.923773056514094
1760596604.072574,-10.186711935142217,-0.41713809059418117,1.2797074053463944,0.06675180203203229,-49.820722440239116,-38.23822992785241,39.3102282170406
1760596604.0825648,-9.756703749312084,-0.37675642304688445,1.2579483700530707,0.12225208495715606,-55.288979060880436,-39.482892074219,47.94971669193878
1760596604.092592,-9.24288147896363,-0.3390290105513249,1.2287335023391828,0.1624723031777827,-59.80888836651404,-40.24613275964364,56.63624104890325
1760596604.102626,-8.649096326573417,-0.3036041572912836,1.1921497239839927,0.18718824586903554,-63.32228646167069,-40.63970634307309,65.14542102317513
1760596604.1125941,-7.980230003308756,-0.2695391808599147,1.149346259271118,0.19764463780040228,-65.86749602214265,-40.80143340817335,73.24482924113006
1760596604.122555,-7.242022570637133,-0.23567635909288404,1.1026316399641944,0.19628725851492143,-67.56489183266375,-40.870477341102315,80.70500800792111
1760596604.1325576,-6.440994764333145,-0.2009940951836566,1.055150593774985,0.18640626570699076,-68.58815030164737,-40.965167882687304,87.31133988944231
1760596604.1425474,-5.584457914903406,-0.16487273295361152,1.0102112851674985,0.1717101619450846,-69.12719240881505,-41.16599079027814,92.8766343626387
1760596604.1525996,-4.680572079981828,-0.12724008503607456,0.9704919323771266,0.1558701770628775,-69.35044509778191,-41.505400308736256,97.25382540607124
1760596604.1625576,-3.738381844126203,-0.08858337550649178,0.9374038330511812,0.1421013929227276,-69.3740479127041,-41.96515796296472,100.34767452896882
1760596604.1726954,-2.767745676963178,-0.04983530556248101,0.9108198811851874,0.13284739708296625,-69.24432829673889,-42.4809501214305,102.12391159930723
1760596604.1825666,-1.779095674375653,-0.012168136390124587,0.889235405646261,0.12960581808361496,-68.9371059060382,-42.953185979266934,102.61397722901688
1760596604.192568,-0.7830201376236049,0.023244815049963546,0.8702721129077208,0.13289453243641736,-68.3733073926183,-43.262161465217865,101.91366871772414
1760596604.2025733,0.21027168285037856,0.05543165495501315,0.8513341272779286,0.14233104335200444,-67.44610345674842,-43.285194688085475,100.17468338952958
1760596604.212632,1.1914969406582672,0.08373775382987333,0.8302158387902123,0.15678815368851307,-66.0518785348251,-42.913004869733655,97.58927547696611
1760596604.2225702,2.152746085463647,0.10784475367290278,0.8055258281135094,0.17459742488111074,-64.11684071412209,-42.06264536806796,94.3697573445313
1760596604.2328696,3.0877490710294198,0.12772543190215124,0.7768793777427359,0.19378572196416802,-61.61304881561103,-40.68473153828002,90.72597807699333
1760596604.2425632,3.9919367656281386,0.1435891052856998,0.7448832808587065,0.21233300245211092,-58.56126405436024,-38.76352539154494,86.84473028519643
1760596604.2525592,4.862330777131602,0.1558621668314076,0.7109739278478124,0.22842967566838204,-55.0219643204867,-36.3096853333064,82.87487174125377
1760596604.2625642,5.697332782462754,0.1652145293619436,0.6771744388636042,0.24070215065397882,-51.07876893281312,-33.347071919330695,78.92070610376022
1760596604.2726078,6.496492188848424,0.17260600597164194,0.6458207945301663,0.2483760728491719,-46.81970937158023,-29.896584353936444,75.04418771384466
1760596604.2825758,7.26031052796195,0.17930595134689198,0.6192862427394514,0.25135709640134296,-42.3212837172425,-25.961115523210943,71.27441489416682
1760596604.2926242,7.990103768765272,0.186842400273703,0.5997207854930924,0.25022067283807614,-37.63854393370458,-21.515964657070526,67.62124962922762
1760596604.3025627,8.687904630980027,0.1968588072656339,0.5888217016115928,0.24611178921378493,-32.80226751934513,-16.508262699322586,64.08916279776983
1760596604.3126261,9.356359197765556,0.21088527342133628,0.5876535211377235,0.24057066904369206,-27.822271313525242,-10.867213031006921,60.687725892396095
1760596604.322566,9.998564289451808,0.23005594588247583,0.5965305676258174,0.23532576752798526,-22.694725192750738,-4.524530845140351,57.43641682708723
1760596604.332646,10.617807207713748,0.25482193989446894,0.6149617253888711,0.23211215946956126,-17.411190938280583,2.558083468233613,54.36315732177296
1760596604.3425722,11.217203922578756,0.284720087479414,0.6416470700455125,0.23255491477341064,-11.967840658846884,10.35958737008618,51.4977422536121
1760596604.3525696,11.799274414198779,0.31825807940735984,0.674519430081482,0.23810722767504983,-6.374265343735723,18.774322226504164,48.86265312630488
1760596604.3625941,12.365529180927894,0.35296165981945776,0.7108379070371367,0.2499872572927125,-0.6617540773846328,27.596164296542966,46.46438118818628
1760596604.3726165,12.916156401073208,0.3856030998063484,0.747351454660755,0.269048634427037,5.109457353283053,36.51554207412021,44.288125640545964
1760596604.3825996,13.449891646202849,0.4126003263450788,0.780545485800448,0.29556097167792283,10.845475887367405,45.130174627131446,42.297592591272824
1760596604.3925624,13.96412571468892,0.430545974599819,0.8069625242083931,0.3289560293293063,16.418933844912015,52.96802974037293,40.43994356356523
1760596604.4026084,14.455265378253117,0.4367950398313873,0.8235662587528974,0.36766077084009924,21.676197366572733,59.51970400848187,38.65432113176701
1760596604.412577,14.919309247777951,0.4300148547197909,0.8281152275782906,0.4091285281460984,26.452143480148784,64.27730655866092,36.88137818112513
1760596604.4226005,15.352545046340955,0.4105941370080262,0.819523671208138,0.45009139001478,30.59079131941271,66.77730840356433,35.07110486441404
1760596604.4325833,15.752232367108332,0.38082437851295414,0.7981906753631549,0.48695912096308314,33.96825908754926,66.6449416993821,33.18686681761751
1760596604.4425724,16.117122599212582,0.34479990217990913,0.7662618444971645,0.51625001560913,36.51376297441123,63.63740882468986,31.204656943517264
1760596604.452579,16.44769019451343,0.3080231273152383,0.7277606646729998,0.5349651069075101,38.224627876715296,57.682672620900895,29.107854902103863
1760596604.4626794,16.746000526664037,0.2767448392729395,0.688510974709757,0.5408692794571645,39.172265711643824,48.91024407459723,26.879036539811125
1760596604.4725764,17.015207176712337,0.2571119252015934,0.655782737246589,0.5326797339186349,39.49753272717838,37.670323203025085,24.491285824221567
1760596604.4826522,17.25874208041525,0.25422996595909836,0.6376311057115929,0.5101713215951236,39.395499100741944,24.537992165466246,21.901743973515323
1760596604.4925795,17.479322533688165,0.2712679932790946,0.6419525006938893,0.4742012006323326,39.09117058177682,10.299887449767631,19.049660790584806
1760596604.502584,17.677937750346565,0.3087335216583946,0.675337820098721,0.4266464718475946,38.809011829762554,-4.078360978335303,15.860104976045063
1760596604.5126197,17.85298596544273,0.36402873624659954,0.7418542982837105,0.37024508451839083,38.74030850454489,-17.50486095725813,12.253012293800845
1760596604.5228295,17.99970946383654,0.43137072440102575,0.8419309600352048,0.3083349642161458,39.01344987780222,-28.834403626994085,8.155753685276713
1760596604.5325716,18.110025942885503,0.5021270169418882,0.9715533995793264,0.24449926105184622,39.67286038055132,-36.96010202550556,3.516285204538451
1760596604.5425682,18.17279140530224,0.5655817060409045,1.1219816693526479,0.18214557085771718,40.672106714918016,-40.919574733497576,-1.6864502086714854
1760596604.5525882,18.17446509357034,0.6101016023060365,1.2801775845814356,0.12407211626951749,41.88514550650503,-40.00796256213313,-7.437648081397312
1760596604.5626185,18.100094488735795,0.6246138865230003,1.4300525494964365,0.07209809052476457,43.136450351281965,-33.88612324305588,-13.688563406866994
1760596604.5725756,17.93450879256936,0.6002375312460193,1.5545128217777013,0.02684321351925799,44.246152956881744,-22.668793492898875,-20.364345653624078
1760596604.5826106,17.663603648366525,0.53183480205802,1.6380826575330938,-0.012282783516249774,45.08143649708768,-6.975346519827261,-27.37489118336689
1760596604.5926232,17.275608598411093,0.4191847021687323,1.6696571821173998,-0.046870704199711476,45.601837004177,12.073609470570439,-34.62485187550552
1760596604.602598,16.762240071668636,0.267470589890221,1.644764104540722,-0.07911889786926128,45.88533600541751,32.92569369378244,-42.019400645248545
1760596604.6125605,16.119652208811313,0.0868714268795182,1.5667154169915387,-0.11131351054310326,46.12505362166857,53.73441759480591,-49.46383318260863
1760596604.6226022,15.349111107254071,-0.10873800062217158,1.4462687569408288,-0.14524906185250228,46.59298529474396,72.55357359572467,-56.85686809842135
1760596604.6327562,14.457344192409517,-0.30370381616655806,1.2998253028969189,-0.18168596874225224,47.57626507813979,87.56258378751022,-64.07912412711015
1760596604.6425936,13.456557474507697,-0.4826537010568906,1.1465960932431432,-0.21998182765612107,49.30003340316068,97.28676528392347,-70.97957209658458
1760596604.6525943,12.36415694430731,-0.6322089671613126,1.0054076902102589,-0.2580374772760246,51.85577581860561,100.77450325896996,-77.36379788681502
1760596604.6627817,11.202232913619273,-0.7420385851385523,0.8918285256171058,-0.2926325986163688,55.153174360185794,97.70144938436147,-82.98861919179467
1760596604.6726558,9.996848888184962,-0.8052385570009647,0.8161250015966142,-0.32010161139003934,58.907877936003565,88.38804333878765,-87.56769757311733
1760596604.6826077,8.77712149120878,-0.8182688602960319,0.7822992312159599,-0.33717620911724633,62.66948629297686,73.73548579465582,-90.79176224001465
1760596604.6925662,7.574013668886156,-0.7807725451074463,0.7882106095342455,-0.34176368900956555,65.88558591769045,55.10035780910333,-92.36443376527872
1760596604.7026474,6.418736505374158,-0.695523124061445,0.826599738074386,-0.333463650176218,67.99026808262781,34.135026654161166,-92.05045905257622
1760596604.7126026,5.340706087800416,-0.5685602116626358,0.886734890756972,-0.3137103810778444,68.50032896196754,12.619261406623597,-89.72837303027356
1760596604.7225838,4.365137223170011,-0.4093693028904696,0.9563736349643193,-0.28551549543319493,67.10045194977835,-7.699130569508624,-85.43587137063106
1760596604.7326121,3.5105357521003246,-0.2308172295800351,1.0237380249347316,-0.25287001004338916,63.700864298579134,-25.246007850644446,-79.39528943268546
1760596604.742638,2.786505220822347,-0.04852619601371367,1.0792113150263474,-0.21995710542223937,58.456868207886934,-38.74274306271703,-72.00947121794592
1760596604.7525873,2.1923405344251257,0.12050154472203571,1.1164940101438054,-0.19039162809345114,51.74759152469511,-47.3070316606505,-63.82457295814793
1760596604.7625968,1.7167994869462873,0.2599172726873855,1.1330522809555352,-0.16668365597463766,44.119160973697326,-50.527579537254034,-55.46443825136242
1760596604.7726004,1.3392331144020226,0.3563190492613296,1.1298521336578067,-0.1500224165885423,36.20370210472321,-48.50261988293159,-47.548753169753944
1760596604.7826393,1.0319799243720196,0.4012514131934567,1.1105347042233347,-0.14035939347382478,28.629265441984224,-41.83081510970814,-40.61158176769147
1760596604.7925754,0.7636710372591292,0.39243141645319557,1.0802896158094903,-0.13669623955837956,21.936499995651154,-31.54754201556187,-35.03645567120858
1760596604.802604,0.5029201773757747,0.33394331781586434,1.0447052182853855,-0.1374663501926005,16.515572443463157,-19.00874357614304,-31.019478114284578
1760596604.8126602,0.2218205261313778,0.23540608372447078,1.0088247433722983,-0.1409170883862379,12.572099645679337,-5.7352214133981345,-28.56500735146675
1760596604.822585,-0.10125246891722653,0.11035051650892613,0.9765396514567923,-0.14542713540549757,10.124925964271002,6.761254797430121,-27.5115182935191
1760596604.8326244,-0.4798551985124517,-0.02581242199865661,0.9503429139429999,-0.14971771910876452,9.032622533398222,17.145026039255068,-27.579623838743768
1760596604.8426392,-0.9188167724867767,-0.15783548686975804,0.9313797885313064,-0.15293841171917077,9.040588851774993,24.393772381818305,-28.43089690371202
1760596604.8526115,-1.414638994740983,-0.2723858831484916,0.9196884665080269,-0.1546316049508059,9.837560895396589,27.889139912331576,-29.725577544086473
1760596604.8625996,-1.9567766637414017,-0.35932349703802724,0.9145180700081068,-0.1546037242086459,11.109925753225474,27.452480680033403,-31.169306215122315
1760596604.8725798,-2.529561787332083,-0.41243352053041976,0.9146361254930295,-0.15275083202967454,12.584499799876369,23.32600142771561,-32.54280324738311
1760596604.8826144,-3.1145044417356,-0.42961609044564786,0.9185751209874927,-0.14889600469461417,14.054455307892074,16.10684037975523,-33.71270410680986
1760596604.8925822,-3.692684369474232,-0.41259218838304396,0.9248029922632769,-0.14269200779393593,15.3875634518036,6.646746381910399,-34.625525004760306
1760596604.9026027,-4.2469454367958885,-0.3662310001363654,0.9318280767982747,-0.13362521903795316,16.519659705019144,-4.06700780429155,-35.28935511919949
1760596604.9126196,-4.763636765565377,-0.29763724208395465,0.9382644899333908,-0.12112933073876438,17.438484614939046,-15.033060884727496,-35.74913125228795
1760596604.9226003,-5.23372210337851,-0.21515019228360488,0.9428894346915397,-0.10478668818227596,18.163635389832958,-25.344683415041835,-36.061327540596515
1760596604.932682,-5.653192799331618,-0.12739417081848628,0.9447192223091295,-0.08456877395439545,18.727586994367105,-34.27393920190226,-36.27286043151037
1760596604.9426277,-6.022837543823233,-0.04248551873842971,0.9431169030840495,-0.06105229147714124,19.161151978001076,-41.32391759362843,-36.407332319546164
1760596604.9526207,-6.347509908636076,0.032546036475625886,0.9379256375798682,-0.035548406735748925,19.484915301781008,-46.24665568713806,-36.459795456798375
1760596604.9626184,-6.63507625596204,0.0921107120295011,0.9296038835520257,-0.010100933129611519,19.706574268658404,-49.029207246881796,-36.39937796350347
1760596604.9726303,-6.895225216778097,0.13221297861392417,0.9193259547200048,0.012660744442367986,19.823001458207216,-49.854403797840064,-36.177704473691264
1760596604.98265,-7.138289623083932,0.15045586204221584,0.9090077710240299,0.02979672563462611,19.8252211579942,-49.04559864011666,-35.74028959677783
1760596604.9925995,-7.374187834386493,0.1459521247863237,0.9012237287929405,0.03841825791138367,19.70418169355661,-47.0055999874732,-35.03803715698979
1760596605.0026731,-7.611546610741631,0.11919389419963888,0.898994940098987,0.036082023331327345,19.455145691188577,-44.15900127124363,-34.03651321350421
1760596605.0127811,-7.857031960645102,0.07191521672469525,0.9054485820504673,0.021163110121279024,19.078806918507045,-40.90468660317193,-32.72151734612932
1760596605.0225995,-8.114893805434079,0.006956229388653758,0.9233707755256085,-0.00683810837075004,18.577993884322797,-37.582261672125554,-31.10036623041875
1760596605.0328903,-8.386724083747362,-0.0718880573689307,0.9547001647773613,-0.04709162881465068,17.950006082071674,-34.453335932911564,-29.199024932908372
1760596605.0425706,-8.67142708115091,-0.1600640373770111,1.0000325821283707,-0.09737099076579754,17.17601639632252,-31.696471969204378,-27.05573451624349
1760596605.052576,-8.965392297016097,-0.25252159977942795,1.058221932125609,-0.15415590249104538,16.210207185112825,-29.41334829451599,-24.712162319277397
1760596605.062581,-9.262836467627718,-0.3440367427744805,1.126162432440031,-0.21291810124138827,14.972031451627767,-27.643025185040656,-22.203394965676157
1760596605.072608,-9.55624932034065,-0.42956324564665965,1.198819847427213,-0.2685708630929952,13.34489647509539,-26.380810973747966,-19.54827232125034
1760596605.0826008,-9.836857412158272,-0.5045724384858317,1.2695450797111623,-0.3160273858974445,11.18347764309845,-25.59797780422143,-16.741564410930234
1760596605.0928948,-10.095030353372904,-0.5653501919342646,1.3306584121136666,-0.3507872016462531,8.329937353733515,-25.25870795886572,-13.74929018359357
1760596605.102625,-10.320593393667261,-0.6092373124361139,1.3742494923294397,-0.3694562278168813,4.637091259004436,-25.331498058449178,-10.508071102743404
1760596605.1126928,-10.503059682499934,-0.6348059601433823,1.3931098287984431,-0.37011079054442464,-0.005287405297802078,-25.793838448654974,-6.928876296465226
1760596605.1226,-10.631831320727978,-0.6419543756288896,1.381703085673165,-0.35244653219899025,-5.645817846769771,-26.630882673175964,-2.905001307725961
1760596605.1326385,-10.696430132040106,-0.6318899039060415,1.3370723765975074,-0.31770327911183177,-12.253256573882517,-27.830341008453157,1.6762495989538844
1760596605.1426053,-10.686809974624019,-0.6069772139741967,1.2595709473616958,-0.268404884506287,-19.708372862723564,-29.376450166988302,6.918974066904633
1760596605.1527817,-10.593779563432859,-0.5704568137202453,1.153285556923639,-0.20798063550630735,-27.807960818574138,-31.24548779397825,12.902283761648526
1760596605.1626227,-10.409532700689976,-0.5260699620957551,1.026018639169176,-0.1403394187741939,-36.28086179681673,-33.404183403780756,19.66367714609886
1760596605.172668,-10.128244272892447,-0.47764245544593437,0.8887262287523829,-0.0694569225322441,-44.81372748665918,-35.81099612061615,27.18423806254611
1760596605.1826422,-9.746650846269286,-0.42867898813694993,0.7543817193483511,0.0009804368894979207,-53.082492985899584,-38.419121823050496,35.3780527457361
1760596605.1927927,-9.264505153651756,-0.3820106825820569,0.6363434100923253,0.0678455170415662,-60.7844319700067,-41.17966944444823,44.08813255855617
1760596605.202598,-8.684789605291208,-0.3395311717891107,0.5464313769125342,0.12873460077126575,-67.66539979352389,-44.043757407065094,53.09046110819647
1760596605.2126038,-8.013609392134363,-0.30205472735100514,0.49304763247592454,0.18201416508125273,-73.53767477366365,-46.96296721798743,62.10662961972903
1760596605.2225995,-7.2597613846637,-0.26932694517457767,0.47976082009481513,0.22675357025533635,-78.28591512489155,-49.88815682623521,70.82413810540783
1760596605.2326136,-6.434063524526554,-0.24020137949781412,0.5047418179106719,0.26257426224393454,-81.8617715619953,-52.766887086028426,78.92213450819577
1760596605.2425916,-5.548583254987315,-0.21295669897345887,0.561224703709234,0.28947480666376824,-84.27038036977653,-55.53989699218714,86.09941575468322
1760596605.2526238,-4.615894656047786,-0.18568241346900213,0.6388546825167903,0.30769513703384993,-85.55313985250598,-58.13743235202751,92.10112469193578
1760596605.2625864,-3.6484414501716405,-0.15663879337688305,0.7255448643352144,0.31765461927066746,-85.77089509620959,-60.47660472996965,96.74081731195413
1760596605.2727187,-2.658029932430809,-0.12451759211390201,0.8094050101296844,0.31995891099941554,-84.99087907684614,-62.46093292237896,99.91532490988347
1760596605.2826567,-1.6554481880770608,-0.08858030533810457,0.8803929275508572,0.3154392415197103,-83.27995228461816,-63.98272659368939,101.61082527593847
1760596605.2926047,-0.6502050212075937,-0.048696925188816007,0.9314723507450727,0.30516879971736827,-80.70534535723124,-64.92833409942828,101.89953575373902
1760596605.3025918,0.349608956410328,-0.005327040553768303,0.9591741544211874,0.2904071318198197,-77.34181261334824,-65.18579932935455,100.92741239265716
1760596605.3126266,1.337328432129641,0.04052570511482197,0.9635503512723786,0.272465995867001,-73.28151648896026,-64.65415857668899,98.89426800672591
1760596605.3226123,2.307584208766784,0.08738148877691819,0.9476028864674279,0.2525448570080665,-68.64150588776864,-63.253271480411506,96.02881615869997
1760596605.3326101,3.2560537129218328,0.13339253243518978,0.9163530117462523,0.23160786526598917,-63.56430778367223,-60.93264594624113,92.56212429932678
1760596605.3426158,4.179136250113316,0.1765132119202637,0.8757630314198894,0.210352002315924,-58.20969582294104,-57.67740322893904,88.70348477296781
1760596605.3526306,5.073623118630704,0.21473720733036752,0.8317164978241814,0.1892701188802977,-52.738939378063016,-53.50971409777583,84.62248110333383
1760596605.3626294,5.936441849871294,0.24637957563165466,0.7892154605619112,0.1687721273412267,-47.295429211542526,-48.484910789088715,80.4399468649465
1760596605.372632,6.764541060416505,0.27035563541058355,0.7518852743521258,0.14930842020231072,-41.98667609902205,-42.682840888066494,76.22876609286908
1760596605.3826857,7.5549495888010565,0.28639512904023456,0.721808038575295,0.1314434652860458,-36.872141694186176,-36.19642881442302,72.02344161840504
1760596605.3926225,8.304999569478856,0.2951355760169798,0.6996469756549338,0.11584899286906028,-31.959628936165455,-29.12040295040296,67.8355708252569
1760596605.4026058,9.012660136234803,0.2980611945803227,0.6849813927699695,0.10321831922127296,-27.210735364411903,-21.543389881895912,63.671296556088976
1760596605.412634,9.676898176000401,0.2972854353682003,0.6767466402523438,0.09413898889915762,-22.553789924781,-13.545895112343958,59.54671070000095
1760596605.4226072,10.297972593644593,0.2952076187879039,0.6736672709313265,0.0889866171958987,-17.901229896846246,-5.2051866006940575,55.49802354925289
1760596605.4326327,10.877580545534764,0.2941013656121555,0.6745895954557133,0.0878976393058927,-13.167880934737626,3.393845947253031,51.584741612473216
1760596605.4425955,11.41880423166333,0.29571019044008007,0.6786622586282681,0.09083541536581864,-8.287168619457912,12.144646293845405,47.88569759027753
1760596605.452613,11.925848224049153,0.30092923047473913,0.685363910362599,0.09771074679267902,-3.2235693829997065,20.905789447954266,44.489227436007624
1760596605.462631,12.403601764828185,0.3096380757932665,0.6944132899573764,0.10849501718253188,2.0190393585315265,29.492827735716453,41.47990897108307
1760596605.4726262,12.8570991147364,0.3207206445365189,0.7056135070155413,0.1232806644875202,7.392616545574484,37.6783732426771,38.92491799699292
1760596605.4825976,13.290975265526244,0.3322724480441295,0.7186875817288706,0.14227376280002932,12.803197595162425,45.201658868511785,36.86304667994667
1760596605.49261,13.709017284674305,0.3419604582691007,0.7331597906748262,0.1657232542335573,18.112225932410404,51.78652423382003,35.298660607016295
1760596605.5025928,14.11389025148017,0.3474699676975394,0.7483230256422517,0.19379960729898668,23.14207068805365,57.16479010780113,34.20149156446388
1760596605.512624,14.50707503698975,0.34695253886782174,0.7633060588818587,0.22644285883974152,27.687401933805404,61.100860987060585,33.51162488618343
1760596605.5225954,14.889005013742391,0.33938800105064365,0.7772229443922579,0.26320996744191794,31.533485689293226,63.4134005975245,33.14790861997814
1760596605.532655,15.25934637920309,0.3247944267584922,0.789359362200365,0.30315758007411087,34.480557307621204,63.9909110629175,33.017639745046544
1760596605.5426037,15.617345088982304,0.30425618346489613,0.7993373897055774,0.3447921765694487,36.371119679709494,62.799503410248086,33.02572051026327
1760596605.5526392,15.962166280709233,0.27978021502283634,0.8072063373782916,0.3861048786768404,37.11558665480237,59.8825672828061,33.08218223630666
1760596605.56261,16.293173996043826,0.2540250698514825,0.8134293074623071,0.42468641522519396,36.71178608322075,55.35323404565957,33.10768210419241
1760596605.5726626,16.61012879356821,0.22996743993131757,0.8187634326922627,0.4578975573527904,35.255094733365254,49.3815130506193,33.03707249278074
1760596605.5826838,16.913306342448184,0.21057103678426392,0.824058011373234,0.4830639524984818,32.93764422292746,42.178743731480765,32.82132887118673
1760596605.5926878,17.20355247775984,0.19850495847570096,0.8300152457868831,0.4976738573782583,30.036570191810522,33.982370015311716,32.42799877002789
1760596605.6026082,17.482286955652867,0.19593378017503194,0.836971604590329,0.4995722744777669,26.892493254096454,25.043863425158378,31.84003248764115
1760596605.6125991,17.751453813571576,0.20437994648324276,0.844761461959117,0.4871553382999736,23.880366205271983,15.621954819364344,31.05263114814586
1760596605.6226115,18.013400905563024,0.22464687103564704,0.852714790952233,0.4595706819675786,21.375597381364525,5.982338618699602,30.067838190149253
1760596605.6326385,18.270666190513747,0.2567899154817092,0.85981520953567,0.41692223671122014,19.718996318336917,-3.596216392642321,28.887080545680384
1760596605.6426125,18.525659504664826,0.3001276348478461,0.865006737882212,0.360463751687,19.184478399631708,-12.810797605425526,27.502599938104296
1760596605.6526136,18.780250977688915,0.3532885345327448,0.8675960199290427,0.2927487344697063,19.95337304516738,-21.321149941407345,25.889407586863758
1760596605.662729,19.035298427624646,0.41428286784259777,0.8676616759967197,0.2176880426197194,22.098410848070266,-28.73835415508178,23.999720900339003
1760596605.672617,19.290156719889147,0.480577587994325,0.8663615197772992,0.14045358369392824,25.579080409390997,-34.62010686270167,21.761610604042126
1760596605.6826217,19.54221366286807,0.5491462309402373,0.8660284194426741,0.06716916507927569,30.248336534240217,-38.477274622213145,19.0828486712491
1760596605.6926548,19.786496835363423,0.6164737939321739,0.869974152635174,0.004359825104110575,35.86894958644815,-39.7953105612442,15.859927789001022
1760596605.7026265,20.015397148695794,0.6785201489924756,0.8819788715937674,-0.04181370261638798,42.13648762145416,-38.072026810155776,11.991186287615655
1760596605.7126882,20.218555394517928,0.7306770607424791,0.905518886080633,-0.06644495323587629,48.70543543179579,-32.87051107053694,7.392134974366779
1760596605.72264,20.382953986613973,0.7677835599748937,0.9428565039437101,-0.06675122598892402,55.215446052692954,-23.883196991169065,2.010611586008913
1760596605.732835,20.493246074889043,0.784280343411978,0.9941666982479319,-0.042748537851459885,61.31584264071978,-11.000571115534242,-4.160603786533611
1760596605.7426095,20.532338900156233,0.7745735872701957,1.0568970989806614,0.0024323086467146465,66.68760922026893,5.624129405056503,-11.075590856878861
1760596605.7526183,20.482230754965528,0.7336368211404589,1.1255417444248739,0.06270145229988767,71.06276565670548,25.524345238241356,-18.632562010939584
1760596605.7626765,20.325084590985696,0.6578137939453538,1.1919512845114264,0.12966838286947477,74.2410756197282,47.894260929478676,-26.676734593742818
1760596605.7726321,20.04450495420636,0.5457121639750875,1.2462133314979564,0.19373644951146196,76.10357780234946,71.59699593568851,-35.008126876019425
1760596605.7826324,19.626962184335728,0.39901742906493187,1.278036693514375,0.2454651291045047,76.62175489511132,95.2138116366216,-43.39303330525025
1760596605.7928932,19.0632746821694,0.22302956771954757,1.278472946602558,0.2769432856022155,75.86072396472198,117.13692929943983,-51.57761017194053
1760596605.8026578,18.35002210684697,0.026746900829388753,1.241703522107937,0.2828834768144522,73.97501486487761,135.70247284200062,-59.301884446202756
1760596605.812708,17.490732166380855,-0.17760624926304344,1.1665209080759795,0.2612159547397146,71.19626685933679,149.3526119389472,-66.31261571775595
1760596605.8226273,16.496671405061836,-0.3756060631330647,1.0570988817602716,0.21311979097786124,67.81316042104355,156.8084451605363,-72.37395519656113
1760596605.832636,15.387079517077865,-0.5520969378226812,0.9227584690286191,0.1425907721730254,64.14481599346982,157.22945256766664,-77.2758900334997
1760596605.8426173,14.188718489208357,-0.6928978177687395,0.7767020914006826,0.05572586240830179,60.509624063896496,150.3337519811028,-80.8417800908393
1760596605.8526306,12.934665543431452,-0.7864927929327158,0.6340000465744924,-0.04010858966836367,57.1919845749628,136.4576737796637,-82.93708307028894
1760596605.8626056,11.66236252915979,-0.8254482500069269,0.5093150507503941,-0.13711450576099365,54.409904075768054,116.54291407729266,-83.48077536385976
1760596605.872631,10.411033358244053,-0.8073504721574518,0.41485551445291535,-0.22784629948983817,52.28721947869555,92.05175386617785,-82.45898520085593
1760596605.8827312,9.218676307804415,-0.7351512618636734,0.35889241825557333,-0.3059068900592045,50.83533591766067,64.82188467786253,-79.93796712664574
1760596605.8926318,8.118913896451264,-0.616906702778543,0.34497147544987966,-0.36652199547085346,49.94979484278354,36.880047567711074,-76.0720625886277
1760596605.9026296,7.138034115316464,-0.46496016731939693,0.37180692977336577,-0.40694792762831034,49.425465920330545,10.237703865979915,-71.10245531749001
1760596605.912635,6.292581020908453,-0.2946528646064388,0.43378786333483016,-0.4266555972918716,48.99034658012566,-13.3069101172576,-65.34424163471569
1760596605.922633,5.587836619163245,-0.12267317686089163,0.5220077887413496,-0.42723717690671903,48.35293872923695,-32.33723981707045,-59.161895885693504
1760596605.9329302,5.0174542841063285,0.0347881257169608,0.6256699102796611,-0.4120200037497081,47.2539349312748,-45.938205032221944,-52.9358482820722
1760596605.9426277,4.564347605401196,0.16383364102222597,0.7336305134027103,-0.38544091594325897,45.511327300185535,-53.755009537113686,-47.025097349256924
1760596605.952627,4.202741318217535,0.25432688028377287,0.8358029409356607,-0.35230136581892196,43.049773179402045,-55.987542756565425,-41.732085431119536
1760596605.9626148,3.9011134383377635,0.30080777246046414,0.9242014203965395,-0.3170549288683425,39.90931390003745,-53.32589898115132,-37.27586054059692
1760596605.9726365,3.6256450888849803,0.3027559326223693,0.9935212248250936,-0.28326258799084475,36.23357727853427,-46.83960948120891,-33.7776296747151
1760596605.9826407,3.3437573466969455,0.26422928369629395,1.041265134539315,-0.2532992938292102,32.24179757386424,-37.837470605214385,-31.259928148083677
1760596605.9926403,3.027339961221488,0.1930018235286873,1.0674997097458372,-0.2283289346373905,28.191562070708223,-27.716338112189778,-29.657964374660367
1760596606.0026317,2.6553433294417412,0.09938043239758636,1.0743563140405543,-0.20850257988593474,24.339933269256957,-17.81616920905653,-28.83993957920935
1760596606.0126412,2.2154909536034513,-0.005110305631796692,1.065395123491662,-0.1932908107771847,20.90961365286335,-9.295423847797863,-28.63234661854843
1760596606.0226307,1.704962643901494,-0.10901697257338432,1.0449389616180929,-0.1818461166360326,18.06463255301725,-3.036686380719976,-28.846248967116267
1760596606.0326495,1.1300008878865466,-0.20210355061890214,1.0174647703447814,-0.17330796147107544,15.89746167853508,0.4119064902842999,-29.30111574546181
1760596606.0428689,0.5045108828304838,-0.27626822611599877,0.9871161667313981,-0.16699972778812416,14.427222603163234,0.8576221425357354,-29.84367723282936
1760596606.0526357,-0.1521454952944408,-0.32616140382328446,0.957371951733,-0.16250591385424046,13.60710581341233,-1.552100194106461,-30.360229596858897
1760596606.0626128,-0.8178428013131948,-0.34945670758930897,0.9308760124231575,-0.15964750710170675,13.338352620369912,-6.37686987777198,-30.781746176523498
1760596606.0726612,-1.470478765844872,-0.34676297024482594,0.9094090701610505,-0.15838844708988173,13.488030634314418,-12.956007910874181,-31.082044556419575
1760596606.082651,-2.0904568617120622,-0.3212122012203603,0.8939659393600525,-0.15870758766570406,13.908096504608675,-20.498206175369834,-31.270120981662707
1760596606.0926788,-2.662537848611172,-0.27780146956405133,0.8848946852395102,-0.16046550332746906,14.453615112166238,-28.178362152401714,-31.378526297796643
1760596606.1026394,-3.176863634362527,-0.22259337702182716,0.8820559771564793,-0.16329166142227555,14.998356179698058,-35.231112624937296,-31.45016799695707
1760596606.1129217,-3.6291155712047827,-0.16188727721142337,0.8849698710695595,-0.1665161350110214,15.446347044640424,-41.030944006240915,-31.526014296019067
1760596606.122612,-4.0199203151603315,-0.10146537570507677,0.8929296514356365,-0.16916542591323913,15.738425249014892,-45.15033582744144,-31.635765317415462
1760596606.1327088,-4.353727840684176,-0.04599965793872987,0.9050748775791444,-0.17002908222295562,15.853450917902473,-47.39011804839567,-31.792720918668024
1760596606.1426647,-4.637440316269664,0.0013195708578651745,0.9204264045278903,-0.16778650521020144,15.804530722670785,-47.779732042384815,-31.993046337739738
1760596606.1526544,-4.8790659691405995,0.03890369706215726,0.9378942366653731,-0.1611728665170329,15.631222267759915,-46.54891067062881,-32.21869592936253
1760596606.1626952,-5.086619902348862,0.0666391136197527,0.9562746074480976,-0.14916497285141417,15.389112330323686,-44.07593697977248,-32.44261455016179
1760596606.1726456,-5.267412279782266,0.08555231652399904,0.9742553636488327,-0.1311735274979071,15.138362927533134,-40.8206053161687,-32.63460127190679
1760596606.1826491,-5.427773390759857,0.09733307417905628,0.9904479894320853,-0.10722527684501364,14.93280795701389,-37.2518734416305,-32.76639702147324
1760596606.1926408,-5.573181170399995,0.10380026582390142,1.003460282917069,-0.07810790663418,14.81098332165957,-33.780678642131015,-32.815051651120314
1760596606.2026322,-5.708689627888879,0.10640143640669299,1.012015983496461,-0.04544370634863281,14.79015172137212,-30.70739035338463,-32.76425644892889
1760596606.212637,-5.839510954772923,0.10583050884260409,1.0151166942952827,-0.011661192441641202,14.864029311550496,-28.191007090880507,-32.60389008988784
1760596606.2226262,-5.971581206816389,0.1018297604319209,1.0122283788549364,0.020154151519255096,15.00453716998666,-26.24379932643137,-32.32836960197404
1760596606.232658,-6.111938884615358,0.0932151203547086,1.0034624041444413,0.04652888647746701,15.167376822427997,-24.751093107832702,-31.934482538748878
1760596606.2426631,-6.268767800519786,0.07812954255458741,0.9897126445571556,0.06396338311482251,15.300503434071738,-23.511832423399945,-31.419259765664478
1760596606.2526786,-6.451003098555952,0.05448819601446825,0.9727075510383766,0.06933608012251073,15.353787882263427,-22.29213921139923,-30.77822114677114
1760596606.2626789,-6.667474755090556,0.020535974913367134,0.9549413887505545,0.06028988611634863,15.287625588549325,-20.88200639566967,-30.004070010719808
1760596606.2726731,-6.92566351444237,-0.02459720153455037,0.9394646815514808,0.03554914147734277,15.078225303140151,-19.144969868472174,-29.085701421967787
1760596606.2826324,-7.2302566493476395,-0.08047164909075863,0.9295400816346394,-0.004861412364998446,14.717867778533662,-17.052181074806406,-28.007295073634538
1760596606.292708,-7.581786887696544,-0.1451541715102592,0.9282003170471738,-0.05950316161695447,14.209472213692262,-14.695439626373455,-26.747330700713693
1760596606.3027573,-7.975676849501694,-0.21533322800747956,0.9377707164220478,-0.1255180689771431,13.556173935447621,-12.277821291958938,-25.2775815315331
1760596606.3126678,-8.401959546586083,-0.28671486330140816,0.959433494309841,-0.19874025870503353,12.748045449372642,-10.084684684890531,-23.562427937378526
1760596606.3226962,-8.845803385752395,-0.35460792789302564,0.9929103495463066,-0.27393883013493486,11.749201914076412,-8.441138385477629,-21.559051711514243
1760596606.3327131,-9.288782568686123,-0.4145652985740213,1.0363226823866183,-0.3452014585238331,10.488883671545906,-7.66379625520081,-19.219079323466406
1760596606.3426476,-9.710666541538169,-0.46294945059959497,1.0862604762211756,-0.4064519113314013,8.859462577732325,-8.014612919507195,-16.491965579271422
1760596606.3526669,-10.09140465110364,-0.49732663941178756,1.138062049136697,-0.4520654882853868,6.722841630579179,-9.663120078125356,-13.329896273987762
1760596606.3626606,-10.412969624239802,-0.516645585364209,1.1862826727212359,-0.47751192305084533,3.9248954997357464,-12.661220658686746,-9.693414108098235
1760596606.3727107,-10.66078387068903,-0.5212062264659993,1.2253070899694964,-0.47993059310205527,0.3159411197294526,-16.932583350257786,-5.556579489872332
1760596606.3827553,-10.82456005099711,-0.5124591891525403,1.2500366925810218,-0.45853993345131566,-4.225945706198712,-22.277008425451683,-0.9104796840162378
1760596606.392674,-10.898510654091885,-0.49269345329064185,1.256562844409254,-0.41480361670684,-9.772499834488702,-28.388870789164034,4.235635985250207
1760596606.4026616,-10.880991173792493,-0.46467262946144916,1.2427328920805238,-0.3523136390448907,-16.32734923375652,-34.88760928528464,9.855546607641712
1760596606.412662,-10.77371838399137,-0.43127456495755756,1.208526657901386,-0.276394569523008,-23.815552001812794,-41.35700030837312,15.90879739907046
1760596606.4226809,-10.580742847633575,-0.3951771540804085,1.156183404897082,-0.19347544524091323,-32.08243854642411,-47.388663080334666,22.343862027577842
1760596606.432725,-10.307356696879248,-0.35861773449498147,1.0900480871676828,-0.11031212031460114,-40.90232893083276,-52.624218430512954,29.100761819251773
1760596606.4426413,-9.9590926511174,-0.32323854066760976,1.0161403215271059,-0.033170766805386706,-49.99639977575567,-56.79028312871805,36.112652454628375
1760596606.4527419,-9.540929501027428,-0.29002025437769613,0.9414882694550448,0.032902422148520155,-59.057725286342155,-59.721468129182384,43.30636868591843
1760596606.462645,-9.05677447988123,-0.2593004684070658,0.8733070916998557,0.08460710777357908,-67.78029581061426,-61.3687466801235,50.60214308659634
1760596606.4726572,-8.509252503767458,-0.2308707745548161,0.818130838897405,0.12062536553069851,-75.887731307914,-61.793381679649364,57.912673740606365
1760596606.4826572,-7.899798737348573,-0.20414051984460702,0.7810214389799324,0.14153996020519743,-83.15682294659341,-61.149168989640266,65.14163392988337
1760596606.492652,-7.229022137438486,-0.17834455790599968,0.7649717499606672,0.14946781989021438,-89.43144017201074,-59.657287907065445,72.18182806480667
1760596606.5026302,-6.4972807809379916,-0.15275924666838808,0.7705854857223974,0.147491554914845,-94.62402239215163,-57.57822344478726,78.91353334745814
1760596606.5126991,-5.705384408247264,-0.12688299912112386,0.79606369509346,0.13900273199377147,-98.70459542982888,-55.184332594914515,85.20395507704224
1760596606.5226247,-4.855317438371599,-0.1005419104178364,0.8374808052824896,0.12709144342969442,-101.68019233081584,-52.73534074656515,90.90892806330825
1760596606.532682,-3.950860897671237,-0.07389726120485117,0.8893070536743989,0.11411953421169097,-103.56980914017564,-50.457870785875905,95.8778420260434
1760596606.5426729,-2.997992478869262,-0.04735343106219039,0.9451125787184184,0.10156892338759249,-104.38114710568571,-48.529137904111664,99.96221765254045
1760596606.5526907,-2.004969848009443,-0.0213868490029841,0.9983578268100609,0.09015796573288848,-104.0952946861842,-47.064240247907925,103.02755097258961
1760596606.5626452,-0.9820545365809586,0.003662583949473105,1.0431542469822526,0.08011956339190876,-102.66404621641487,-46.10626158901822,104.96723914727183
1760596606.5726619,0.05910029642479003,0.027781294084785246,1.0748917860765483,0.07149582101945436,-100.02168494849597,-45.61886239783297,105.71682386737628
1760596606.5826344,1.1063137702108112,0.05139523496185824,1.0906661969943363,0.06434019498894535,-96.10929919967057,-45.48205312847269,105.2665103467366
1760596606.5926468,2.147864619921813,0.07536241810144921,1.0894733105581746,0.05879401969416071,-90.90615816206792,-45.493011983181354,103.66989067208945
1760596606.6026251,3.1734512545159843,0.10082522523854136,1.0721608123719493,0.05506859358323215,-84.4604280507015,-45.374641988882814,101.04694951818134
1760596606.6126626,4.174972644048464,0.12893402324137992,1.0411532199694193,0.05338662791593779,-76.91109663060969,-44.794640914222406,97.5797794458521
1760596606.6226351,5.146998891716751,0.1604879919535351,1.0000010134616577,0.053922526831340765,-68.4944335815703,-43.39681943542566,93.5001342150413
1760596606.6326406,6.086844179771384,0.19556959796305382,0.9528376062339029,0.05675395118088845,-59.531428467278396,-40.843999016969704,89.06913648237132
1760596606.6427202,6.994219579540576,0.23326507123323245,0.9038375341477485,0.06181988168081818,-50.39690712989628,-36.86828628489251,84.55103286452879
1760596606.65265,7.870520245882642,0.27155694446450274,0.8567509002699255,0.06888234909059485,-41.47543224548361,-31.32092068869242,80.18447050667044
1760596606.6626775,8.71787586638331,0.3074462225109031,0.814556968524977,0.07750435981497195,-33.11231744334794,-24.21180035216372,76.1558265458771
1760596606.672676,9.53814739999641,0.33731707583374715,0.7792526602134023,0.08706875747551196,-25.569155799990448,-15.729327415946774,72.57922081304153
1760596606.6826358,10.332071561450567,0.35750437598288803,0.7517781210727559,0.09685737435223105,-18.9921116776436,-6.234337184132925,69.4868476372832
1760596606.6927,11.098728139335043,0.36497336135867997,0.7320755471187431,0.10618785806932811,-13.39844429328574,3.7734216216067984,66.8313764323197
1760596606.7026398,11.83543570595656,0.3579823161667739,0.7192677489752329,0.11458001120866916,-8.6830745763354,13.71274846509549,64.4998374061608
1760596606.7126422,12.538083395972553,0.3365849637577507,0.7119272039249428,0.12190568756705629,-4.643287605106898,22.994484694696375,62.33621208934434
1760596606.7226484,13.201806210343303,0.30284811592057687,0.7083939584912369,0.12847321146991852,-1.0167137637140988,31.099997837569084,60.16846040481961
1760596606.732651,13.821837342699196,0.26071326905400344,0.7070992034943426,0.135013399983721,2.4739568914412935,37.6521745895674,57.835273109257706
1760596606.7426455,14.394342646582071,0.2155080051533467,0.7068566139449031,0.1425657797191298,6.076547642341443,42.46699734401618,55.20841333284532
1760596606.7526393,14.917062440521107,0.17319275414503096,0.7070880018713588,0.15229695146755626,9.971814265027044,45.576451431996276,52.207795397585755
1760596606.7626243,15.38964259812004,0.13948580346896297,0.7079527788087938,0.16530422261954614,14.24800301626897,47.218022824117334,48.80803629319183
1760596606.7726603,15.81361132135548,0.11902838707660746,0.7103568981017307,0.18245923088843483,18.890771278326376,47.791672888480214,45.03673388699733
1760596606.7826664,16.192031605053263,0.11473239841916853,0.7158296607690995,0.2043273811016709,23.788976520156986,47.79090601965044,40.96592216404699
1760596606.792658,16.52891866484407,0.12740779161506757,0.7262747176629271,0.23116396344396556,28.75396819891932,47.71924388754283,36.69894307106818
1760596606.8026628,16.82854912575678,0.15570960770183034,0.7436199406081043,0.26294798466284286,33.54776475600848,48.00599562285439,32.355387367281075
1760596606.8126657,17.09480199237144,0.19638867694804446,0.7694049557647686,0.2993899788091098,37.9145954207976,48.934963093294996,28.056775589478598
1760596606.8226984,17.330660481678215,0.24478575907847772,0.8043549396834544,0.3398636081006273,41.61094295078602,50.59676027200498,23.91515794268908
1760596606.8326685,17.537970060841367,0.29548069079793055,0.847999938111769,0.3832659064723381,44.43082526757788,52.870787957345506,20.025804962499105
1760596606.8426476,17.717495368573882,0.3429950609627069,0.8984132358408018,0.4278719501602486,46.224597397826535,55.43797266604885,16.463952542408308
1760596606.8526652,17.869256499372263,0.3824494108519885,0.9521508011961162,0.47126990264397955,46.91057622180268,57.82105772795397,13.284618001621476
1760596606.8626401,17.993067519461334,0.41009614941336253,1.0044605890330547,0.5104348707511795,46.47959665084586,59.445771835519956,10.524070904768664
1760596606.8726985,18.0891598870494,0.4236829882183364,1.0497901386561002,0.5419570361448924,44.99349886081985,59.71373055920286,8.20156770836097
1760596606.882652,18.1587569953216,0.42263627785725444,1.0825623397117041,0.5624042082427915,42.57926880482113,58.076844208925905,6.320255218149025
1760596606.8927164,18.204473298473612,0.40807689613442544,1.0981223232912412,0.5687681340316568,39.42068200238704,54.103685262767826,4.8665709375994535
1760596606.9026418,18.23043911025696,0.38268772938829865,1.093688138009036,0.5589153905727766,35.748760266227876,47.5306412107272,3.8079800784923368
1760596606.9126458,18.24209590033393,0.35044544900546265,1.0690833132428903,0.5319501002855157,31.831435298570725,38.29415585170565,3.0894907228386392
1760596606.9226322,18.24566248941226,0.3162262985799131,1.0270397670588924,0.48840996538005166,27.961921157578516,26.544016612703132,2.630005031936435
1760596606.9326437,18.24733575526413,0.2853123019546348,0.9729698788573947,0.43025863206296266,24.444769756459028,12.640499365529386,2.320036681303933
1760596606.9426732,18.252352288925188,0.26285310112410754,0.9142691328233291,0.360689100689725,21.57864731387354,-2.860411458107754,2.022508958546189
1760596606.9526772,18.2640815644585,0.2533496031839602,0.8593243205562088,0.2837902158592344,19.635564984760006,-19.22968998867656,1.5781488027804513
1760596606.962651,18.28332333605901,0.2602038149719485,0.8164203478398145,0.20413773888938816,18.83740594610337,-35.59335697420082,0.8163332276343502
1760596606.9726856,18.307935644186227,0.2853454593802068,0.7926975683463238,0.12635815306943027,19.331758397526375,-50.96598468766465,-0.4288661406930466
1760596606.982634,18.33284589141478,0.3289299815949519,0.7932627314264519,0.05469326485266154,21.170039869807347,-64.29198972019911,-2.299038451417891
1760596606.9926481,18.35042487027794,0.38911106991010186,0.8205228789088954,-0.007411805314756698,24.291537826055766,-74.49820894894415,-4.89097169415494
1760596607.0026846,18.351146760896775,0.461911168124459,0.8737955935060372,-0.05765176198004766,28.517035370775456,-80.56046313866351,-8.23885262339538
1760596607.0127113,18.32441861691252,0.5412335528889272,0.9492426887395791,-0.09505738808580115,33.55485477498075,-81.58423416653244,-12.302698832017734
1760596607.0226998,18.259443509636867,0.6190728151829406,1.0401597918229617,-0.11997269367093283,39.0205235734162,-76.89589416954593,-16.966064865148834
1760596607.0326965,18.145989222028547,0.6859807759307691,1.137617954167581,-0.13380982120999915,44.4693508309664,-66.13694451898623,-22.044876495410215
1760596607.0426376,17.974971040820716,0.7318249223484614,1.2314038760339572,-0.13866976359002442,49.43945952332298,-49.350120416244074,-27.30741692931513
1760596607.0527,17.738812893040112,0.7468323255004767,1.3111650294019173,-0.136957439619955,53.50134044987303,-27.043588937647634,-32.50323679655337
1760596607.0626562,17.43160914328173,0.7228476694210013,1.3676456089556024,-0.13108467737511556,56.30862641469412,-0.21855517178907372,-37.39654541089843
1760596607.072677,17.049155168625717,0.6546615773883123,1.393887481501922,-0.12328842585119396,57.643543418538094,29.652793134329738,-41.798092294867864
1760596607.082672,16.588938436475004,0.5411997432356563,1.3862495836503674,-0.11554592291687107,57.44977334399359,60.707352708145784,-45.58926255845516
1760596607.092663,16.050177109271775,0.3863209146000078,1.3450708928833925,-0.10955073817523041,55.84594767429877,90.82969382277375,-48.73336874830553
1760596607.102666,15.433958915356705,0.19897496497206266,1.2747973881960055,-0.10670525068277763,53.11529522744662,117.83958629561462,-51.27176071858695
1760596607.112661,14.74347616857264,-0.007451553329522833,1.1834544847070805,-0.1080841551852954,49.67106434751649,139.70840115008232,-53.305821328673154
1760596607.1226444,13.984291924684435,-0.21661111508650488,1.081486702667801,-0.11434343686996765,46.002202134012585,154.77598302882592,-54.96922125338641
1760596607.1326807,13.164534001283341,-0.4112781889056552,0.9801637494055717,-0.12559006482007606,42.607738092098835,161.93582896130835,-56.39684591468643
1760596607.1426296,12.294918250066319,-0.5756277458367925,0.8898861543959498,-0.14126853886463833,39.93010665973774,160.7588892203638,-57.69685142119731
1760596607.1526477,11.388548260435812,-0.6972222867460917,0.8187492376826273,-0.16013711722333773,38.29709358853053,151.53529949896426,-58.93054449426798
1760596607.1626441,10.460501533133753,-0.7683125539891889,0.7716359037193138,-0.1803880616777897,37.8799850296378,135.22738967117658,-60.10220828012659
1760596607.1726515,9.527261217030707,-0.786278716131758,0.7499540788167669,-0.1999190986938093,38.67281612936754,113.34312423939005,-61.15875652292758
1760596607.1827047,8.606066104062357,-0.7532895844142483,0.7519746458589048,-0.21670737731443174,40.49496522376648,87.75248908044546,-61.997865540105124
1760596607.1926606,7.714226369690006,-0.6754312538520961,0.7736045169263384,-0.22919604902469262,43.01680032203925,60.47699045242281,-62.48294804839921
1760596607.2026863,6.868406083052989,-0.5616021285870926,0.8093678622533269,-0.2365921441667342,45.805402826518986,33.48351577384038,-62.46337667410518
1760596607.2127194,6.083836445199212,-0.42241114377908834,0.8533698403157828,-0.2389932737851261,48.384431722572266,8.509367263867645,-61.79808719193423
1760596607.2226417,5.373421598462399,-0.26921335310129213,0.9000719395457457,-0.2373024950199696,50.29940758610731,-13.063118240496154,-60.37993410228541
1760596607.2327359,4.746736873394759,-0.11332829262396917,0.9447947864480799,-0.23294764415763536,51.17818748733971,-30.27471907643731,-58.15736869290586
1760596607.2426374,4.208982375748786,0.03456680980232687,0.9839527586341716,-0.22748161332067177,50.77720516769916,-42.60366944212233,-55.14980530194598
1760596607.2526565,3.7600207188134935,0.16490718401677784,1.0150866668456682,-0.22218129964430494,49.0071784196892,-49.93825370748978,-51.45376032065293
1760596607.2626548,3.3936797330787845,0.26963642676005134,1.0367823541074146,-0.21776257593456574,45.93624506012209,-52.523515952126516,-47.23828709601649
1760596607.2726974,3.0975264323645795,0.3425970866434552,1.0485489614822194,-0.21428404418963373,41.77236971709793,-50.896265598022254,-42.72994508309028
1760596607.2826521,2.853300821650241,0.3799441292637116,1.0506969145735474,-0.21124604124169472,36.82955458912108,-45.81718714692125,-38.18925804876327
1760596607.2926452,2.638123072848308,0.38052807291019464,1.0442198079419993,-0.2078316965403934,31.483933324887822,-38.20302052066309,-33.882176313896636
1760596607.3027353,2.42646002237711,0.34612944198001483,1.0306611305166484,-0.20320110621831375,26.126506957495163,-29.058150582546354,-30.051081392366534
1760596607.3128688,2.192682420803821,0.28142431799346235,1.0119470614679031,-0.19674593669158785,21.119096385113973,-19.40440984142954,-26.889886811331493
1760596607.322627,1.913896533831645,0.19361561499042385,0.9901885549439206,-0.18824032196644364,16.758927959435805,-10.209824652126114,-24.526762543585782
1760596607.332662,1.5726302270950823,0.09174381084227105,0.9674803794835114,-0.17786989882179818,13.255340816704253,-2.3200726898284683,-23.016389456619606
1760596607.34264,1.158934093437892,-0.014233097638180089,0.9457314625727575,-0.1661593908067446,10.719913177853034,3.601062282219726,-22.34189784947384
1760596607.3526587,0.6715427797929476,-0.1144512457471576,0.9265482488010384,-0.15383671670609578,9.169302799237999,7.115274876348406,-22.425041160116468
1760596607.3626442,0.11790986111780696,-0.20009727258080168,0.9111739889761384,-0.14167327209973882,8.538519453596955,8.031850487027171,-23.14196187818868
1760596607.372677,-0.4868696099552234,-0.2641905751980061,0.9004729698707549,-0.13033493689804368,8.701293111547196,6.405688556894336,-24.341380323730075
1760596607.3826506,-1.1220514412756775,-0.3021164237498421,0.8949423319993646,-0.12026951185236341,9.493703727621932,2.5120178962868316,-25.86224749255449
1760596607.3926663,-1.763818498943331,-0.3118779692044183,0.8947340239223819,-0.11164514054612219,10.737305311284139,-3.1982619690367837,-27.548657210988463
1760596607.4026906,-2.3880439171963728,-0.29407144558251685,0.8996739461232381,-0.10434366772598591,12.258603690841326,-10.15633016876188,-29.260798414827637
1760596607.4126935,-2.9728547143400323,-0.2516186133570268,0.9092723309010121,-0.09800408211746277,13.902840424409447,-17.73879992652406,-30.881685137216238
1760596607.422731,-3.500690121710229,-0.18931402083249899,0.9227264010408607,-0.09210385794460305,15.541355623878582,-25.329188579758586,-32.32016533157252
1760596607.4326985,-3.959677497950385,-0.11325963734075152,0.9389222910154593,-0.08606044730504889,17.073051200690326,-32.37100557765941,-33.51118017924578
1760596607.4426463,-4.344288763449622,-0.03026223420148086,0.9564487043216077,-0.07933225221551427,18.42142527555172,-38.40768679827255,-34.4143814258016
1760596607.4526966,-4.655355303508477,0.052741320193796036,0.973638809555876,-0.0714990371000432,19.529188657328373,-43.10680179034823,-35.01204730692852
1760596607.46266,-4.89958604730706,0.12918481704240342,0.9886557122719571,-0.06230728697939169,20.352591941158376,-46.26836126810671,-35.306863498038105
1760596607.472666,-5.088747822512056,0.19327554679584924,0.9996289545948122,-0.051677023705733106,20.857325780730527,-47.81930151733351,-35.31968403083829
1760596607.4826536,-5.238639977477641,0.24029607589571347,1.00483850063195,-0.03968057668265818,21.017252482816076,-47.797902792792335,-35.08699504014509
1760596607.492685,-5.367945130042697,0.2668176978355353,1.0029328103309454,-0.02651628863506506,20.816337293417625,-46.332666186096105,-34.65758633683094
1760596607.50266,-5.496985473378611,0.27084419826300304,0.9931596187454685,-0.012506464645177106,20.25309856190995,-43.61991377082857,-34.08795289133836
1760596607.5126643,-5.646378260977439,0.2518971708194215,0.9755803820308446,0.00185752902930213,19.345915791909075,-39.90326786224358,-33.436192672464514
1760596607.5226483,-5.835578158664652,0.21103671338206878,0.9512314260388529,0.01582409066579563,18.136900810647695,-35.45661718554837,-32.754568222611205
1760596607.532657,-6.081323124064236,0.15079509951550252,0.92218948300094,0.028278653606934247,16.69202150022802,-30.570711155559028,-32.08133955600966
1760596607.5426507,-6.396059841366985,0.0749989802741619,0.8915020779177542,0.037687839509285115,15.095948066532525,-25.542590826084048,-31.432832780910086
1760596607.552668,-6.786498789878909,-0.011528054423948338,0.8629580007940626,0.042151344373543356,13.441543764711225,-20.666806969940065,-30.796907406278102
1760596607.5626488,-7.252510392093505,-0.10336451181725015,0.8406993060282284,0.03960370659122645,11.815505961397461,-16.22751939498394,-30.129007959906065
1760596607.5726538,-7.786589728224574,-0.19494967895364868,0.8287095701222699,0.028170468636210814,10.28272690431251,-12.490703487259202,-29.351835349680414
1760596607.5826945,-8.374064718337646,-0.2810458308627381,0.8302459242384628,0.006630082251794646,8.872211464332176,-9.695666768647488,-28.359344409091694
1760596607.5926602,-8.994103555986765,-0.35714605417790757,0.8473041289532185,-0.025119846128985192,7.567057370620389,-8.045086584082126,-27.025248136575524
1760596607.602708,-9.621426496001048,-0.41978114745188966,0.8802071540543663,-0.06571864406856347,6.300365308147779,-7.69305299718238,-25.215486108546088
1760596607.6126688,-10.228498740713524,-0.46670171826541035,0.9273884703692895,-0.11223042859686584,4.95809811971002,-8.731233822393886,-22.803271889723295
1760596607.6226597,-10.787912690534071,-0.4969376887191006,0.9854139477317152,-0.16032566334205325,3.3888530483637185,-11.174258252687572,-19.684557106198966
1760596607.6326666,-11.274658537974366,-0.5107547822663214,1.0492614150775907,-0.20475843898750745,1.4193857035027961,-14.946610600961437,-15.791305136647482
1760596607.6426487,-11.668011864847104,-0.5095291501447462,1.1128499589669039,-0.240073058716269,-1.1261833321433232,-19.874397434239434,-11.100129689587952
1760596607.652651,-11.952825180548595,-0.49555167303493597,1.1697729507506285,-0.26140903763133594,-4.405984337941568,-25.68580439990576,-5.634741909706946
1760596607.6626475,-12.120097578456368,-0.4717644405182176,1.2141436347550305,-0.2652441801478509,-8.541248746249508,-32.02349385211071,0.5379499769425747
1760596607.672791,-12.166806347523982,-0.4414335192610483,1.2414253808459588,-0.24993488214715384,-13.600329251520437,-38.4705257800765,7.316832516873283
1760596607.682657,-12.095096153607935,-0.4077768128401568,1.2491063097045882,-0.21596272665087024,-19.58719315638435,-44.588835703961095,14.5784671344619
1760596607.6926696,-11.911010565678776,-0.3735875121435061,1.2370983746105144,-0.16585459277909803,-26.435105228715603,-49.96631876366495,22.189361815297747
1760596607.7027113,-11.62300064885666,-0.34091149713504904,1.2077893494500487,-0.10380133162392101,-34.00581093150182,-54.26581431106169,30.01642017307813
1760596607.7128537,-11.240452574820308,-0.3108413797721767,1.1657366574292118,-0.03505184058289815,-42.09434240347811,-57.26757549603263,37.934019836171565
1760596607.7226682,-10.772446675294452,-0.2834758267578514,1.1170488759537198,0.034805993794662454,-50.43948478604325,-58.89685147833108,45.82701173606176
1760596607.732663,-10.226903133418121,-0.2580610079434515,1.0685455838847113,0.10055764100251344,-58.739757606818166,-59.230336346614294,53.5897861796622
1760596607.7426565,-9.610193480753205,-0.23328798772615641,1.0268156380265103,0.15796390603425278,-66.6743104095496,-58.47920371638599,61.12233658725566
1760596607.752687,-8.92721236075803,-0.20767830360021028,0.9973062627664829,0.20417902848465896,-73.92731735637226,-56.95132028757486,68.32488444495625
1760596607.7626448,-8.181824355475149,-0.179965806155567,0.9835692820543795,0.237944733434014,-80.21337676510748,-54.99962407821629,75.09298392350301
1760596607.7726698,-7.377542070016418,-0.14938813009119875,0.9867669792229407,0.25955097446530134,-85.30050035402435,-52.9662819838456,81.31499570244367
1760596607.7826712,-6.518266408650552,-0.11583573182960683,1.0055040851700474,0.2705814964834891,-89.02716455409785,-51.132460019515655,86.87337395934935
1760596607.7926693,-5.608930485146501,-0.07985422871781989,1.036014267567002,0.27348900024351275,-91.31092503897109,-49.681565980311184,91.65038369981856
1760596607.80269,-4.655926923146424,-0.04253297442008335,1.0726945559605394,0.2710760893941765,-92.14782429673859,-48.68058783497855,95.537777988228
1760596607.8127553,-3.6672511195397965,-0.0053246806062026055,1.1089419219228036,0.26599052652224137,-91.60344625445045,-48.080706758725015,98.44886900070215
1760596607.822808,-2.6523475582665372,0.0301688941335583,1.1381893522368352,0.26035089334390077,-89.79763601646553,-47.73532497806354,100.33065458280176
1760596607.8327084,-1.6216933574539634,0.06242628634835194,1.154967822102953,0.2555747612389118,-86.88572986114873,-47.431209086738946,101.17345154454317
1760596607.8427591,-0.5861884250660281,0.09023837842901494,1.1557725893195763,0.2523993546417966,-83.03960988887657,-46.92675551469145,101.01587871795022
1760596607.8526635,0.4435553981577514,0.11291974175908608,1.1395361469158396,0.2510159892237967,-78.43165802381992,-45.990705435282194,99.94389375984862
1760596607.8627298,1.4579217151854793,0.1304552028468221,1.1076159209220533,0.2512244228589848,-73.2235329986534,-44.43522973739339,98.0836814139452
1760596607.8727474,2.4488887863387467,0.14353060163290243,1.0633424353008416,0.2525483935060241,-67.56003572736138,-42.139098144542125,95.58928338202334
1760596607.8826683,3.410431594972323,0.15342046289170963,1.0112760670789218,0.25430546381656843,-61.56701367123662,-39.05900627124153,92.62680145436724
1760596607.892653,4.338671362441818,0.16175009022129314,0.9563580187937825,0.2556588169925133,-55.351890753533915,-35.229176073907595,89.35767920340521
1760596607.902678,5.231763399495863,0.17018804940805157,0.9031256816040502,0.2556819878345848,-49.005863784436464,-30.750648836749605,85.9238069358517
1760596607.912662,6.089561361284209,0.1801388971791262,0.8551172347641419,0.2534488562883467,-42.60741086411628,-25.772543726129488,82.43684533316818
1760596607.9227111,6.913131372302243,0.19249718485769923,0.8145325216501955,0.24813976532455415,-36.22691228807274,-20.468380817258716,78.97322585432269
1760596607.933013,7.704205373262255,0.20750352558914342,0.7821601791907014,0.23914381038121124,-29.931776788698514,-15.011310820156401,75.57498380897798
1760596607.9426699,8.46465886136435,0.2247206484845924,0.7575349794474395,0.22613935806184288,-23.790851619885316,-9.552307092395296,72.25530341382576
1760596607.9526703,9.196079439782176,0.24312653938269002,0.7392599122105067,0.20914462707742168,-17.876577479227752,-4.204731558559198,69.00679584233701
1760596607.9626954,9.89946735171021,0.26130564850678145,0.7254155369449342,0.18854077982531064,-12.263642078142302,0.9627191770205449,65.81030002557326
1760596607.9726844,10.575083757839964,0.2777070944323065,0.7139822792820745,0.16507548384824536,-7.023773316542008,5.924432086396906,62.64235247420102
1760596607.9827085,11.222439545047807,0.2909274771223703,0.7032149936683363,0.13985252321616684,-2.2175101082122466,10.689032247342949,59.48021118148751
1760596607.9926553,11.84039818678928,0.299966352861858,0.6919270254976205,0.11430481151793351,2.1151222943440433,15.285793108272548,56.30417575892906
1760596608.0026593,12.427353209115186,0.304403041656099,0.6796580924302503,0.09013965280386943,5.962545691811288,19.749289393555948,53.097667503549204
1760596608.0126722,12.981437178097519,0.3044607153270298,0.6667152113434848,0.0692420450303347,9.345904287354488,24.105038576798027,49.84595641353667
1760596608.0226614,13.500725395968994,0.30095244856630493,0.654089768667563,0.05352785216984997,12.318323914089666,28.35808691572048,46.534537630219084
1760596608.032667,13.983410654413795,0.2951310534230383,0.6432670535927468,0.04475377970479666,14.958982782446308,32.485481730321204,43.148047299834396
1760596608.042687,14.427940168138768,0.2884802495380419,0.635956175669666,0.044310004146958806,17.3628146699224,36.432688592060806,39.67033302562326
1760596608.052672,14.833117042670798,0.2824871000376855,0.6337773351045446,0.05303535091148259,19.62722695006356,40.11344183869759,36.08591627759318
1760596608.0626671,15.198173578131284,0.2784286104087443,0.6379490296705896,0.0710970131375989,21.83739985908545,43.412231953801744,32.38270744568137
1760596608.0726762,15.522823319690433,0.27719599015496516,0.6490188678701033,0.09796401590481832,24.051725340651025,46.188579769002175,28.55557279957564
1760596608.0828037,15.807295957428275,0.27917366632082635,0.6666786139534061,0.13247847836127197,26.288956569158778,48.28241569895768,24.61023052401947
1760596608.0926852,16.052354991982657,0.2841857458203916,0.6896994470808044,0.17300084209468686,28.518874765872827,49.52018748863559,20.566861791731778
1760596608.1026661,16.259291515077187,0.2915165232040732,0.7160164626535545,0.2175872899794202,30.658643070142322,49.72163010286911,16.462647233858775
1760596608.1126726,16.429880535312726,0.3000043144037602,0.7429737542925522,0.2641569862352611,32.57692509863078,48.70743137945238,12.35225602799
1760596608.1226766,16.566285775190554,0.30820254701234384,0.7677076550699796,0.3106207949289933,34.10678015793916,46.30832519003654,8.305386181511299
1760596608.1326878,16.670909665542048,0.31459845503323414,0.7876084811039659,0.3549614328569094,35.06658658099712,42.37624425461782,4.400957426995554
1760596608.1426942,16.746204050873416,0.3178742942641834,0.800780891146534,0.3952699610346824,35.28664805086322,36.797811437185054,0.7183711797248471
1760596608.1526957,16.794474423149936,0.3171862276944469,0.8064250868096737,0.4297550352239347,34.63825244360668,29.509708093299096,-2.672946019277923
1760596608.1629794,16.817717245288783,0.31242357450541025,0.8050767080080062,0.4567475510175712,33.061670883392765,20.514755644825637,-5.72398178692224
1760596608.1727035,16.81752226350866,0.3044016297270868,0.7986655402236301,0.4747187751899115,30.58954765601983,9.897310760256051,-8.41469874615309
1760596608.1828308,16.795052693225248,0.29494106175266505,0.7903787593651156,0.48231855155137293,27.362132680414398,-2.1630892308736085,-10.759088084806788
1760596608.192702,16.751093542674024,0.2867979654720984,0.7843389231901623,0.47843369295943317,23.630903269088524,-15.3802975573562,-12.805591357605582
1760596608.2026906,16.686140450562853,0.2834277941993765,0.7851275954499819,0.46226842010262265,19.74762856126431,-29.352517255743223,-14.632454603864563
1760596608.21271,16.600494913711223,0.28858974678889465,0.7972032709702719,0.43344997223310855,16.137273677377255,-43.556264241457036,-16.338368166744107
1760596608.2240922,16.4943389407256,0.30582276671415676,0.8242778903252834,0.39215528550230033,13.255501356414804,-57.34514657313938,-18.029532019436143
1760596608.2327156,16.367776805852777,0.33784504889574857,0.8687277151289119,0.33923923042489657,11.534574867993854,-69.9567731267379,-19.804943854862042
1760596608.242703,16.220841422022268,0.38594089714524227,0.9311179258689573,0.276328569831969,11.32444656689867,-80.53220365209526,-21.74212874100085
1760596608.252717,16.053460303726624,0.44940383169963827,1.0099126027614487,0.20583875594077214,12.837914997871906,-88.15240571404897,-23.88567019354665
1760596608.2626748,15.8653658633865,0.5251102728970052,1.1014204141073414,0.13088022007402206,16.10934010128745,-91.89483958285845,-26.240749087675074
1760596608.2727044,15.655929657787736,0.6073061365910367,1.1999911496208557,0.05504525675851159,20.97515805663665,-90.91051324803918,-28.773387324626075
1760596608.2826946,15.423910174378168,0.6876915967626246,1.2984377913133127,-0.017902787026729487,27.081273709667833,-84.5179222639314,-31.418132043327212
1760596608.2926679,15.16712958650067,0.7558770899466337,1.388633783158556,-0.08438744308449853,33.917825798422555,-72.30585727655651,-34.09250587877713
1760596608.3026917,14.88213017919714,0.8002528987832879,1.4622398055213752,-0.14135473101520435,40.87696518670828,-54.232993637112735,-36.71588752985582
1760596608.3126929,14.563897663315412,0.8092665914803414,1.5115327038959947,-0.1865224383959024,47.325456551763516,-30.709277776022304,-39.22892467276627
1760596608.322726,14.205767885114124,0.7730342512833616,1.530307348877963,-0.21851666226087113,52.68181199809027,-2.6429909346751046,-41.60854599328182
1760596608.3326855,13.799643459475725,0.6851153538040173,1.5147855107541375,-0.23692046867550046,56.4872209875626,28.561470741311222,-43.87364470126868
1760596608.3427126,13.336621713615916,0.5441641954592977,1.4644090182443712,-0.24228614629918635,58.460433599205594,61.0659831743717,-46.07806375907693
1760596608.3527312,12.808063902503621,0.35507635641093144,1.3823437539646144,-0.23613887089204044,58.52891656140685,92.7246865187904,-48.29076465089488
1760596608.362685,12.207023465670654,0.1292458678805946,1.2755056866553858,-0.22094098307621968,56.832105855540526,121.26671157396592,-50.567347715489824
1760596608.3726702,11.529825540148266,-0.11631493059512288,1.1539713092822352,-0.19994293314132128,53.69704253689372,144.51755050552666,-52.920877241090864
1760596608.382759,10.77749517453565,-0.3609776413814451,1.029766943664565,-0.17686080488313116,49.590963770182334,160.6316743070354,-55.301385062192814
1760596608.3927138,9.956712479719823,-0.5832922457421466,0.9152128567074558,-0.1553871084249852,45.05827221591257,168.30393934001268,-57.591356572773606
1760596608.4026797,9.080050331082091,-0.7639947188134549,0.821150556154034,-0.1386224140607341,40.650365144232616,166.92763242573707,-59.6194554426366
1760596608.412699,8.16540396608635,-0.8885765021948072,0.7554291615153459,-0.12856960745739904,36.856732499259564,156.6730940791166,-61.18878732051478
1760596608.422684,7.2346975972376315,-0.9489094622161716,0.7219533035753278,-0.12583526672148,34.04529845536754,138.4726546806132,-62.111649714165964
1760596608.4326916,6.312091089523579,-0.9437190450950509,0.7204443392657761,-0.12963092173366667,32.41932251399501,113.91336399952237,-62.24157132657224
1760596608.44268,5.421972105370291,-0.8780178939198809,0.7468968659871198,-0.13807998125790732,31.996897778996054,85.05474542274689,-61.495503918238576
1760596608.4526768,4.587002236063204,-0.7618253650812462,0.7945672024063729,-0.14874599030341182,32.6166744763976,54.20035871675585,-59.86293332948274
1760596608.4626935,3.8264149520325925,-0.6085514345173137,0.8552396487117917,-0.15923472844555436,33.96965488308548,23.657122444972586,-57.40262900088329
1760596608.472715,3.1546764779552565,-0.43334887304791153,0.9204976075809685,-0.16770451622807037,35.65218864153469,-4.484916751131222,-54.23043884904734
1760596608.482708,2.580549024007858,-0.2516158513271388,0.9827783739484028,-0.17315120117264046,37.230939869499885,-28.52640965937155,-50.50251133223729
1760596608.4926872,2.106553227329738,-0.07773390987194757,1.0360881220790865,-0.17541087274913925,38.30826146497742,-47.270789900355346,-46.39786956589572
1760596608.5027254,1.7288120475974547,0.0759237277223574,1.0763579054883077,-0.17492278465712552,38.577070341365186,-60.07132080447736,-42.10301745808359
1760596608.512711,1.4372639715819076,0.19970277342557405,1.1014963159396345,-0.17237721134653305,37.857508298107504,-66.82011548028386,-37.799850524132516
1760596608.5227146,1.216250131986535,0.2871089431412945,1.1112251645042694,-0.16839742027863192,36.111887132003,-67.89223134624679,-33.656952347999045
1760596608.5327072,1.0454952153947883,0.33500669231506924,1.1067799597035348,-0.16336160980346118,33.43827160397444,-64.05927440074626,-29.823563503378757
1760596608.5426924,0.9014990293633862,0.3435980713673404,1.0905362649511035,-0.1573908691328149,30.046028752591916,-56.384987408775174,-26.425226845031773
1760596608.5526915,0.7593219667243831,0.3161884363611983,1.0656034539996981,-0.15045991441590778,26.218795609698887,-46.11229881733028,-23.560320635984397
1760596608.5626974,0.5946834214456355,0.2587423133897413,1.0354181535044593,-0.1425564895561407,22.27152990775881,-34.54900623031471,-21.297159245960252
1760596608.5726783,0.38620817204007196,0.17924720075767592,1.003369095951019,-0.13382129476919005,18.508406211198807,-22.95828549648278,-19.67180121029117
1760596608.582706,0.11757076884771389,0.08692501587239772,0.9724846927856704,-0.12462514091517549,15.187325359857372,-12.460257932761898,-18.687023358745027
1760596608.5926893,-0.22076819407366471,-0.008646576193173128,0.9452082033614534,-0.1155668928312797,12.49504688413053,-3.9511167288258164,-18.313037299186554
1760596608.6026833,-0.6305323321212889,-0.09842056005565106,0.923273008300209,-0.1073977500204741,10.534827003113639,1.9540823140784402,-18.49036806515468
1760596608.6127346,-1.105513961171172,-0.17468121812619264,0.9076758890314706,-0.10089440535282374,9.326303208427692,4.950444517762778,-19.13488915973057
1760596608.6226952,-1.6324229594008983,-0.23167048904704468,0.8987333841232289,-0.09671479228769854,8.815577236745986,5.042188237916915,-20.144493660157014
1760596608.6326888,-2.192572394914146,-0.265973623729496,0.8961978538748369,-0.09527272288534924,8.892329017041746,2.5127301864195632,-21.406548665059965
1760596608.6426938,-2.7641270610952864,-0.2766316461765647,0.8994067054695128,-0.09666122638523009,9.410454001980913,-2.129935672861984,-22.805291617026732
1760596608.6527398,-3.3245598791547493,-0.26498493033733067,0.9074396987757936,-0.10064177730969166,10.209020372815127,-8.225960121602983,-24.228615430974948
1760596608.6627483,-3.8529551828053124,-0.2342844475957478,0.9192634911177107,-0.10670150501535745,11.131033497467444,-15.046129097925828,-25.574034101212085
1760596608.672891,-4.331859888295478,-0.18913191891657363,0.9338474121835898,-0.11416550486901697,12.038326724344227,-21.874926704009894,-26.75382808990198
1760596608.6827252,-4.748494627473363,-0.134827270125642,0.950238882304601,-0.12233861381141053,12.821695116529025,-28.085103145970677,-27.699387848087763
1760596608.6926978,-5.095270222567309,-0.07671118441248975,0.9675915206905459,-0.13064261085008821,13.40605611069679,-33.19586322782465,-28.364668256558314
1760596608.7027466,-5.369680013659785,-0.01958970399039934,0.9851453553838134,-0.1387128171446969,13.750936857472603,-36.9089421571163,-28.728529453029324
1760596608.7127156,-5.57372889317658,0.032686332815629396,1.0021674245722403,-0.14642399173942133,13.846986728775285,-39.11973019396783,-28.795647273440665
1760596608.7227476,-5.713100689134402,0.07744160525029938,1.0178708165325714,-0.15382961556352467,13.709536611225523,-39.90392934255225,-28.59568396979283
1760596608.7327461,-5.796257617711985,0.11318683693708442,1.0313374707915626,-0.16102023749770328,13.370467809885419,-39.483516296864245,-28.180534565828733
1760596608.7428021,-5.833621694911567,0.13944716019733952,1.0414723819986578,-0.1679319529330561,12.869758669559467,-38.17846631887611,-27.619675182821954
1760596608.7527182,-5.836925078876899,0.15646672476476098,1.047013538620928,-0.17415676589809145,12.24799714045277,-36.352256194685516,-26.993877170077024
1760596608.7627606,-5.818748786215781,0.16486595560541778,1.0466132169844813,-0.17881304152709981,11.540869666159676,-34.35935345070766,-26.387758936401287
1760596608.7726846,-5.792207603138892,0.16532991557183224,1.0389932528380288,-0.1805250934670426,10.776183656291389,-32.501732729807884,-25.881790797334798
1760596608.7827306,-5.770692564996638,0.15839194762484174,1.023161915035633,-0.17754254693583876,9.973428723369096,-30.999219461339607,-25.544434052414363
1760596608.7926924,-5.767561979727805,0.144346986197418,0.998665425589344,-0.16800613414949134,9.145373792658583,-29.975674296770343,-25.425092096517435
1760596608.8026881,-5.795687469360395,0.12328891200426366,0.9658348839537756,-0.1503357687078863,8.300877642444775,-29.46036089410949,-25.54850432400241
1760596608.8126962,-5.866813175237481,0.09523047929184802,0.9259814540130319,-0.12368264558936601,7.447996665231493,-29.401840582958794,-25.91114408614384
1760596608.8226895,-5.990758356985577,0.06024988936962385,0.8814913330721418,-0.08836060713563774,6.596518925357515,-29.69064779133299,-26.48007336650597
1760596608.8327281,-6.174559700702028,0.01861914762041514,0.8357781488472118,-0.04616056797401136,5.759148203124385,-30.18671881208267,-27.19451195097877
1760596608.8427432,-6.42168831426934,-0.02910775990931004,0.7930640188144741,-0.0004542401570139105,4.950728544457296,-30.74779939658782,-27.97008267200127
1760596608.8526745,-6.731482073606658,-0.08205110058900608,0.7579825477674668,0.04399129046506705,4.18523796776362,-31.255580537736854,-28.70535262918889
1760596608.8627486,-7.09891283081528,-0.13900372690829235,0.7350296105301275,0.08153187015929074,3.4708254835160752,-31.63693001196753,-29.289988500930473
1760596608.8727815,-7.514766279068107,-0.1984692298458628,0.7279303660070284,0.10647692855824932,2.8038032022847172,-31.878204087300546,-29.61363903412293
1760596608.882843,-7.9662525218821045,-0.2587365114546876,0.739033006786147,0.11411813757115102,2.1630093951469536,-32.03122121837858,-29.574571260206945
1760596608.8926795,-8.437993937705206,-0.3179805591359094,0.7688577984661946,0.10174390719386829,1.5061137708475199,-32.21012321811545,-29.087126573300587
1760596608.9029114,-8.913269683094367,-0.3743696968202038,0.8159041542629647,0.06937538550006926,0.7691392576200966,-32.579148052524026,-28.087230768837127
1760596608.9127862,-9.375351089029303,-0.4261566547760543,0.8767561748188137,0.02000120096622005,-0.1302128307537188,-33.332342466876135,-26.53547537523519
1760596608.922703,-9.808748310503589,-0.47174053113108544,0.9464588408200408,-0.04077107443201243,-1.2856979102227746,-34.66734855082526,-24.41763675604245
1760596608.9327307,-10.200206482282217,-0.5097038161558672,1.019088902076411,-0.10555192031902709,-2.7931190952897333,-36.75636553202282,-21.74283491094266
1760596608.9427164,-10.539336935166608,-0.538841467878221,1.088423347048289,-0.1662805935872028,-4.739802167917425,-39.71798888317022,-18.53979767915876
1760596608.9526992,-10.818838225203473,-0.5582011959767492,1.1486088917359745,-0.21537359764362965,-7.194470345448945,-43.593775196622374,-14.851874280636423
1760596608.9627066,-11.034335895029786,-0.5671464979328237,1.19475096937197,-0.2467211283492369,-10.19879928690502,-48.333093465104426,-10.731520782368765
1760596608.972805,-11.183928152560847,-0.5654391477293244,1.223364102714372,-0.2564060392915811,-13.761447648933812,-53.78911984705609,-6.234937854331867
1760596608.9827554,-11.267554228575001,-0.5533203527399181,1.2326507311332884,-0.2430779470391231,-17.85478270956809,-59.727680719229184,-1.4174124732154316
1760596608.9927347,-11.286304061412308,-0.5315592048134733,1.222596480222565,-0.20796456282755385,-22.41407529170569,-65.84900678759456,3.6702036378530347
1760596609.0027342,-11.241771913007868,-0.5014412270091313,1.194884966427331,-0.15454704473823574,-27.338815056897257,-71.82039191836546,8.983494280267768
1760596609.0129335,-11.135532296653205,-0.4646860053106977,1.1526482543169376,-0.0879678233088135,-32.49604440254844,-77.31554417429604,14.484609301934777
1760596609.022952,-10.968789436151031,-0.42330122225518796,1.1000841486289372,-0.014274672007029733,-37.72603432850241,-82.05460794033084,20.140329415324516
1760596609.0326896,-10.742223277623825,-0.3793939843588723,1.0419874176170039,0.0603735665380375,-42.85084304583022,-85.83805335223644,25.91819441364366
1760596609.0427086,-10.456027368091863,-0.3349680880197382,0.9832525221712528,0.13041440373819393,-47.68598227379008,-88.56834379870503,31.781241183190733
1760596609.052687,-10.11010933124431,-0.2917386048301894,0.9284052337745353,0.19140405072184513,-52.05454263709138,-90.25554821556625,37.682256792044384
1760596609.0627418,-9.704406507024672,-0.25099216926307044,0.8812095550101932,0.24030661624158148,-55.80199875698156,-91.00632852546238,43.558626055880495
1760596609.072684,-9.239259887740857,-0.21351144424509094,0.8443784457311538,0.27556057066097217,-58.809035511353564,-90.99905551700674,49.32881051902196
1760596609.0827289,-8.715788583943924,-0.1795677988311664,0.819398661890158,0.2969790482549143,-60.99966160062299,-90.45022862465947,54.89130579087186
1760596609.0927083,-8.13621226416849,-0.14897327197808166,0.8064698018224358,0.3055589243949266,-62.342926735539436,-89.57829677423584,60.12666714902517
1760596609.1027102,-7.5040775478685635,-0.12117550595511613,0.8045580800640556,0.3032599715897941,-62.84847303280449,-88.5703986790723,64.90288539859716
1760596609.112698,-6.824354801781821,-0.0953770819676006,0.811567233536102,0.2927777181038018,-62.55800300418088,-87.55606145268612,69.0840183558734
1760596609.1228502,-6.103384801906991,-0.07066258934680959,0.8246203401665859,0.2772937852135558,-61.535507306563396,-86.59030859866822,72.54154032434144
1760596609.1327024,-5.3486717022610915,-0.04612270396571482,0.840427649324058,0.2601748929998697,-59.85847385690625,-85.6473753868205,75.16738258389752
1760596609.1426885,-4.5685393865222075,-0.020971246282685246,0.8556985514823958,0.24461929907180946,-57.61094018945618,-84.62527422367134,76.88713819376727
1760596609.1527286,-3.7716890727307315,0.005347523143675985,0.8675485925388156,0.23329572108374946,-54.878109752419554,-83.36057090760073,77.67149682731866
1760596609.162692,-2.966711709425997,0.033070484596651996,0.8738518814995949,0.2280470522990804,-51.74188857870325,-81.65178187929794,77.54384124758154
1760596609.1729057,-2.1616150910743333,0.062063815253484415,0.8734898233462352,0.22971994175127616,-48.277043325684915,-79.28877720436199,76.58223597676674
1760596609.1828196,-1.36342195977078,0.09182639801983458,0.86645176597637,0.23814203655334298,-44.54826371913034,-76.0846013738775,74.91479559044224
1760596609.192728,-0.5778843285821805,0.12155453645534771,0.8537599105886283,0.2522280257867536,-40.60874436030741,-71.90546854501284,72.70850319193646
1760596609.2027106,0.19065561727623706,0.15025305897817845,0.8372220272058326,0.27017486435714727,-36.50077929068719,-66.69465574794147,70.15272264972529
1760596609.2126956,0.9392451816009935,0.17686247152274104,0.8190550872476755,0.2897065129393337,-32.258428887685135,-60.486756226491345,67.43965230199284
1760596609.2227015,1.666149677899465,0.20037221484133844,0.8014582556260872,0.3083360235026474,-27.911832113805147,-53.410167840304894,64.74457927839104
1760596609.232677,2.37056273882415,0.219904984957188,0.7862284948775028,0.323620553675307,-23.49229408778662,-45.67753368728875,62.20884002465983
1760596609.2427495,3.0522551862461467,0.23477661166268415,0.7744970211398636,0.333395489756128,-19.03686424085411,-37.56582094896397,59.92781821682722
1760596609.252673,3.7112348935725934,0.24454847996603182,0.7666264134097893,0.3359862826883444,-14.59091071337208,-29.389381402574145,57.94527653246863
1760596609.2627325,4.347490410641466,0.24908705602544423,0.7622625815374121,0.33040009618951144,-10.20756932557643,-21.470114268443087,56.25415272733178
1760596609.2726831,4.9608725367532,0.2486290817725195,0.7605000581716334,0.31648371293452565,-5.944037186390465,-14.108459910544388,54.80295094570496
1760596609.282702,5.551132924487726,0.24383287598516512,0.7601063718206776,0.29500699429086974,-1.8560024618648912,-7.557839086286189,53.506169851971016
1760596609.2927637,6.11809648492022,0.23578915671465392,0.7597613808551149,0.26762224007691415,2.0078379891034057,-2.0042264995816113,52.25686284007702
1760596609.3027077,6.661908008641745,0.22597285735865041,0.7582828022476478,0.2366819895388332,5.609720487784994,2.44771916436261,50.93942221058581
1760596609.3126848,7.183273178018034,0.21613303261114622,0.7548145414267027,0.20495264073186098,8.924961517220169,5.780553778979474,49.44100146062473
1760596609.3227036,7.683612566216068,0.20813068764432438,0.7489548559490935,0.17529485018328722,11.942947672140862,8.06099920583471,47.66057492194997
1760596609.3326766,8.165061461780402,0.2037403030536106,0.7408084033871968,0.15037508605180605,14.667622154428988,9.428013056280083,45.515340320968676
1760596609.3426974,8.630275114939447,0.20443370375355802,0.7309590673639951,0.13244374268904932,17.11752510971697,10.073267318948233,42.94478886887735
1760596609.3526878,9.082036002355505,0.2111700120174412,0.720371657770438,0.12318724387293685,19.324846102637608,10.216284496918133,39.91312326128849
1760596609.3627098,9.522703676675672,0.22422290213402096,0.7102380197941895,0.12364369178886009,21.332709900049874,10.077042477859493,36.41075192161411
1760596609.3727014,9.95359207156556,0.24308009997601998,0.7017888851876203,0.1341642709901738,23.19007469139653,9.849092629121436,32.4553852266049
1760596609.3827443,10.374393939377587,0.266444080025615,0.6960980728196275,0.1544047751886421,24.9440789585997,9.676159541870664,28.092888127531694
1760596609.3926625,10.782787087022822,0.2923477779959506,0.6939105699327854,0.18334043331331826,26.630372127951023,9.63472646937182,23.397621973958216
1760596609.4027061,11.1743437135103,0.31837970171119584,0.6955301015452869,0.21930723690557652,28.26292001806936,9.724212073927951,18.471695096678566
1760596609.4126587,11.542817263690209,0.34199302364226464,0.7008000899488208,0.260080198192941,29.825841105028417,9.865204539450316,13.442425673707897
1760596609.422701,11.880804120803361,0.36085661007770425,0.7091958647022196,0.30300253862179627,31.27039845735895,9.905322065061313,8.45736292318744
1760596609.4326956,12.180688896091725,0.3731977092531645,0.7200154584441737,0.3451750053215833,32.5195856717681,9.63205080718005,3.6763723245840496
1760596609.4427037,12.435712061129468,0.37808921800273915,0.7326264985179571,0.383693895820431,33.480738160574575,8.792281321458868,-0.7393739972139847
1760596609.4526925,12.640970055991001,0.3756445447947861,0.7467134301020684,0.4158988226973913,34.0641977424497,7.118608000672869,-4.641097581755518
1760596609.4627028,12.794173156132384,0.36709218032670593,0.7624723688381984,0.4395822941762621,34.20438904822805,4.36219206983894,-7.907698951675042
1760596609.4726877,12.896032908618196,0.3547086213315837,0.7807099366649489,0.4531318283993164,33.87915788348495,0.33100408955320426,-10.460872187172962
1760596609.4827087,12.950213940256162,0.3415975127656473,0.802812568011122,0.45560229038363886,33.12358154002554,-5.069191516797628,-12.277878559707005
1760596609.4927804,12.962852355932112,0.3313192407418164,0.8305674244220856,0.44673350274012613,32.03527558189031,-11.795334423474019,-13.399747627526741
1760596609.5028236,12.941706462179724,0.3273978838949461,0.8658391105950665,0.4269353252784893,30.76930698683265,-19.63462633421658,-13.932979400776098
1760596609.5126965,12.895059209091183,0.33275530164564265,0.9101355815507834,0.39726092292431375,29.522165511692524,-28.185428115762413,-14.04344298818486
1760596609.5228057,12.830528752405165,0.34913873840003495,0.9641252660443296,0.35937627903137126,28.505886773440057,-36.85752465586596,-13.942102670027754
1760596609.5328324,12.75395631689446,0.3766186347557163,1.0271904707777018,0.31551376545108645,27.91535207166361,-44.89651563295001,-13.863472303189033
1760596609.5427613,12.66852495945974,0.4132398961666793,1.0971155467088536,0.26838158786129335,27.893761619614367,-51.43483543548979,-14.039160322063832
1760596609.5526788,12.57422183393682,0.4549083362704552,1.1700035265456958,0.22100031309457405,28.50273249018472,-55.568716013092846,-14.670146251061924
1760596609.5627434,12.467700987749915,0.4955774315156664,1.2404833243393671,0.1764557810869572,29.703751434048733,-56.45647035595502,-15.90210026129304
1760596609.572673,12.342548459026231,0.5277687438986676,1.3022154055284352,0.1375878681547366,31.356378592545184,-53.42916779490941,-17.8078571817241
1760596609.5827255,12.189907347928859,0.5434157610305491,1.3486455317332913,0.10666273243931453,33.235651339475446,-46.10061176403422,-20.380061612005658
1760596609.5927286,11.999390197682718,0.534967055852319,1.3739104725170732,0.08508870686350996,35.06705539978579,-34.46029329777473,-23.53520723306079
1760596609.6027167,11.760187050846332,0.49662339285544066,1.3737686643807157,0.07322721658405552,36.57311403533659,-18.93181438512123,-27.128175624869463
1760596609.612707,11.462266357722838,0.4255217682154314,1.3464065517022237,0.07032489552758017,37.52230560322486,-0.38133664543372264,-30.974432902214442
1760596609.6227229,11.097558655873577,0.3226327943502564,1.2929601052825401,0.0745671880668359,37.769863249595076,19.93343142227662,-34.87576469233914
1760596609.632692,10.661007616263511,0.19313588546927474,1.2176094074442043,0.0832456480338374,37.2816966451919,40.47376594326182,-38.645136047039045
