timestamp,angle,linear_acceleration_x,linear_acceleration_y,linear_acceleration_z,angular_velocity_x,angular_velocity_y,angular_velocity_z
1760598234.3303704,-6.517248476896805,-0.13636866404220704,1.0204158325204908,-0.20845372493835268,6.761377211621761,23.253227690370625,-10.999712383061045
1760598234.3403742,-6.5831690327394545,-0.12307603938019988,1.0226444901030531,-0.20873747351242616,6.209255987920326,20.20188023400723,-10.477953231054261
1760598234.3503523,-6.615721239176203,-0.1079787745742352,1.021491725752985,-0.2085425575685714,5.502348249062972,17.176388625128478,-9.775594867844037
1760598234.3603683,-6.617263336568479,-0.09320107467726466,1.0172174278308161,-0.2080454465772883,4.673827235535725,14.381700308423314,-8.96396444537859
1760598234.3703568,-6.5943724917925834,-0.08076080506000335,1.0103594778406588,-0.2072564418291349,3.7742638462435534,11.965074806503477,-8.129696063619043
1760598234.380383,-6.557062464746834,-0.07228752459847086,1.001658320836528,-0.20606543996793591,2.8660818354725124,10.003114335929691,-7.36564070169476
1760598234.3903496,-6.517510966115626,-0.06881217672998033,0.9919631920584526,-0.2042995793426673,2.01629163634773,8.498656926998324,-6.76095968667807
1760598234.4003718,-6.4884824952328835,-0.07065373270901838,0.9821344108963993,-0.20178225424714816,1.2884665467646363,7.3875150657155695,-6.391538155783092
1760598234.4103568,-6.481679592332885,-0.07741364748514565,0.9729553336992768,-0.1983834067803741,0.7350819900217876,6.553610378632276,-6.311828956671568
1760598234.4206338,-6.506263456550776,-0.08807226513591818,0.965064321560507,-0.1940523792015745,0.39129652215874816,5.84989722733337,-6.549107150659023
1760598234.4303555,-6.567751064294391,-0.10116543761143452,0.958912746149238,-0.18882823270654853,0.27098426196000885,5.121769532076378,-7.100858782147827
1760598234.4403613,-6.6674282019256,-0.11500813638947995,0.9547505982352732,-0.18282772492887023,0.36542626556449526,4.229492892212523,-7.935645876150038
1760598234.4503443,-6.802330631944037,-0.12792667873153157,0.9526372494988337,-0.1762165828133825,0.6446653953194937,3.0665914206783333,-8.997318352271321
1760598234.460355,-6.965755553087085,-0.13846273009656035,0.9524717410224944,-0.16917373691400794,1.0612110826981023,1.5719467792370996,-10.211957928993389
1760598234.4703667,-7.148188458665767,-0.14551983690142806,0.954034935287403,-0.16185951819764663,1.5555688203079698,-0.265528814294963,-11.49654033405631
1760598234.480356,-7.338478874943086,-0.1484353175729758,0.957035269752738,-0.1543970093353721,2.0629419980801376,-2.4095961967346193,-12.768082444160777
1760598234.4903533,-7.52507906777677,-0.14697458687013498,0.9611508138357437,-0.1468713984174474,2.520374647766507,-4.78564534495082,-13.952052284033622
1760598234.5003698,-7.697173210934875,-0.14125897425782177,0.9660624155261938,-0.1393466214161176,2.873552937742525,-7.293981227362366,-14.98905356859203
1760598234.5103655,-7.84556561747482,-0.1316496643731747,0.97147506788399,-0.13189330182992587,3.082475803771865,-9.825084021815785,-15.839178511682812
1760598234.5203745,-7.963255554215882,-0.11861764985172074,0.9771266745728098,-0.12461829239014895,3.1252879991055584,-12.274438947641297,-16.483844159217785
1760598234.5303671,-8.045689876685275,-0.10263109545428782,0.9827851799981813,-0.11768493384514075,2.9997893609227764,-14.55483109882278,-16.92529472706572
1760598234.540553,-8.090740135131771,-0.08408682638539758,0.9882366925877752,-0.11131493781143341,2.722489672454498,-16.604572069992187,-17.184209875009817
1760598234.5503538,-8.098488394385633,-0.06330287191055455,0.9932686265337325,-0.10576719118040827,2.3254928967995734,-18.390869573506237,-17.29598574883557
1760598234.5603724,-8.070922063549594,-0.04057642925026654,0.9976528173005603,-0.10129442982529421,1.8518480126617458,-19.90837507686605,-17.3062578700388
1760598234.570361,-8.01163337418613,-0.016298377767825577,1.0011340960068829,-0.09808414070757758,1.3501917697297012,-21.173737340515995,-17.266138806010947
1760598234.5803592,-7.925596017540574,0.008897426984206806,1.0034300417225521,-0.09619450072497877,0.8694890907440882,-22.2176116294478,-17.22749389356263
1760598234.5903616,-7.819052646374553,0.033983545445984586,1.0042471201966325,-0.09549949801355404,0.4544840678190865,-23.075903056737793,-17.238433851468038
1760598234.6003873,-7.6994979764179154,0.057428740308809526,1.003316212670272,-0.09565877852542518,0.14219552372899108,-23.782003081408412,-17.339111541672604
1760598234.6105623,-7.57569301178546,0.07717117975418689,1.0004463511435853,-0.09612523721659456,-0.04048597730931026,-24.36142554625882,-17.557881872752866
1760598234.620388,-7.457609542647113,0.09070950924216797,0.9955906797542093,-0.09619600217269146,-0.07826630129872691,-24.82962997443698,-17.90790528779102
1760598234.6303914,-7.356193212900921,0.09532692823298025,0.988915274799995,-0.09510309847238015,0.03170524436519044,-25.193052265325274,-18.384341620891785
1760598234.64043,-7.282856304598572,0.08843517027950404,0.9808597936339436,-0.09213346238134408,0.2792490909759143,-25.45261935868919,-18.962388824481852
1760598234.650363,-7.248668168649368,0.06799273783285724,0.9721774410381316,-0.0867654181551951,0.6405440310663683,-25.608509610358183,-19.596531977793788
1760598234.6604054,-7.263292535466432,0.03292270405936082,0.963940205423518,-0.07880682243431035,1.0773960672472704,-25.66479635634718,-20.221415249154038
1760598234.6703668,-7.333807575558011,-0.016559190525904724,0.9574964453543773,-0.06851482834510605,1.5365341176009084,-25.63290795171155,-20.75468599381945
1760598234.6803873,-7.463609701249271,-0.07878574446534724,0.9543733963987541,-0.056667971803412535,1.9493065928741429,-25.53342010026886,-21.101976429792398
1760598234.690376,-7.651619588615374,-0.15069450197290274,0.9561238724080426,-0.04455196915585787,2.232347531319074,-25.396324119004383,-21.16388817310299
1760598234.7003734,-7.891967166931581,-0.22809860517975727,0.9641212523368408,-0.033821012757695085,2.2899327683366333,-25.260330379745852,-20.84444819464844
1760598234.7103596,-8.174241999565535,-0.30612753411158716,0.9793142324513409,-0.026221018900145932,2.0187587103020506,-25.171794355908325,-20.060085527473518
1760598234.7204134,-8.484284100287288,-0.3797586053431595,1.0019701034084305,-0.023215660021885402,1.3155985363785434,-25.183501773629736,-18.74786198781711
1760598234.7303803,-8.805390570901565,-0.44434477526442506,1.0314588385101422,-0.025615411438815426,0.08768282546558533,-25.353038895786252,-16.87160207733044
1760598234.7404025,-9.119751054791925,-0.49605720021468214,1.0661431170725066,-0.03332726627362361,-1.7351544295094259,-25.740112589566454,-14.42479587683983
1760598234.7503505,-9.409907725731294,-0.5321956898396892,1.1034271012571832,-0.04529771786319938,-4.188312205722814,-26.402183538926863,-11.4297170382689
1760598234.7603786,-9.66005453770134,-0.5513537645222905,1.139982226682296,-0.059649287849022244,-7.262512055489914,-27.38816331806088,-7.932991581770295
1760598234.77037,-9.857032972169534,-0.5534436728541542,1.1721276058557573,-0.07396124430560036,-10.898416686509714,-28.730587530101527,-3.998606588876266
1760598234.780354,-9.990938447797348,-0.5395969871198497,1.1963098504036542,-0.08562955824913818,-14.987443509069688,-30.437408059743554,0.3002078940894812
1760598234.7903636,-10.055314363724078,-0.5119654735043728,1.209606658106999,-0.09224056189196582,-19.379389273335928,-32.485091060560755,4.888752153437415
1760598234.8003995,-10.046969599196514,-0.4734512258385133,1.2101700345639232,-0.09189589963859525,-23.896279883586438,-34.814839630317294,9.697088427554958
1760598234.8103745,-9.965501853067634,-0.42739291911610133,1.1975294675910753,-0.0834374661021165,-28.350708772671712,-37.33338729214063,14.663958459177454
1760598234.8204079,-9.812638048044509,-0.37723362108694025,1.1726950183113043,-0.06654457063103057,-32.56598738727688,-39.91899170547431,19.738071168778635
1760598234.8304026,-9.591511973264993,-0.32620023745548854,1.138034588065558,-0.04170714148075408,-36.39490662917776,-42.43219033573088,24.876874488447047
1760598234.8403947,-9.305989956153173,-0.2770307293927689,1.096942502137065,-0.010106880826746214,-39.73397461922685,-44.72986668118022,30.043282860609292
1760598234.8503964,-8.9601314605385,-0.23178328742878365,1.0533576225382866,0.026549205384975152,-42.530713880592494,-46.680552873582904,35.201094375447944
1760598234.8603997,-8.557837367680873,-0.19174758510362186,1.011217470034439,0.06620608837486566,-44.78291457469938,-48.17881710261541,40.31001653981841
1760598234.8703856,-8.102699669788938,-0.1574571907341305,0.9739429156369567,0.10663157398317467,-46.53045570211523,-49.15688065293672,45.32131490465047
1760598234.8804142,-7.598029849065945,-0.1287837284017499,0.9440347722657532,0.14558118432316217,-47.84200543939068,-49.591970712443434,50.17502716721176
1760598234.89038,-7.047016921819116,-0.10508436041560935,0.9228343908841973,0.18096606752156727,-48.79996795052561,-49.50825238006529,54.799411524822276
1760598234.9004397,-6.452953886542475,-0.08537519970556919,0.9104647369729981,0.21103043103680458,-49.48694367507762,-48.97266562660691,59.112915334097345
1760598234.9103758,-5.819471662946232,-0.06850913279007556,0.9059362845990565,0.23452907247548943,-49.97578922548605,-48.08474216393404,63.02859029988821
1760598234.9203913,-5.150727979418343,-0.05334084171460378,0.9073798494193211,0.25087202282356114,-50.323800170201565,-46.96139352722963,66.46057703268161
1760598234.9303708,-4.45151099447655,-0.038862767175707615,0.9123584377274329,0.2601903712376644,-50.57033451049833,-45.71854767047027,69.33199388208095
1760598234.9404397,-3.727231804801265,-0.024296729227237662,0.9182118141966636,0.2632902085740511,-50.73662014979423,-44.45219387830753,71.58329408300015
1760598234.950452,-2.983795881055283,-0.009130634217304975,0.9223972173071106,0.2614967887494641,-50.82645757167246,-43.22172082038398,73.17996937779678
1760598234.960413,-2.2273603405804465,0.006901208175866782,0.9227997590390706,0.2564274385466625,-50.82691233042144,-42.03829217362191,74.1184556113693
1760598234.970397,-1.4640005503519435,0.023884301059818456,0.9179887318691778,0.24974758849328724,-50.70874263111063,-40.86039644925449,74.42927525652674
1760598234.980398,-0.6993243232968013,0.04181649188875608,0.9073916124938619,0.24295498609834393,-50.42695188505965,-39.597688936843255,74.17679477454975
1760598234.9904063,0.061916085345394875,0.060699590183029214,0.8913559888946888,0.23721644958341637,-49.92223082551826,-38.12286746345733,73.45537512042725
1760598235.0004604,0.8161560135450832,0.08060104010403638,0.8710805268615305,0.2332662147607,-49.124081473327756,-36.28975363588248,72.38206521044155
1760598235.0103977,1.5612354372204764,0.10166324295503905,0.8484184768110371,0.23136999732139926,-47.95613814437548,-33.95438257562509,71.08633939656586
1760598235.0204039,2.296452832160226,0.12405496545362539,0.8255824808385501,0.23135627873747533,-46.34367382535044,-30.995199451566194,69.69778611555944
1760598235.0303884,3.0224321176665567,0.14788095200121776,0.8048002969524554,0.23270796890025086,-44.22263933415194,-27.328654965125367,68.33313959370449
1760598235.0404289,3.7408128550640227,0.17308143285552544,0.7879827600016325,0.23469533743716955,-41.54906591583016,-22.91753142208772,67.08447663002808
1760598235.050394,4.453808064030647,0.19935499675337054,0.77646304462145,0.23652182974719113,-38.30744371373514,-17.771005372441717,66.0105218365581
1760598235.0604222,5.163698871136586,0.22612730908167822,0.7708489089884609,0.2374530577211637,-34.51676143677649,-11.937410458333149,65.13262693002366
1760598235.0704014,5.872344806380272,0.2525717316381752,0.7710033482634071,0.23690785078684692,-30.23314690747274,-5.492362699917239,64.43614515865957
1760598235.0804086,6.580782312213719,0.2776741605594384,0.7761431533200456,0.23450638908153212,-25.548405694782698,1.474199767275844,63.876853191354066
1760598235.0903797,7.288965751991199,0.300328148989546,0.7850248603494191,0.2300867237135957,-20.584210038129868,8.868645304801744,63.39109922340322
1760598235.1004026,7.995680391781353,0.31944648974675666,0.7961753633054505,0.2237091012742972,-15.482268384999996,16.599485222314044,62.90774063220947
1760598235.1103947,8.698629629310428,0.33407596141300006,0.8081212208585348,0.21566318156470554,-10.391498952298516,24.577359911862217,62.35980076154055
1760598235.120399,9.394671801055692,0.3434995495579687,0.8195770046433637,0.2064789317689106,-5.453933984819375,32.709640026527374,61.694081606451675
1760598235.1303906,10.080159026528847,0.34730942165978446,0.8295671857041902,0.19692664127165618,-0.7915826586183649,40.891486159295,60.87755180938852
1760598235.1404517,10.751317434366879,0.3454398129174096,0.8374744265345779,0.18798545298644606,3.5034502258360036,48.99618823219543,59.89998866846461
1760598235.150388,11.404608688869661,0.33816018761768446,0.8430251990704514,0.1807672970135523,7.37377642036685,56.867991647640224,58.77294866452787
1760598235.160399,12.037025486733567,0.32603853808834327,0.8462355180850533,0.17639968399747585,10.795635513907975,64.32030813231295,57.525616146095395
1760598235.170476,12.646292497985929,0.30988740989201097,0.847339918188019,0.17588857347857748,13.772348967691254,71.14115077800093,56.19840921648653
1760598235.1804183,13.230962479968312,0.2907017729072227,0.8467161124653577,0.1799961089293427,16.324045661225604,77.10592582387667,54.835373975945814
1760598235.1903884,13.790411152931977,0.26959277598795356,0.8448053913262855,0.1891711172447896,18.476317367231992,81.99578693039449,53.47637011370987
1760598235.2003822,14.324743321868624,0.24771924797815426,0.8420270854511469,0.2035521860003047,20.250617373982433,85.61823954368325,52.14990771501917
1760598235.2104192,14.834628018179313,0.2262201075053713,0.8386970383689802,0.22302393568018536,21.65841422133677,87.82602758430585,50.8673378937674
1760598235.22043,15.321083663738909,0.20615210218629296,0.8349731217851547,0.24727256410317705,22.699737885445064,88.5306295550786,49.61899606595247
1760598235.2303917,15.785236601967322,0.18843604725107208,0.8308503926860169,0.27578784847057575,23.365565266546007,87.70777077461078,48.37284278051611
1760598235.240406,16.228079108594223,0.1738132826558669,0.8262110043750788,0.3077979071758414,23.642986603419708,85.3939612354293,47.076077997451
1760598235.250386,16.650256860326785,0.16281538849509164,0.8209093594311008,0.3421733244780811,23.522143878808148,81.67485936485585,45.66002489671109
1760598235.2604296,17.051918655901964,0.1557528413167411,0.8148564669885076,0.3773673007405218,23.004041599222745,76.6678394583682,44.04819420274657
1760598235.2703915,17.432658327237114,0.15272900893902022,0.8080696024870588,0.41145001170498907,22.108202410110252,70.50215152594811,42.16682534830199
1760598235.280387,17.7915672212255,0.1536841038644214,0.8006725370823496,0.44225249507188885,20.878922678883278,63.30033448188689,39.95649812008641
1760598235.290377,18.12739705763952,0.15847021469656258,0.7928549126146504,0.4675846653903198,19.38891809757799,55.16412710858361,37.38289977826608
1760598235.3004003,18.438812244271173,0.16695276017183847,0.7848137663742876,0.48546285529914046,17.739586785574456,46.16723606263232,34.44473960493678
1760598235.3103843,18.724692106800806,0.17912487568273175,0.7767025655954426,0.49428652386912286,16.05779245878277,36.35625727038047,31.177126615713735
1760598235.3204224,18.984429049847243,0.19521085284440096,0.7686082508256881,0.4929348717890041,14.48967098551279,25.76007670431894,27.649322290801287
1760598235.3304832,19.218160207208943,0.21572781340364672,0.760569888565211,0.48079242401001754,13.192274291140086,14.407343504033035,23.956535484663096
1760598235.3404033,19.42687162182533,0.24147755932165604,0.7526453698103445,0.45773475063950086,12.323890256633653,2.3510075044917813,20.206311517408302
1760598235.3503804,19.61233067781713,0.27345471059437526,0.745024048174691,0.4241029927341364,12.033787777480107,-10.301858670298662,16.501060013193797
1760598235.3603873,19.776834615976146,0.31267629433281263,0.7381716375710332,0.3806808612635591,12.452101398216056,-23.357884761728695,12.919246208080475
1760598235.3703992,19.92279872007768,0.35995112771935467,0.7329802033279331,0.3286745111592417,13.680601015124369,-36.50722760885089,9.498452159273702
1760598235.3804288,20.052229239231107,0.4156098853372017,0.7308846800678988,0.26968662692907486,15.785056757667547,-49.30103055501254,6.223547861127397
1760598235.390412,20.16612809079595,0.47921519254473677,0.7339008742667492,0.20566943281139677,18.78969909085084,-61.14277204179578,3.022458964815083
1760598235.4004076,20.263872707889192,0.5492744899408716,0.7445391666486083,0.13884220684506043,22.67390488615046,-71.29929300346163,-0.22930563819137903
1760598235.4104366,20.342620358632832,0.6229875677505328,0.7655561024325034,0.07157336473150341,27.37080814412462,-78.93560713091573,-3.6956947044737745
1760598235.4203806,20.39680247919431,0.6960715663783615,0.7995285890077019,0.006247852136092935,32.7672132459971,-83.17488540726113,-7.560373941170074
1760598235.4304082,20.417791062039974,0.7627178870501689,0.8482748284373507,-0.05485042555032459,38.7042462136114,-83.1816549053833,-12.002797459544437
1760598235.4404035,20.393826978140282,0.8157465052176359,0.912195800465239,-0.10962118427025017,44.97874638335009,-78.26259465495735,-17.173118482502357
1760598235.4503856,20.31029518410602,0.8470246601156328,0.9896584184431653,-0.15619380292384627,51.346164218058256,-67.97557022087295,-23.168836297056227
1760598235.4604235,20.15041199515411,0.8481945722333901,1.0765742225370036,-0.19295172281399897,57.526109489267604,-52.2341069052567,-30.01548757358296
1760598235.470418,19.896352840582363,0.8117007855546968,1.1663352353245502,-0.2185633608049215,63.211460679095666,-31.392078501399347,-37.65293604353217
1760598235.4804094,19.53079465024799,0.732030405948977,1.2502402032837219,-0.2320566007292129,68.08150474386932,-6.292793865653002,-45.92826666094895
1760598235.4904041,19.038779403118646,0.6070007603252856,1.3184702937374833,-0.23297046319673698,71.81945338951728,21.73156067556627,-54.59615654042554
1760598235.5004594,18.4097335861418,0.43886943862474204,1.3615537417275088,-0.22159334458663785,74.1348240734414,50.91984898723513,-63.32772478687654
1760598235.5104318,17.639414043886315,0.23501272006310167,1.3721104966580686,-0.19925092685154375,74.79091269640806,79.20429551879323,-71.72881888208958
1760598235.5203831,16.731506315561468,0.007930032434114014,1.34652373811472,-0.16854765212958112,73.63629673498676,104.3895760693628,-79.36804859751577
1760598235.5303786,15.698590230480638,-0.22559914915184057,1.286096248117329,-0.13342030704328833,70.63701661442789,124.37349134950315,-85.81351085619117
1760598235.540373,14.562221928180499,-0.4462387166556921,1.1972834595745834,-0.09887085087654576,65.90356066764035,137.38469089334347,-90.67537654027389
1760598235.5505013,13.35196989373002,-0.6345271446237943,1.0908011441187313,-0.07032929254905276,59.70523385772316,142.2054435055357,-93.64989041964041
1760598235.5604026,12.103384715155599,-0.7736230742399426,0.9797487276497129,-0.05273210184231008,52.464948363504696,138.34417774678616,-94.55923288304655
1760598235.570398,10.855063377722976,-0.8518203046143686,0.8772256575681485,-0.049530413856114446,44.730180044771686,126.12603028642096,-93.38112554069706
1760598235.5803888,9.645154093774254,-0.8642860896632255,0.7940792274722611,-0.06190458624352103,37.12022934004397,106.68090066726202,-90.26213462808323
1760598235.5904164,8.507786006903157,-0.8136480580324145,0.7373355385925732,-0.0884218142577385,30.255034537120483,81.8255203279652,-85.5098879198442
1760598235.60041,7.469951857282053,-0.7093419969498851,0.7095954978549435,-0.12524730990854552,24.67549927436408,53.8546420739543,-79.56243352621468
1760598235.6104424,6.5492986550407215,-0.5659318405475255,0.7093626092183007,-0.1668660723130687,20.768564207330677,25.272182457624545,-72.9375057984238
1760598235.6203837,5.7531066591773525,-0.4008250474133884,0.7320316715188563,-0.20714469819050627,18.711223370529126,-1.4972518145838367,-66.16931688533717
1760598235.6304598,5.078509754911992,-0.23187138147148512,0.7711687081082484,-0.24048319869542473,18.445657353018678,-24.373941523905646,-59.743966308508526
1760598235.6404254,4.513796010599194,-0.07525407092646527,0.8197475468357217,-0.262788623732887,19.692270280700864,-41.82856837290057,-54.04519830101397
1760598235.6505027,4.040479464195739,0.05607616597617105,0.8711260545235519,-0.27205762523671095,21.999380100779394,-53.00228987398085,-49.31960223092541
1760598235.6604855,3.6357742357890266,0.15333034926393876,0.9196808013251995,-0.26847065862736014,24.819826504861854,-57.73211266394478,-45.66545657798259
1760598235.6704283,3.2751192061985828,0.21218965707602983,0.9611245374035842,-0.2540336795023202,27.598754545250358,-56.48910450401007,-43.044153977470884
1760598235.6804364,2.9344701343371162,0.2325743299094636,0.9925852038931763,-0.2319102598351575,29.855313288885522,-50.25035627826057,-41.30910249051421
1760598235.6904213,2.5921710992927673,0.2179957331562585,1.012532543363272,-0.20564300178923534,31.244007199433323,-40.33267289060251,-40.24481673203311
1760598235.7004185,2.23031820724559,0.17464199753819765,1.0206192616688392,-0.17846034686717774,31.587370409385958,-28.216148711967985,-39.60851084859426
1760598235.710377,1.8356176671730893,0.11035725580813373,1.017480789865594,-0.15281095491785082,30.87840896781218,-15.380571947709445,-39.167524476124285
1760598235.7204227,1.3998010074334717,0.033657515877537965,1.0045238019115454,-0.13018535657343955,29.257070631980767,-3.169643712517311,-38.72789667093183
1760598235.7303758,0.9196809092023469,-0.047117715465385325,0.9837289013202305,-0.11120289307013433,26.96872624964024,7.309968068000847,-38.151822632711614
1760598235.7403922,0.3969132655265949,-0.12447544284020486,0.9574898484814117,-0.09588491887532222,24.31401718944701,15.2536733819237,-37.36403793438216
1760598235.7503817,-0.16250630851133924,-0.19226278633474977,0.9285025645546034,-0.08401352255626043,21.59889506198098,20.190238714679214,-36.34890519405086
1760598235.760442,-0.749010657147926,-0.24600162922336966,0.8996994988747523,-0.0754832596915923,19.091979286591858,21.98245849906612,-35.140854350352534
1760598235.7704122,-1.3504880138675952,-0.2830721743494061,0.874203807543603,-0.07057501364181291,16.99410543375809,20.8004811125794,-33.81088890415801
1760598235.7804928,-1.953521933982143,-0.3027377765230398,0.8552623488251468,-0.07010200147861353,15.422517803282865,17.071362746223198,-32.451442309311105
1760598235.7904286,-2.5447403363862295,-0.30599925310477266,0.8461138963088843,-0.07539633958633703,14.409782276072757,11.409488933389522,-31.161344191673027
1760598235.8004062,-3.1121181799812225,-0.29527999920571874,0.8497608762780683,-0.08812603331389683,13.91534935920311,4.534222436969664,-30.032269631107614
1760598235.8103907,-3.6460571681483254,-0.2739695034697607,0.8686366461590787,-0.1099589533368496,13.846044030215683,-2.8170515444624655,-29.137806336863914
1760598235.8203983,-4.14008955175446,-0.24588211963171952,0.9041911998815931,-0.1421184852489454,14.080863835554739,-9.971125303252837,-28.526045485576454
1760598235.8303993,-4.591119151252107,-0.21470844289616695,0.956450935091986,-0.1848999874076229,14.49546373005784,-16.38712188272843,-28.216228180057406
1760598235.840424,-4.999201705938722,-0.1835404072674031,1.0236369584259624,-0.23723526417742735,14.982510934572428,-21.702923861443242,-28.199418535256157
1760598235.8504007,-5.366951704142853,-0.15453782143220737,1.1019448540418886,-0.29640256223120215,15.46541081336773,-25.755142828275858,-28.442544117732705
1760598235.8604996,-5.698722329245449,-0.1287794556435343,1.1855899868200277,-0.3579787913173101,15.90434858812807,-28.57154919885771,-28.894645778521234
1760598235.8704581,-5.999729546746721,-0.10631330070130413,1.2671995582347957,-0.41611211326131653,16.294847108819084,-30.33857883141359,-29.493959889117825
1760598235.8804226,-6.275281753575138,-0.08639241685214705,1.338580029568602,-0.4641487345313664,16.659963862285164,-31.34975404680259,-30.174547945961496
1760598235.8904095,-6.530239465583706,-0.06785579754247326,1.3918024697024933,-0.4955723191276649,17.037870767104565,-31.943235403753956,-30.871538962081207
1760598235.9003866,-6.768774083775941,-0.0495890702198087,1.4204340081419549,-0.5051125811882929,17.467024515478947,-32.43801548210323,-31.52455876632482
1760598235.9103563,-6.99443093078059,-0.030981619089153496,1.420637808171715,-0.4897828433259904,17.97157399050959,-33.078332783055096,-32.07943997320732
1760598235.9204063,-7.210439718057362,-0.012290186851373777,1.3918467559400243,-0.44957864695141825,18.54996060812697,-33.99463270397092,-32.488668497825884
1760598235.9303942,-7.420163807845449,0.005172560438944959,1.3368430799726456,-0.3876548646759996,19.16940717899386,-35.186828192911726,-32.71111217466905
1760598235.940396,-7.627544699961923,0.01908169692154815,1.2612838017719372,-0.3099542925659169,19.767739153044555,-36.53193733583642,-32.7114018267237
1760598235.9504194,-7.837387451378954,0.02639219119549105,1.172860806584692,-0.22439457509879773,20.26193625420564,-37.81397775046634,-32.45903402159822
1760598235.960553,-8.055353380815166,0.02384191599399736,1.0803092610406333,-0.13978975372914212,20.560820607978208,-38.7701433796082,-31.927039273011676
1760598235.970456,-8.287579565979852,0.008574885523964655,0.9924259658031092,-0.06469855259029227,20.578169999400323,-39.14462901794485,-31.09005344012689
1760598235.9805415,-8.539922075960508,-0.02123975425827177,0.9171965125993852,-0.006366449223635933,20.242585209795987,-38.74051034697286,-29.921844593345924
1760598235.9903998,-8.816906284672024,-0.0659213168261393,0.8610847633480865,0.030119764891841774,19.50150374386702,-37.46088539853532,-28.39266761897958
1760598236.0004292,-9.120545304502313,-0.12402658211741473,0.8285132226294595,0.042385347594545646,18.31856728665013,-35.332745047945195,-26.467107095269437
1760598236.0104136,-9.449241208334367,-0.19239168849250846,0.8215532645357447,0.030967400090463653,16.66572852146002,-32.51025086917762,-24.103211888807984
1760598236.020407,-9.797001789616452,-0.2664712404884365,0.8398380755620485,-0.0008751762444663817,14.51339214971785,-29.257587144682258,-21.253625000246544
1760598236.0304499,-10.153178644750033,-0.3409259734032169,0.8806970254984691,-0.047717633356144054,11.822757312530191,-25.914658825657213,-17.869024217500847
1760598236.040414,-10.502855250137825,-0.4103624783079848,0.9394890472154228,-0.10279036412546917,8.543919787328639,-22.85121996341853,-13.903595848801256
1760598236.0506048,-10.827894633587126,-0.4700939312367981,1.01009541164328,-0.1589158045468744,4.621426400045041,-20.416426285384418,-9.321674741712691
1760598236.0604215,-11.108520364899354,-0.5167796642703386,1.0855249867512051,-0.20941082822760118,0.006567643395070969,-18.8913108884916,-4.104336069005024
1760598236.0703988,-11.325186050136217,-0.5488194062492039,1.1585847096074782,-0.24883313188434544,-5.3264577253490675,-18.451234929455058,1.7452313934268087
1760598236.0803878,-11.4604198223739,-0.5664228326840272,1.2225678331603873,-0.2734902284672301,-11.364651441436806,-19.1438817610004,8.19832209192363
1760598236.090398,-11.500334751285434,-0.5713377801715847,1.271905215015049,-0.2816728826903554,-18.044830296355794,-20.885879070434846,15.199434439758331
1760598236.1003878,-11.435577318292712,-0.5662897429063841,1.3027103510956513,-0.2736162452438791,-25.24993770156188,-23.477994049149384,22.666776305352045
1760598236.1103864,-11.261619191510203,-0.554250782513783,1.313141338436943,-0.25122730100143464,-32.81446874026497,-26.635713837992,30.494060219215946
1760598236.1205297,-10.978437910277679,-0.5377059593336042,1.3035195744322685,-0.21764461309252456,-40.538427150930296,-30.029629773769965,38.55330671784523
1760598236.1303978,-10.589740463906182,-0.5181020475441992,1.2761852379895071,-0.1767139104881021,-48.20741132930191,-33.32891210240419,46.6987178181665
1760598236.1404383,-10.101942028289844,-0.4956282663511331,1.2351157030085664,-0.1324658144083516,-55.615024342730834,-36.2414551344491,54.77181020055
1760598236.1504066,-9.523119380829371,-0.46938857120915894,1.1853689852920426,-0.08866360885603611,-62.58304463008436,-38.545727971354644,62.6077784012242
1760598236.1604328,-8.862121689049616,-0.4379029777912612,1.1324349082978054,-0.048450731895601035,-68.97500390565348,-40.111361451501395,70.04270078147033
1760598236.172209,-8.127953303207665,-0.3997694329085541,1.081580529566308,-0.014088279078063837,-74.70026266790632,-40.90735010577861,76.92101292856037
1760598236.1804543,-7.329463296794688,-0.3542791537174503,1.0372628335003953,0.013235767007102281,-79.7081802166243,-40.998055808715165,83.10273801822244
1760598236.190413,-6.475305018811242,-0.30182333900066177,1.0026593161163257,0.033507169785331456,-83.97478377586866,-40.528055508578554,88.4701004909996
1760598236.2004018,-5.574078302915918,-0.24401904942592093,0.9793533985854619,0.04783222657310526,-87.48641715986912,-39.69770208132211,92.93314509618295
1760598236.2104387,-4.6345412049897785,-0.18355880250850887,0.9672113723777407,0.05817755242206339,-90.22541069168476,-38.73236553754758,96.43382773586711
1760598236.2204604,-3.665777686396309,-0.1238291747898715,0.9644815278034092,0.06693055797184828,-92.16172378543939,-37.849478986541016,98.94796745213368
1760598236.23043,-2.6772303842540506,-0.06836590731258685,0.9681179394892546,0.07639605334239159,-93.25233563600713,-37.22811263462057,100.48470438265699
1760598236.2404137,-1.6785472491016982,-0.02023673396582552,0.9742922341351731,0.08836823624509596,-93.44777891036108,-36.98533744725131,101.08368077121759
1760598236.2504284,-0.6792387143082036,0.01853293400005813,0.9790239142033917,0.1038700913214138,-92.70333217505821,-37.162164019736345,100.81072551724023
1760598236.2605166,0.311810586188022,0.047368654236394366,0.978830936188786,0.12307886610842794,-90.99143217254189,-37.71993051124053,99.75301939663815
1760598236.27043,1.2868931530175283,0.06728958386478782,0.9712750272189489,0.14540171939679983,-88.31205683878312,-38.546377600574004,98.0144433965072
1760598236.280399,2.239988114462461,0.08073626104921106,0.95527583764787,0.1696458377674928,-84.69898926986488,-39.46970621815986,95.71124630464891
1760598236.2904131,3.1671211398714965,0.09110127552059137,0.931122076016117,0.1942331544489814,-80.22129049033768,-40.278619342842525,92.96761597237195
1760598236.3003974,4.066485250826473,0.10204716527242856,0.900202256973422,0.21742575383664575,-74.98024963626627,-40.74631686320614,89.91048332878411
1760598236.3104131,4.9382722869267495,0.116750405021866,0.864562597005689,0.2375435529939485,-69.10248935262253,-40.656238952257745,86.6630883041128
1760598236.3204608,5.784220991456669,0.13723816713778866,0.8264344630673053,0.2531639702748509,-62.73025336430816,-39.82693896746592,83.337449513973
1760598236.3304071,6.606949252875029,0.1639707807226865,0.7878539505862706,0.26329089159126984,-56.01038287520426,-38.133084961098966,80.02665399781745
1760598236.3404553,7.409188131140452,0.19576529626262312,0.7504429599848965,0.26747245756044774,-49.083768295093314,-35.51964220630069,76.7984616897722
1760598236.350551,8.193058689334972,0.23007078759117283,0.7153611097542892,0.2658449083211076,-42.0768250148848,-32.00700057984819,73.69178841824125
1760598236.360405,8.959522075093428,0.26352102878422967,0.6833903519568237,0.2590899866392992,-35.09589283551896,-27.686119290625875,70.71707855883238
1760598236.3705752,9.708092054535422,0.2926299881748698,0.6550890310597964,0.24831348794255165,-28.22476333465888,-22.7044130411179,67.86057728508254
1760598236.3804078,10.436839483654628,0.3144744198019353,0.630949921963068,0.23487304178797633,-21.525040278183937,-17.24475581497435,65.09143315493324
1760598236.3903968,11.142656450865179,0.3272261243238226,0.6115092470893216,0.22019507885316397,-15.038728297169035,-11.501260849722707,62.369782026162284
1760598236.4004338,11.821699366658418,0.3304434653480768,0.5973705807501749,0.20561975473894023,-8.792231328543556,-5.656075490344681,59.65374172926145
1760598236.4104183,12.469904683625938,0.3250915937482807,0.5891275031964267,0.1922992584970399,-2.8007910401906897,0.1388911889213289,56.903666784394254
1760598236.4207642,13.083470074793851,0.3133186754775622,0.5871975057792019,0.18115474127277983,2.9276497351625443,5.772552139315225,54.08294441850561
1760598236.4304264,13.659213975262007,0.29805976696675973,0.5916135428601994,0.17287807806613695,8.389998197414105,11.176416814932804,51.15575052352129
1760598236.4404051,14.194761013942834,0.28256140092319715,0.6018400906495454,0.16795538172393965,13.587308931560989,16.318043076215098,48.083169600553596
1760598236.4505196,14.688542015372548,0.26991393123108914,0.6166725587137589,0.16669393529151674,18.525375454821678,21.18788709885503,44.819640951227974
1760598236.4604332,15.139635916233482,0.26265329607429344,0.6342510499029236,0.16924770031078812,23.215393171570355,25.782043877882263,41.3117045584966
1760598236.4704218,15.547510089390578,0.26246736507717705,0.6521938630322771,0.1756470760017479,27.673056645367122,30.083716306811475,37.50053421515073
1760598236.4804,15.911732612551791,0.2700268845037414,0.6678420693032211,0.18583777042270597,31.914605750847446,34.046197834570265,33.32892995369149
1760598236.490409,16.23173461972905,0.28495327125663156,0.6785959179473868,0.19972208276107015,35.94916150737238,37.579739848947156,28.752469192242483
1760598236.5004258,16.50669186377739,0.3059235696683124,0.6823070086187021,0.21718408543660106,39.768204349303986,40.544011361543,23.75350221106693
1760598236.5103934,16.735571899284416,0.33089390626194076,0.6776663737433735,0.23808215680573272,43.334821528994695,42.74715883221739,18.355744126559664
1760598236.5204346,16.91736135602327,0.3574065841227904,0.6645083872277443,0.26220776492673026,46.57637781219487,43.95201291822631,12.636554644212609
1760598236.530405,17.051454314457047,0.38294326807831397,0.6439504000466377,0.2892195628775144,49.383693678610776,43.88987131446249,6.733817436842258
1760598236.540425,17.138153622298184,0.40529455086105454,0.6183150365966307,0.31855679641749923,51.61792633598045,42.28219097397055,0.8447449758408585
1760598236.5504496,17.179212827144397,0.4229179105622723,0.5908269382700456,0.3493317892116916,53.12435468452375,38.86990597508105,-4.785089032255968
1760598236.5604546,17.17832469865519,0.4352396525001316,0.5651294320160575,0.3802150292029425,53.75110250789298,33.4487690779778,-9.882771940155576
1760598236.570415,17.141442722262823,0.4428304913223186,0.5447283392195497,0.40935153377873745,53.370492792040764,25.90751720163942,-14.177708635677
1760598236.5804152,17.076811924795766,0.4473751303847617,0.5325239033739941,0.4343620225004186,51.9007650156233,16.264451906142543,-17.436694344732064
1760598236.5904207,16.994602093185716,0.45139099842746666,0.5305877796924736,0.45247045685956544,49.32605348810191,4.697650492243775,-19.499614587344894
1760598236.6004035,16.906097019136915,0.4577327194633955,0.5402405826246865,0.4607634219078135,45.7127591267583,-8.435471251916912,-20.31010748565009
1760598236.6104217,16.822493398010774,0.46900370510175954,0.5623321381136904,0.45654820587503514,41.22059974744921,-22.59237662683973,-19.93574668810855
1760598236.620415,16.753467684555034,0.48702412037404746,0.5975319075686609,0.43775359207880976,36.10648953242964,-37.055115805177344,-18.57364918796463
1760598236.6304367,16.705736485198127,0.5124604549076606,0.6464590996187802,0.4033093870193014,30.719040336178526,-50.955966190868914,-16.539511654214277
1760598236.6404247,16.68184580933314,0.5446475217926192,0.7095780801245396,0.3534410053632489,25.481370680451686,-63.31867769815993,-14.240458243936805
1760598236.6504157,16.67938260286679,0.581576141109722,0.7868829656528705,0.28982579076628184,20.860690773082215,-73.11466396148116,-12.13438608732069
1760598236.6604195,16.690727107554014,0.6199965917298265,0.8774595535121642,0.21557923313410368,17.325158377050155,-79.33304881476765,-10.680500858784391
1760598236.6704328,16.703377788251043,0.6555932484329366,0.9790399479409498,0.13506233062956935,15.29146744137155,-81.0623405506675,-10.287286633990464
1760598236.6804209,16.700799591362504,0.6832057154326349,1.0876654920949915,0.05351724725316914,15.069573253268873,-77.57953914077851,-11.265041722802113
1760598236.6904337,16.663682004795582,0.6970945254197689,1.197560949055878,-0.02344607200402689,16.8127922792067,-68.44018555687413,-13.790004739938556
1760598236.7004306,16.571451642079722,0.6912716977192199,1.301306229686647,-0.09046332780949047,20.48172816214813,-53.56095174927862,-17.88566905290569
1760598236.7104192,16.403870574530636,0.6599383249320058,1.3903666508153183,-0.1430493851152388,25.82923398423,-33.28520386205559,-23.424090817076866
1760598236.7205772,16.142571006617484,0.5980835632682798,1.4559942286398346,-0.17815535861170007,32.41129031920284,-8.421463202042315,-30.146261181390457
1760598236.730436,15.772424796366941,0.5022795602135279,1.49043309576665,-0.1945610978084294,39.625431662922836,19.755264496458775,-37.696841304507736
1760598236.740413,15.282704537974636,0.3716374322651328,1.4882636654266586,-0.19304401875627175,46.774289251006756,49.54841677839276,-45.665904517980465
1760598236.7504199,14.66803550111174,0.20877987168232276,1.4476309617610439,-0.17630299120760934,53.14733236641965,78.93760306461894,-53.62971489211533
1760598236.760462,13.929144041214983,0.020573282320967595,1.3710563032614635,-0.14864936857830297,58.1098165816884,105.73036741827718,-61.184206324656806
1760598236.7704551,13.073373029698626,-0.18170152859416105,1.2655603680900085,-0.11549828004144344,61.185342790626315,127.7606625942544,-67.96815919267496
1760598236.7809978,12.114873398353868,-0.3830183586007372,1.1419501614404028,-0.08270400613871616,62.11825725571126,143.11588913568653,-73.6770295634968
1760598236.790435,11.07432783291439,-0.5662076037181559,1.0133299283676318,-0.055796844416061225,60.9049056887448,150.3640052874133,-78.07149238676314
1760598236.8004367,9.978061040657781,-0.7142938369077081,0.8931232485522685,-0.039209102949036304,57.78815877058764,148.74585999318984,-80.98545942896264
1760598236.8104475,8.856466650230857,-0.8130940686667347,0.7930445393275017,-0.03561718936037079,53.216308295201806,138.29832499266587,-82.33602299722678
1760598236.820445,7.7418196939545965,-0.8534736574341143,0.7214638174588273,-0.045542162249150316,47.773577933268605,119.8821531150695,-82.13373355004151
1760598236.8304346,6.6656958251959155,-0.8327443116348068,0.6824761405442253,-0.06731459772519083,42.093740362596,95.10383262118361,-80.48838315322378
1760598236.8404162,5.656326794767672,-0.7549474530231093,0.675785719134851,-0.097428477574922,36.770333501670805,66.13968288943123,-77.60496093750608
1760598236.8504066,4.736250816446276,-0.6300719598508675,0.697319015480117,-0.1312174554087212,32.277107499351196,35.488118715557356,-73.76676637738227
1760598236.8606343,3.920564074963519,-0.4724820654254572,0.7403397860503302,-0.1637156174905447,28.910884515394713,5.688057753038016,-69.3064706596092
1760598236.8704298,3.2159709709634887,-0.2989213434435598,0.7967755470179226,-0.1905258455557858,26.76567332996906,-20.95443671092149,-64.56950070058812
1760598236.8804433,2.6207012375116414,-0.12643645778532894,0.8584809131941369,-0.2085168274313455,25.74137201655635,-42.59324575158295,-59.87622504737021
1760598236.8904233,2.1252396636490007,0.02950589749320998,0.9182386428278831,-0.21621067940815025,25.58350563522875,-57.99576216609133,-55.4896074707619
1760598236.9004157,1.7137138642927916,0.15650667170759813,0.9704011498427144,-0.21380479962240728,25.944180501738256,-66.61033296602365,-51.593549702483514
1760598236.910425,1.3657170586137712,0.24619227769517726,1.0111711666175114,-0.20287059321964904,26.450860231521695,-68.54999518495188,-48.28469713405952
1760598236.920436,1.0583160308162949,0.29458684714496125,1.0385870851712569,-0.18584941983491238,26.76956748579391,-64.5070481276987,-45.57771893198289
1760598236.9304352,0.768014970356467,0.3019328931938389,1.052307173770205,-0.1654933357167863,26.652160560208266,-55.62009455582769,-43.421620086917535
1760598236.940423,0.4725073863814903,0.272076165667023,1.0532829000512602,-0.14437506745179557,25.96208598396769,-43.31679596275415,-41.722944390473366
1760598236.950425,0.15212968311114838,0.21158215783501336,1.0433906712349776,-0.12454206986397963,24.67799213828064,-29.152864648109084,-40.3710113010964
1760598236.9605281,-0.2089988887884933,0.12875879936409254,1.0250696625232845,-0.10733948679652046,22.878646897665792,-14.662761778586024,-39.26063273088466
1760598236.9704397,-0.6221299399456571,0.03272313478708224,1.000998701931455,-0.09339048568433016,20.715123757009085,-1.2321982429868412,-38.30891925573528
1760598236.9804366,-1.0933204635593063,-0.06741088600899793,0.9738352997082304,-0.08270297809900341,18.377119475677002,10.00179483725073,-37.46444792465341
1760598236.9904246,-1.6231681027944582,-0.163201190540329,0.9460296119956018,-0.07486575434389096,16.05980422122044,18.220282962217293,-36.7087628923458
1760598237.000414,-2.206897231664106,-0.24740929437042072,0.9197136619098862,-0.06929589097365972,13.93621915572641,22.959971541743876,-36.05152231697835
1760598237.0104227,-2.834850856701156,-0.31440388428501537,0.8966541768106546,-0.06549452561449495,12.138385109985586,24.118546340607708,-35.52138256342278
1760598237.0204136,-3.493414116495903,-0.36043421074725457,0.8782493746120409,-0.06326080977700521,10.748338601215384,21.928750946414574,-35.15492505164262
1760598237.030428,-4.166334436837052,-0.38375898305626327,0.8655468489708998,-0.06281378689023064,9.798533974842039,16.904107302474923,-34.98573966543312
1760598237.0404277,-4.83632424140539,-0.384611922910472,0.85926027306693,-0.06478580387480827,9.279644827317446,9.761728956634567,-35.03537283847835
1760598237.050439,-5.486757687197031,-0.36499385617014735,0.8597664479410873,-0.07007641195187349,9.152914007978623,1.3302648839966869,-35.30733704141019
1760598237.060495,-6.103231009832363,-0.32830347702801305,0.867071860353867,-0.07958543741213514,9.363921121624974,-7.5469694770529205,-35.78477714753482
1760598237.0705578,-6.674768558718399,-0.27884961102641626,0.880749482800217,-0.09387121787151025,9.854945890530212,-16.10266969446254,-36.43171029047694
1760598237.0804203,-7.194527064252478,-0.2213173003409693,0.8998608283898684,-0.1128006484064935,10.573871872837858,-23.71949487667402,-37.197102183829145
1760598237.090447,-7.659957616760968,-0.1602754329327964,0.9228929884493183,-0.1352713575164134,11.47856904257083,-29.978825314164578,-38.02059780536973
1760598237.1004207,-8.072490363300709,-0.09980488674692488,0.9477511925490717,-0.15909171873464106,12.536682162715035,-34.67939122519295,-38.83861829805675
1760598237.1104224,-8.436877942575794,-0.04329355187970854,0.9718472456329865,-0.18109079301413017,13.721593842506142,-37.825307672351805,-39.58973835413909
1760598237.1204252,-8.760357487898194,0.00660040999307819,0.9923078885009314,-0.19748657292149702,15.005987370090729,-39.58761970762726,-40.21863163317194
1760598237.1304817,-9.05177499023302,0.04785657852543493,1.0062985901307782,-0.20447735761330202,16.35486654187792,-40.24729506145926,-40.6782917823984
1760598237.140421,-9.320776843798631,0.07893477839177267,1.0114284996114886,-0.19896520030501125,17.719971936283592,-40.130026597448534,-40.93062073743321
1760598237.1504147,-9.577127420091262,0.09861806580534893,1.006178982361408,-0.1792861766532222,19.03714005651023,-39.54379441567507,-40.94575242330582
1760598237.1604226,-9.830168306223436,0.10590873376488787,0.9902817700652364,-0.14580159893084343,20.227370490138114,-38.7288395351983,-40.70059744630455
1760598237.1704457,-10.088398552227243,0.10000875502600566,0.9649641477414369,-0.10119495958555869,21.201527699831633,-37.82688670793237,-40.177047946149784
1760598237.1804695,-10.359128497458604,0.080394800945192,0.9329861842291232,-0.05034633721886399,21.867977265116075,-36.87273338975726,-39.360116985335836
1760598237.1904445,-10.648147777421928,0.046978056457366815,0.8984275302957269,0.00025614652683708634,22.14195040866214,-35.80735826639473,-38.2361016452462
1760598237.200454,-10.959358498697844,0.00031615705692818896,0.8662329994904396,0.04348312430115127,21.954819353748928,-34.508157974947174,-36.790776586016705
1760598237.2104762,-11.294360119595812,-0.058181405333131105,0.8415777412733924,0.07272238385219927,21.260935608930343,-32.82940197467182,-35.007705524076805
1760598237.2204578,-11.652023660689068,-0.12612917706888035,0.8291502404536466,0.08299715827930476,20.039837141339216,-30.644901518834157,-32.86693249085704
1760598237.230454,-12.028138989665194,-0.20018776506062863,0.8324718675012963,0.07181824020601217,18.292825547950898,-27.885274710506526,-30.344433636227187
1760598237.2404318,-12.41524156379803,-0.27626143962720257,0.85336977372802,0.03959964051341456,16.0348026789359,-24.563772800251584,-27.412667128355675
1760598237.2504222,-12.80271802712662,-0.34985828354210013,0.8916875856183362,-0.010420740371187669,13.283978419291701,-20.786928031791362,-24.042355217142266
1760598237.2604766,-13.177255373568038,-0.41656512616880476,0.9452655732033072,-0.07268352489274049,10.052785356573116,-16.748799769839543,-20.2053369934434
1760598237.2704651,-13.52363885030405,-0.47256340106744005,1.0101748948435105,-0.14008207307422443,6.342784870125027,-12.709981871790653,-15.878010012036533
1760598237.2804625,-13.825828161533696,-0.5150940453330712,1.0811633332227728,-0.20485587975016709,2.144938474699845,-8.964601110266045,-11.044609996292326
1760598237.2904563,-14.06817026013018,-0.5427775867813784,1.1522565302883012,-0.2594885728811904,-2.5549678461507574,-5.800208240553911,-5.699499743293903
1760598237.3004482,-14.236563857900212,-0.5557179328855886,1.2174496539259283,-0.29752610602982876,-7.767272859052885,-3.4566644805983913,0.15209776487468613
1760598237.3104572,-14.319390652119248,-0.555362453402434,1.2714150711726355,-0.31424528426567866,-13.488178089108409,-2.090625664589507,6.494887894799165
1760598237.3204327,-14.308073883462765,-0.5441437302220609,1.3101396550984652,-0.3071195616328981,-19.691029202830197,-1.751680170575292,13.305080448733873
1760598237.3304436,-14.197206857085233,-0.52497544792377,1.3313949859057232,-0.2760540630438897,-26.32150297358506,-2.374457538250461,20.55154589257159
1760598237.3404133,-13.984290184745012,-0.5007066998054686,1.3349494932349597,-0.22338318508818228,-33.2979310650239,-3.7883573273183733,28.1953367612782
1760598237.3504138,-13.669197660266764,-0.473648939425087,1.322467364807314,-0.15363468646492498,-40.5164691173196,-5.743520847324334,36.18685798776388
1760598237.360436,-13.253534453633081,-0.4452721342918752,1.2971014219525887,-0.0730714403515563,-47.85944194619251,-7.948881165061175,44.46080557750471
1760598237.3704302,-12.740050635552832,-0.41612265801131576,1.2628558465342212,0.010962692805539874,-55.204392404378325,-10.116018176381212,52.929897000677585
1760598237.3804271,-12.132234981703162,-0.38595984825459145,1.2238480245495333,0.09084048658223973,-62.43129217608408,-12.001459253869834,61.47912380328386
1760598237.3904653,-11.434153660459476,-0.35405941532717633,1.1836239480113113,0.15951261488430354,-69.42592946991306,-13.440395781092347,69.9625116341406
1760598237.400413,-10.650532185410034,-0.3195983726220937,1.1446730742797975,0.21133678162695882,-76.07844460889936,-14.366703783953065,78.20402097360312
1760598237.41043,-9.787019904936834,-0.28202191797247544,1.108243878236029,0.24277674452172507,-82.27722635187257,-14.817080061540729,86.00341986283088
1760598237.4204323,-8.850533108132575,-0.24130435531465147,1.0744808760142164,0.252872742326296,-87.89994179854814,-14.919866695452601,93.14711399554348
1760598237.4304383,-7.849551447538617,-0.19804936646570334,1.0428019933349477,0.2433816353710223,-92.80518555890504,-14.870970217773653,99.4232489163584
1760598237.4404764,-6.794246434834003,-0.1534129098413263,1.0123556837314303,0.2185027779110243,-96.82941517884412,-14.900342304603171,104.63975818989597
1760598237.4504435,-5.696350817075286,-0.10886791899460689,0.9823944428121,0.1841763871210359,-99.79352203333369,-15.233273957663156,108.64331679327456
1760598237.4605074,-4.568729891826118,-0.06586821909543346,0.9524801846065896,0.1470628384648619,-101.52103445873757,-16.05138831646137,111.33660243986154
1760598237.4705687,-3.4246820841621934,-0.025503630578245597,0.9225333501281154,0.11343034055694377,-101.86606281242547,-17.458458227853644,112.691157457239
1760598237.4805095,-2.2770642271211923,0.011748627792089657,0.8927852380355407,0.08822008463799431,-100.74512205588081,-19.45583762002734,112.75352599289452
1760598237.4904594,-1.1373902579857216,0.04609179259950519,0.863684811075124,0.0744852345829618,-98.16452021575142,-21.9314252997327,111.6431139442084
1760598237.5004406,-0.015071830326659565,0.07826613591819016,0.835781882146755,0.07325250316410527,-94.23507915902934,-24.664749956133665,109.54132252881232
1760598237.5104344,1.0830556239176634,0.10923651641761585,0.809590935677571,0.08372307178452817,-89.16865008762805,-27.34887189873114,106.6729043657257
1760598237.520452,2.1528419911503867,0.13981540868054634,0.785446948650219,0.10367936022289295,-83.25542616932594,-29.627218781670464,103.28200041705611
1760598237.5304422,3.1925685830390536,0.17034493630929617,0.7633869931462143,0.12998650533097364,-76.82604392680813,-31.14048702819694,99.60652546819877
1760598237.5404325,4.20240456724835,0.20052783932690724,0.7431050889015582,0.15911631175823923,-70.20636155659825,-31.576205926978115,95.85500862845309
1760598237.5504498,5.183691356295089,0.2294369939905947,0.724014158478822,0.18764028973313684,-63.67439976779381,-30.71253728701124,92.18942816035648
1760598237.5604315,6.138186992452873,0.25568229769005374,0.705410380647609,0.21264300623251953,-57.42775645721825,-28.448905281918794,88.7161535907765
1760598237.5704398,7.067392092152113,0.27768602744035825,0.6866934802462877,0.23201602219286677,-51.56646644957067,-24.81871088144574,85.48527356273726
1760598237.5804408,7.972048910133989,0.29400525433154723,0.6675757623417391,0.24461100571417196,-46.09227873973553,-19.982698924584387,82.49688591855497
1760598237.5904288,8.85186158321724,0.30363677197146904,0.6482209801703432,0.2502522057174149,-40.92213722908216,-14.204689559945216,79.71176879010899
1760598237.6004846,9.705437842306356,0.3062482897980405,0.6292806177603615,0.24962730611346506,-35.91187225168539,-7.813949806787201,77.06343339148135
1760598237.6104426,10.530410790568341,0.30229761176037717,0.6118237714726464,0.244088109198458,-30.885498631399326,-1.1602225870854594,74.46889336134811
1760598237.6205194,11.323671613555678,0.29302197669865143,0.5971776064126102,0.2353976156241941,-25.66557937110995,5.43181360976258,71.83643115800058
1760598237.6305087,12.081634506143702,0.28029819395486577,0.5867057459161197,0.22545988181154925,-20.100551718476062,11.702061062482214,69.06991398226307
1760598237.640452,12.800464094414332,0.2663910260820307,0.5815542376863294,0.21606619450713732,-14.085678721272222,17.48282258630115,66.07044270018865
1760598237.650709,13.476219737291665,0.25362317063093565,0.5823939382711718,0.20868749800044292,-7.575430257559536,22.71077020417364,62.73698356033622
1760598237.660461,14.104903783950544,0.24401370646217346,0.5891891287537422,0.20433905684018006,-0.586568124142378,27.420940616294132,58.96795888896255
1760598237.6704605,14.682434280562283,0.23894063581499736,0.6010273240023176,0.20353676172942664,6.807218707166149,31.723070312061623,54.66553790296458
1760598237.6804397,15.204589267290288,0.23888515767570281,0.6160525710190428,0.20635232341123763,14.486950876138593,35.76321881186309,49.743659057043494
1760598237.690443,15.666984139231356,0.24330910561852595,0.6315469587555976,0.21255709523730426,22.303256566327235,39.676102459330025,44.1398051539699
1760598237.700453,16.065143445860997,0.2507026164829464,0.6441942856039273,0.22182431214934953,30.09126789773803,43.53537581442559,37.82946497499609
1760598237.7104423,16.394715277893503,0.2588179923581247,0.6505323513983923,0.2339386893294607,37.68259474993322,47.30983231004003,30.84124810432438
1760598237.7204351,16.651852912179297,0.2650789039431984,0.6475595761616789,0.24894232232877267,44.912483814945716,50.83301337902832,23.269925339500762
1760598237.7304485,16.83375776023119,0.2671223934099006,0.6334151110485347,0.26713878010741476,51.62210701754073,53.792170568248714,15.284389254996695
1760598237.74044,16.939343374792166,0.26339706306954147,0.6080071607551659,0.28890780267747523,57.65828080118931,55.74027623937841,7.127769965599152
1760598237.750427,16.969945972925732,0.25370988676460116,0.5734321026203482,0.3143606809141382,62.874650815125634,56.132335730988586,-0.892326245652967
1760598237.7604918,16.92997608551225,0.2395968582308343,0.534027703860528,0.3429520888341796,67.13796801918882,54.38504618394772,-8.424374334088245
1760598237.7704933,16.827381957785132,0.2244017921432225,0.4959666104425635,0.3731932230732668,70.34018904587161,49.95674329382485,-15.103768330616036
1760598237.780438,16.673781324122125,0.21298563028349862,0.46643304137445657,0.40256678389454614,72.4134051597332,42.44188468483978,-20.591693533142003
1760598237.79048,16.484119849380264,0.21104673051224632,0.45258887697950384,0.4276755163114492,73.34237404590385,31.670671591285092,-24.617916988486577
1760598237.8004875,16.275747438933706,0.22410699882679483,0.46061304839706757,0.44460586640481,73.16977949685214,17.80055409517633,-27.021748626846364
1760598237.810437,16.066888192300073,0.2563094759860607,0.49500602187260184,0.4494509326126191,71.99173649055089,1.3838007285519573,-27.784559691591067
1760598237.8204575,15.874614367127728,0.30925608816800276,0.5581545729266066,0.43890198681237774,69.94426231079771,-16.60471525540639,-27.047613228077907
1760598237.8304467,15.71257881042888,0.3811420431266118,0.6500255346825844,0.41080130790560415,67.18426481724808,-34.79238669312941,-25.110701649406252
1760598237.8404887,15.58885784248682,0.4663913209850728,0.7678929537597887,0.3645602518996047,63.870182009330776,-51.493463535335714,-22.40988379605343
1760598237.850503,15.504273516735921,0.555891797333567,0.9061307854948603,0.3013722643968669,60.14740505017745,-64.85250227175852,-19.475863536546353
1760598237.8604739,15.451500875056135,0.6378172225939738,1.056204780484259,0.2241814742242248,56.142274550209564,-73.03712160579059,-16.87764649967183
1760598237.8704495,15.415145984777407,0.6989395250562833,1.2070200049477353,0.13740694849314777,51.966219828545945,-74.46249274506552,-15.158600933659596
1760598237.880475,15.372836259872106,0.7262845029240501,1.345734172273564,0.04646830845164749,47.72890180666269,-68.02329935365138,-14.77362695466327
1760598237.8905597,15.297223424731236,0.7089519041239387,1.4590567607580947,-0.04280680897758662,43.556479012442665,-53.303604914428206,-16.036545293470972
1760598237.900465,15.158677947849233,0.6398877525108306,1.5349391691761312,-0.12480636627901838,39.60896576450279,-30.731859636077385,-19.085760659152474
1760598237.9104486,14.928362041947956,0.5173606916512723,1.5644354681597183,-0.1947193445797289,36.089583229332305,-1.6489177826123842,-23.8735053212965
1760598237.9204733,14.581318229841678,0.3458760021798843,1.5433961032622792,-0.24903069753398574,33.23928752856384,31.736778067204305,-30.17966553214938
1760598237.9304867,14.099212819699124,0.13628718607244858,1.4735919941549542,-0.2858714237664459,31.31185906173296,66.51993919927205,-37.64618362444976
1760598237.9405,13.472428111144948,-0.09504462743905713,1.3629137260908029,-0.30515986057794153,30.52994599396418,99.38925955612197,-45.823880883253246
1760598237.9504826,12.701289402282375,-0.3280278722273974,1.224476038282397,-0.30848554351159074,31.030014272459113,127.00907129246643,-54.22195747465494
1760598237.960448,11.796321815135384,-0.5413186109337138,1.074732926857782,-0.298745161398597,32.81134845534134,146.43925832695663,-62.352161045700726
1760598237.970451,10.777538509577983,-0.7150647814563752,0.9309694271356842,-0.2796165808477286,35.706567559685354,155.52560284370483,-69.76374640010334
1760598237.9805155,9.672853813479227,-0.8334038098490127,0.8086865229332282,-0.2549972217531012,39.38598414943678,153.19312358635602,-76.06959543338937
1760598237.9904368,8.515788465837584,-0.8862894367268221,0.7193984974244582,-0.22851038801590015,43.3974167267695,139.5925955028346,-80.96604451136686
1760598238.0004754,7.342691339535656,-0.8704321441245184,0.6692407395168378,-0.2031304446564519,47.23195188593428,116.0794734285425,-84.24846012705545
1760598238.0104222,6.189742799323014,-0.7893606660851735,0.6585893112934277,-0.18094478117558693,50.39949206625999,85.03542912920456,-85.82256665497768
1760598238.0205863,5.090024001758518,-0.6527558374277708,0.6826697116049402,-0.16306450700423378,52.49747123186163,49.56740087286372,-85.70969573944518
1760598238.0304527,4.07092850546344,-0.4752451917542163,0.73293123634386,-0.1496869709316755,53.26042590229841,13.133249526436535,-84.04351187412111
1760598238.0404594,3.152158464468147,-0.2748186580476034,0.7988353428176428,-0.1402853242443069,52.58427902540108,-20.85297676148886,-81.05644337817448
1760598238.050433,2.344492252888031,-0.07099397043387447,0.8696770230518321,-0.1338704628009295,50.52487400028553,-49.38699841363149,-77.05570905016333
1760598238.0605533,1.6494353568858462,0.11713848511995323,0.9361146325750044,-0.12926293174402873,47.27454628549184,-70.17134567806967,-72.39109368348251
1760598238.070454,1.059771710092797,0.2728254629352837,0.991195032455837,-0.1253312161771325,43.12332753886945,-81.8155726898009,-67.41881614020197
1760598238.0804799,0.5609256733750224,0.38330422071398,1.0307978597853498,-0.12118228618316897,38.41281788702706,-83.92526842503473,-62.467042501490525
1760598238.0904427,0.13294464486319632,0.4409783951910437,1.0535536769449312,-0.11630906218232934,33.490787603363515,-77.07872288826483,-57.80826792973422
1760598238.1005044,-0.24715786122705918,0.4439528522966392,1.0603821126658433,-0.1106959170225899,28.67325400165127,-62.70186903009204,-53.6421446163473
1760598238.110528,-0.6029842725631274,0.39587736558455294,1.0538295170720382,-0.1048635169504854,24.218433138288443,-42.861667108769254,-50.090089966936475
1760598238.120454,-0.9565269958285105,0.30516939139754673,1.0373678211951172,-0.09981906225476381,20.314071365386166,-20.00504168309896,-47.20082310040026
1760598238.1304245,-1.326349545521252,0.18376928809033222,1.0147693347901081,-0.0968869442757582,17.076837201590003,3.3254033028096877,-44.964218955355925
1760598238.1404464,-1.7263186789319296,0.04561566909578831,0.9896186044375139,-0.09743048362989105,14.560376231883211,24.76657287004492,-43.32974743491834
1760598238.1504414,-2.1649522388210025,-0.09497028379343135,0.9649772841950329,-0.10252053192225394,12.767790534819154,42.37070829155159,-42.22542226522866
1760598238.160441,-2.6453699276377356,-0.22481391615151994,0.9431882704658034,-0.11263401522143787,11.664736728761387,54.77688889794498,-41.57365346492793
1760598238.1704752,-3.165767587760567,-0.3331668395965195,0.9257918385777519,-0.12745671612789983,11.190624342800486,61.30169999615999,-41.301559627176225
1760598238.180537,-3.720288124661332,-0.4126006160781999,0.9135257123836004,-0.1458277587522932,11.26695153604294,61.94335304754104,-41.34489403955954
1760598238.1904464,-4.30013963720427,-0.45942602329533566,0.9063874038911607,-0.1658244838627302,11.803155209564546,57.305031300296065,-41.6464011801826
1760598238.200473,-4.894812647498584,-0.47361872217539824,0.9037451529006247,-0.18496308665912786,12.701154093377214,48.453549199215885,-42.150716619789186
1760598238.2104228,-5.4932649026652,-0.4583074131880924,0.9044889796987678,-0.2004815362583137,13.859854416204826,36.73701879225779,-42.79850230706226
1760598238.2205358,-6.084963937260701,-0.4189445116535846,0.9072133102482364,-0.20966941539759532,15.180326583993299,23.58909335863555,-43.5222734485979
1760598238.2306013,-6.660701881838447,-0.36231903008677574,0.9104175926635621,-0.2102099526869664,16.571488080655858,10.347103289139953,-44.24552565885715
1760598238.2404377,-7.213129818861346,-0.29558012071477996,0.9127050543019409,-0.20050118463143285,17.955419269261697,-1.8928020184252583,-44.88566013540779
1760598238.2504766,-7.737004011568776,-0.2254181284941605,0.912958090062143,-0.17992530652004618,19.271221696205952,-12.367809913337819,-45.36013317738689
1760598238.260447,-8.229184642917701,-0.1575040573911168,0.9104745874685619,-0.1490371503640862,20.47660872590158,-20.681526608894504,-45.59443370211086
1760598238.270455,-8.688461989761384,-0.09622773816038971,0.9050588283745074,-0.1096439131989657,21.546969946459846,-26.781150051877564,-45.53007472859435
1760598238.2804658,-9.11529366437359,-0.04471260211790837,0.8970661142497937,-0.06475017705923536,22.472216633300366,-30.89002418366231,-45.130852542632766
1760598238.2904654,-9.511520754201822,-0.005033379152446642,0.8873986769639557,-0.018348529363355272,23.25211258765825,-33.412370468458086,-44.386106707350805
1760598238.300438,-9.880099269343756,0.02146995365928096,0.8774451908340661,0.02494972697931589,23.890916176076804,-34.8291831065532,-43.31038196932064
1760598238.310462,-10.22484700085072,0.0338980300757146,0.8689541236416828,0.060425835153722,24.391981990388054,-35.603065223878815,-41.939505190662345
1760598238.3205318,-10.550176132302758,0.03161412724597385,0.8638387224218742,0.08385666501479365,24.75260170006456,-36.105736810508255,-40.32351653100908
1760598238.3304768,-10.860769607443805,0.014230176990348942,0.8639311522211129,0.0921212824105372,24.95904478154449,-36.576130386595565,-38.5171567427393
1760598238.3404918,-11.161169403497437,-0.018257620101966642,0.8707280710124401,0.0836915147296394,24.98172331533378,-37.11069821064253,-36.5688272510435
1760598238.3504784,-11.455272341347413,-0.06524762208943034,0.8851819664606712,0.05889100380542192,24.770664489425087,-37.68196676488902,-34.50920296256041
1760598238.3604615,-11.745761500178299,-0.1253084512317868,0.9075784511552617,0.01986516889011848,24.251813933291178,-38.17728922248351,-32.34097865318816
1760598238.3704474,-12.033527426756661,-0.1960225842025845,0.9375087319003501,-0.02970936976836738,23.324930332519017,-38.44749520585531,-30.031442603875675
1760598238.3804576,-12.317148207721427,-0.27394411890461456,0.9739226598650065,-0.08508655036678932,21.864002206605257,-38.35470121137065,-27.509507905675214
1760598238.3904467,-12.592501338061243,-0.35469594126052145,1.0152420947491714,-0.1409834022769874,19.721278657615972,-37.80973051149728,-24.668346893687175
1760598238.4004648,-12.852575310208783,-0.4332203604478721,1.059517192713415,-0.19210344682772987,16.735947646784826,-36.79214669801417,-21.373898931900428
1760598238.410452,-13.087536740060896,-0.5041884879600583,1.1046082539553759,-0.23359919995925763,12.747862096572302,-35.349574180137076,-17.478492160174195
1760598238.4204843,-13.28508910978982,-0.5625515710243781,1.1483741701984331,-0.26145015733611193,7.615481376805766,-33.57740914799111,-12.837932761426924
1760598238.430446,-13.43112915045947,-0.6041736980630812,1.188853257587321,-0.2727581861632246,1.235891339222044,-31.584549025012766,-7.329878595425613
1760598238.440476,-13.510666541404042,-0.6264341814898987,1.224432426554153,-0.2659748900487941,-6.435924407297171,-29.45436139274255,-0.8712172142826632
1760598238.4504657,-13.508929790580087,-0.6286627247190971,1.2540027190636545,-0.24106509519748281,-15.371234815936873,-27.211716371860714,6.567513744474144
1760598238.460493,-13.412548702614176,-0.6122948463231472,1.2770836321369403,-0.19958410688728995,-25.45715258007654,-24.805910661266967,14.952047999113738
1760598238.4704876,-13.210690780014898,-0.580700120977762,1.2938747813639755,-0.14462558187290567,-36.49295910579743,-22.11585281631047,24.17941193424922
1760598238.4804637,-12.896035660994928,-0.5387099656169143,1.305183041654385,-0.0805980067465747,-48.19375068941617,-18.978799741089016,34.078267273035756
1760598238.4905052,-12.465492585775976,-0.4919281969333159,1.3121923348588982,-0.012812399559635748,-60.20125330878581,-15.238454666930847,44.414409891403054
1760598238.5005825,-11.920594052150856,-0.4459385806362352,1.316091542668719,0.053095446959559214,-72.10098683326454,-10.803523194795796,54.90108178324257
1760598238.510489,-11.267529340362378,-0.40553372130293913,1.317637752213523,0.11183945038658076,-83.4445404201614,-5.704705633937828,65.2138126192987
1760598238.5204403,-10.516811641518734,-0.3740840928964187,1.316781590702311,0.15914862271584912,-93.77552228714012,-0.13711894081471115,75.00966878663323
1760598238.5306942,-9.682599629229832,-0.35314282911204214,1.312490660675507,0.19230176153950687,-102.65754814709888,5.523298819431183,83.9506999854252
1760598238.5404608,-8.78171618030278,-0.34233505008307075,1.3028592705440076,0.21042623802594515,-109.7023688537156,10.736673872162443,91.73067987411264
1760598238.5505464,-7.832425112965832,-0.33951725879020594,1.285502401054357,0.21450576306228225,-114.5962625191008,14.850589513687636,98.10294715873441
1760598238.560518,-6.853047647097316,-0.34113995266505487,1.2581440820722256,0.2071113921113509,-117.12347536639,17.180686336255523,102.90578394455852
1760598238.5705214,-5.860528025133474,-0.3427295325178502,1.2192633051831088,0.19193071450196966,-117.18633141005235,17.10952625732298,106.08107943019512
1760598238.5804648,-4.86908786597485,-0.33942359605921857,1.168653010517874,0.17319455396337186,-114.82150483052993,14.188829763847073,107.68252079084307
1760598238.5904636,-3.8891307086651334,-0.32652569665062253,1.107753768238398,0.15508421615289106,-110.2103592730326,8.2284755849403,107.8710845535326
1760598238.6004655,-2.9265611043648354,-0.3000665703390112,1.0396409172008818,0.14117451328542052,-103.67921977758563,-0.6434172943418314,106.89752217830362
1760598238.6104538,-1.9826576698638436,-0.2573555428890706,0.9686091437391501,0.13396290856018794,-95.68467112812117,-11.961330800556771,105.07328519072932
1760598238.6204777,-1.0545800160959342,-0.19748186077082483,0.8994298743197461,0.13455130724580455,-86.7804491428897,-24.95019548001938,102.73281036556057
1760598238.6304576,-0.13649480529873864,-0.12169174437241577,0.8364902788752213,0.14254978137342547,-77.56599072936754,-38.59913861876285,100.19141425674238
1760598238.6404808,0.7788115948068329,-0.03353552702433989,0.7830603286231492,0.15624041230963598,-68.62125073105275,-51.77269569848025,97.70422698114962
1760598238.6504557,1.6980807133932212,0.061329267812577304,0.7408565841646996,0.1729896977010912,-60.436722146751315,-63.34459814654233,95.43238129470252
1760598238.6604629,2.6258140620415715,0.15575393367207718,0.7099513867701354,0.18985074024190968,-53.35057416466621,-72.33454638383596,93.42267518757868
1760598238.6704702,3.562927148231251,0.2421149947157827,0.6889894024248887,0.20425323251186736,-47.50563305158471,-78.02630809197863,91.6057546079173
1760598238.6805234,4.506101373962599,0.3135897490837537,0.6756338053409239,0.21463973297912317,-42.83695843280485,-80.04711269663055,89.81530600799347
1760598238.6904542,5.447982865471527,0.36544174329661355,0.6671441971247642,0.22088873854448413,-39.09569684093163,-78.39435401666289,87.82698641055714
1760598238.7005086,6.37821051965433,0.3960094942445237,0.6609703388367312,0.2243895156088633,-35.907308786171775,-73.40546418557247,85.41151036312775
1760598238.710465,7.285083328295956,0.4071078257218164,0.6552427422661145,0.22770672863743097,-32.85395194899647,-65.6784319045416,82.39244459526822
1760598238.7204633,8.1575355521171,0.40365931016783735,0.649070873306038,0.2338870918488647,-29.56424761718357,-55.961016874567925,78.69688755369981
1760598238.7304983,8.987011544551804,0.39257189939106574,0.642613071083482,0.24558474909340186,-25.791101835378925,-45.033297038559304,74.38725146631639
1760598238.7404597,9.768845237280575,0.38111147463822975,0.6369308028460418,0.26425666621947846,-21.46070677450351,-33.608293766950005,69.6653705137585
1760598238.7505207,10.502856266953556,0.37518299804148786,0.6336704987931392,0.2896574615178956,-16.682529925659065,-22.268489514484305,64.84591166549171
1760598238.7604778,11.19305046250435,0.37795835056903615,0.6346388658353004,0.31976025544445474,-11.718885249294873,-11.444532286909318,60.303249935384784
1760598238.7704568,11.846511931789241,0.3891823054150916,0.6413585085144738,0.35110438643388586,-6.921249189085156,-1.430781276862656,56.402454171761995
1760598238.7805114,12.471746957747078,0.40530985353281707,0.6546990410306337,0.37946819736323645,-2.647105687624924,7.575569657389379,53.42878338415123
1760598238.7905335,13.076841952506108,0.4204306679569977,0.6746632321115438,0.40070071591180423,0.8252700172780604,15.427958182824447,51.5301024175766
1760598238.8004591,13.667804544908051,0.42775691955582273,0.7003700857525987,0.41152177740138207,3.366516571701533,21.991463429624698,50.68321441685477
1760598238.8104758,14.247377910964985,0.42132539678963227,0.7302266797096175,0.41011944059255995,5.036001705856033,27.122371984343623,50.68961616320447
1760598238.8204694,14.81449095521743,0.39752303754746077,0.7622293028391687,0.39643578669077,6.083313169262612,30.671531568896672,51.200247782609615
1760598238.83053,15.36437120351378,0.3560945944992585,0.7942989937875288,0.37211821483376384,6.910709264534136,32.50983331878855,51.76371703638411
1760598238.8404994,15.88922918390678,0.3004192847361354,0.8245549938763977,0.3401890131473147,8.003928316212106,32.567435640413144,51.88897857304261
1760598238.8504727,16.379336871802618,0.23701851077389652,0.8514646535365414,0.30452751339249023,9.84549198947978,30.87364014058125,51.11187382375652
1760598238.8604767,16.824278205803047,0.1744313495353,0.8738646239425831,0.26926983324574644,12.828187157330557,27.583379890537696,49.05528330003993
1760598238.8705392,17.214151384913855,0.12172086135760897,0.8909038807317894,0.23822730410580073,17.185660157813402,22.979770837185427,45.47460657274101
1760598238.8804827,17.54054711241275,0.08692709263290949,0.901991890708027,0.21441022780631028,22.95222674643271,17.449223212161343,40.28337818443364
1760598238.8905168,17.797201770406954,0.07576272311305086,0.9068261251982401,0.19971080022114326,29.95676659751555,11.433826121229451,33.557435224829305
1760598238.9004693,17.98030928035163,0.09077076075074929,0.9055185928270757,0.19475428859673263,37.84841473846984,5.372120905346798,25.51943001017265
1760598238.9104707,18.088546241127663,0.13105522800404226,0.8987645046601447,0.19890046069327397,46.14671579576802,-0.35809345043695073,16.507935274152594
1760598238.9205654,18.122903239703913,0.19258248610073816,0.8879479051402933,0.2103855442107646,54.306477063380676,-5.482737882948192,6.936606899509735
1760598238.9304779,18.086414565466548,0.2689511573109999,0.8751056248645114,0.22661033292387434,61.78688253919729,-9.852085135699168,-2.7509682521244483
1760598238.9404755,17.983845203023883,0.3524511124680766,0.8627597654157521,0.24455887146997507,68.11468328907654,-13.43602357727152,-12.12559307753216
1760598238.950467,17.82134426890498,0.4351880340658247,0.8537030799763529,0.2612769581151231,72.93267999468597,-16.296114650062826,-20.81163122673664
1760598238.9606133,17.606031248596206,0.5100564364486044,0.8508163853185838,0.27429821406184496,76.02784135582324,-18.541172060696592,-28.51776531560252
1760598238.970678,17.345467329791695,0.5714037726990727,0.85692472835659,0.2819128060817144,77.33783623410879,-20.2762170675532,-35.05726907009897
1760598238.9805257,17.046985960334904,0.6153180897235714,0.8746241078959681,0.2832237774033099,76.93899128897927,-21.555630940856453,-40.356940874880856
1760598238.9904928,16.716902310347194,0.6395590916210803,0.9059874896391501,0.2780019011932398,75.02131908929766,-22.350029589091918,-44.45503193188188
1760598239.0004864,16.359670273119335,0.6432194324774113,0.9521017187956526,0.26640888658456446,71.85689186371422,-22.533444596940114,-47.489549593864794
1760598239.0104873,15.977093570534954,0.6262480937116475,1.0124764572733953,0.24869455729490336,67.76693686873678,-21.893728746414823,-49.6790285739218
1760598239.0204883,15.567719480846877,0.5889916462776071,1.0844662528442404,0.22497746397705898,63.09139188845708,-20.16540205527016,-51.29807274996309
1760598239.030495,15.126549342440466,0.5319042338951404,1.1629162802707937,0.1951904831553405,58.16297520301441,-17.080692637627653,-52.64968156005482
1760598239.040497,14.64518815880445,0.45553143904687965,1.240248951504758,0.159219022103489,53.286513588994,-12.431447663667727,-54.035788443864966
1760598239.050534,14.112522530797067,0.3607883676943602,1.3071435942254952,0.11718896707148642,48.72348342370163,-6.132250116164784,-55.726920023391706
1760598239.060574,13.515957463374209,0.2494511768280297,1.3538366808918192,0.06979362630602463,44.68141020919707,1.7260152892371903,-57.93187791481284
1760598239.0705643,12.843157606623311,0.12469517403937608,1.3719008358709064,0.018513368362096383,41.30778836684288,10.842439071462715,-60.769165508818006
1760598239.080532,12.084134098376822,-0.00853151600063845,1.3561663531565415,-0.03439447247715801,38.68829421932076,20.700502320570937,-64.24342599278083
1760598239.0904834,11.233411904232431,-0.14348891317718268,1.3062821891591607,-0.08616987551966557,36.84896921659679,30.595584578917073,-68.23175444735001
1760598239.1004932,10.291931772257385,-0.27207579992116593,1.227375102528268,-0.13400407496690117,35.76156742101523,39.6959760617397,-72.48534744115152
1760598239.1104903,9.26831668472622,-0.38566485621028507,1.129450049049197,-0.175504564006581,35.35065691718931,47.13218900591138,-76.65059961568866
1760598239.120473,8.17919027014748,-0.4761748856844449,1.025567428446959,-0.2090099020729233,35.50098404415709,52.10322062649611,-80.31015210097307
1760598239.130484,7.048381092217719,-0.537153837857188,0.9292685505343643,-0.23368573187197314,36.06443467238699,53.98326765037007,-83.03936571616099
1760598239.1404624,5.905057128235156,-0.5646499671235501,0.8519801682427969,-0.2494423002607735,36.86726384865197,52.41044273683923,-84.46904079164587
1760598239.1504667,4.781050608950982,-0.5576987091406251,0.8010923266999789,-0.25676878749852916,37.71919725464771,47.341818731797474,-84.34276512038441
1760598239.1604629,3.7077857356512127,-0.5183471990416344,0.7791187192439357,-0.25656530041192005,38.42582977153879,39.066101137520846,-82.55789562119865
1760598239.1704624,2.713266397279667,-0.45126361450797214,0.7839704135917186,-0.2500048841795764,38.80447668435477,28.173929055204624,-79.18260006787052
1760598239.1804597,1.8195191218662934,-0.36308451449119367,0.8100610269071595,-0.2384183585428204,38.701948619896285,15.493342077360015,-74.44658200873614
1760598239.1904485,1.040758704773485,-0.2616821138102288,0.8498097301774515,-0.22318227841900054,38.0114314399225,2.0025025247333774,-68.70856709876523
1760598239.2004642,0.3824043904689086,-0.15547585404067768,0.8951308318917335,-0.20560004578242547,36.685208311569035,-11.267110648923854,-62.40774407563058
1760598239.2104592,-0.159038316420737,-0.05282159098439222,0.9386374515610953,-0.18678592960992138,34.74040906766132,-23.32555514663453,-56.00821096618053
1760598239.2204764,-0.5952924369311954,0.0385451092094499,0.9744521523091167,-0.1675785558829983,32.25616523249724,-33.309147203955106,-49.94523667730449
1760598239.2304633,-0.9449372303783343,0.11203135771672082,0.9986386873557936,-0.14851452779482355,29.362241138643746,-40.55009905017018,-44.580589015166524
1760598239.240457,-1.2315087406327327,0.1626569465947389,1.0093246143151056,-0.12988231066191575,26.221017664668455,-44.62808184175419,-40.1719627455741
1760598239.250445,-1.4812666316759069,0.1874250557978932,1.0065924877429018,-0.1118555113313003,23.006131660102735,-45.40132881936231,-36.85897226112153
1760598239.2604628,-1.7208368803546967,0.18554655597796146,0.9922058663294366,-0.09467856509136381,19.881695034912067,-43.014965041716174,-34.66548410667956
1760598239.2704823,-1.9749350457788426,0.1584894701477012,0.9692236275355035,-0.0788533380799897,16.985670994948496,-37.88480839147003,-33.51565488113759
1760598239.2804556,-2.264354511557879,0.10984505037435927,0.9415479591742453,-0.06526209016234796,14.419811307355,-30.656534549299778,-33.25936483757074
1760598239.2904396,-2.6043772227282287,0.045015407299815804,0.91344722217702,-0.05516988340187002,12.246910872909783,-22.142810074106592,-33.702040894828194
1760598239.300504,-3.003734281363685,-0.029261464046948904,0.8890916757408466,-0.050080083588141415,10.494482286879743,-13.24416387242523,-34.63408699417486
1760598239.3104696,-3.464204549510649,-0.10551809527017415,0.8721349942249567,-0.05146261873832444,9.162743739438477,-4.862025254783132,-35.856033388466116
1760598239.3204696,-3.980882656647893,-0.17624346125527968,0.8653667980168778,-0.0604188591595801,8.23431189360466,2.186352423564298,-37.19677946249935
1760598239.3304722,-4.543074400913067,-0.23457831549034291,0.8704524025359791,-0.07736657851946258,7.683185993792055,7.241750744179733,-38.52368734977819
1760598239.3404827,-5.135703272320573,-0.27494516504826344,0.887768133794798,-0.10181316124443657,7.481270236614552,9.858095814509614,-39.74462540626655
1760598239.3504622,-5.741057346732416,-0.29354990463813985,0.9163369717511587,-0.13225284162272646,7.60151756798892,9.833985822610092,-40.8032531022547
1760598239.360466,-6.3406810876442075,-0.2887128815886723,0.9538718195013212,-0.16620206595568335,8.017591142864257,7.21890923458512,-41.669753187870334
1760598239.3706343,-6.917218518647309,-0.26100758705187865,0.9969397947624866,-0.20038186664828203,8.700650148100808,2.2955010722253038,-42.32969584801446
1760598239.380469,-7.456035746198498,-0.21320194302527926,1.0412636281591965,-0.23105212406533251,9.61442676685725,-4.458198809436977,-42.77365686180813
1760598239.3905556,-7.946486480359721,-0.1500110713668347,1.0821681074638878,-0.2544871306979166,10.710092669352658,-12.420754809281416,-42.98962640824441
1760598239.4005404,-8.382728529159447,-0.07768230516623693,1.1151562397015764,-0.2675535488180087,11.922438536851141,-20.88718416570905,-42.95928661508562
1760598239.410488,-8.76404516222319,-0.003443661989497752,1.1365610748556711,-0.2683134825395036,13.168606104534797,-29.130545360294235,-42.658148379038984
1760598239.4205062,-9.094665933352125,0.06514284421717353,1.1441701411580827,-0.2565315543162898,14.350129358952168,-36.46028183690367,-42.05860406272122
1760598239.4304914,-9.383113668343325,0.12087135592444695,1.1376796062130972,-0.2339338052685744,15.358489337610473,-42.27387848293685,-41.13440072297606
1760598239.440517,-9.641129881693383,0.15756536126908927,1.1188420289121634,-0.2040885043863874,16.083739479767985,-46.099859514560386,-39.864948537058766
1760598239.450483,-9.882256059836912,0.17066933413559532,1.0912488371191233,-0.17188143686016977,16.42489759397794,-47.63105818462757,-38.23818359515142
1760598239.460482,-10.120179325917821,0.1576960579824989,1.059802345576082,-0.14269784766005816,16.299894208394097,-46.74724777826187,-36.25127358404163
1760598239.4705033,-10.366989529514974,0.118474973777927,1.0300099626201276,-0.12151100593503639,15.652471210567098,-43.52591815773438,-33.90913653072417
1760598239.4804769,-10.631534239303516,0.0551630472367832,1.007239557377457,-0.11207269379508773,14.453970240079757,-38.239699417640125,-31.221347865435796
1760598239.4904914,-10.91808367271639,-0.02799456399733829,0.99603560923785,-0.11633917537796483,12.699306427574593,-31.339060412954883,-28.198364294434448
1760598239.5005062,-11.225510669400961,-0.12513294481606574,0.9995532108323195,-0.13419717248846524,10.398094953225101,-23.41961848147066,-24.848027599849576
1760598239.5105076,-11.547138181140978,-0.22940710443884008,1.0191431213375213,-0.16349852434473663,7.563376011822344,-15.1746821139684,-21.173088747391027
1760598239.5205297,-11.871309717879283,-0.33371447085516365,1.054116640797557,-0.20037102622639866,4.20120382275658,-7.335377904166125,-17.170127332696794
1760598239.5304923,-12.18261391120387,-0.43139849294834715,1.1017226987087718,-0.23974522594148295,0.3041741979631937,-0.602661773940948,-12.829836751298815
1760598239.5404809,-12.463570185945166,-0.5168409378967642,1.157366400820624,-0.2760201057060008,-4.149235546228559,4.422610794532715,-8.138325138517589
1760598239.5504866,-12.69649138664033,-0.58587737229641,1.2150795228776896,-0.3037809354962406,-9.189396413178654,7.3039331456738035,-3.079028629025538
1760598239.5605845,-12.865213353362703,-0.6360050603440826,1.268218043707346,-0.3184793869669476,-14.845834726434973,7.819459723683626,2.364834151970734
1760598239.570516,-12.956435957474671,-0.666387110335774,1.3103138371891656,-0.3169918396888685,-21.135554781323506,5.9906507064688705,8.206779350098513
1760598239.5805292,-12.960536641095084,-0.6776861074805585,1.3359588769311639,-0.2979887010871321,-28.051863295862717,2.0833801137501804,14.451721138619968
1760598239.5905237,-12.871850892903582,-0.6717809051135043,1.3415714033980484,-0.2620740151021365,-35.55553515525612,-3.4212339835649583,21.088228767985598
1760598239.6005247,-12.688519567660206,-0.6514273241926255,1.3259027770968188,-0.21168558596721332,-43.56917697707622,-9.885001313033559,28.078703181640492
1760598239.61049,-12.4120570570704,-0.6199137006758526,1.2901920559894355,-0.15077459005810406,-51.974682246310216,-16.594204954081576,35.34892855966933
1760598239.6205196,-12.046796364625717,-0.5807408164245028,1.2379446384712312,-0.0843069777192879,-60.61303507661938,-22.854776559736543,42.779439522178166
1760598239.630505,-11.599331016963736,-0.5373374943529081,1.174378177515656,-0.017649523683608493,-69.28557443248332,-28.088139321963187,50.201650758770214
1760598239.640503,-11.078018927662686,-0.49281458227732816,1.1056287645266174,0.04407838189727946,-77.75610135235773,-31.913300619123547,57.401429993209035
1760598239.6504672,-10.492557459935513,-0.4497541192713344,1.0378415340007046,0.09659820604343415,-85.75369207013676,-34.20184072648486,64.13167710942824
1760598239.6604893,-9.853595376770107,-0.41002841396044815,0.9762875539862553,0.13693234229288048,-92.9766981895633,-35.096136352569154,70.13376323706252
1760598239.6704893,-9.172325993497385,-0.37465664250326575,0.9246543643690874,0.16367853374525576,-99.09927075986188,-34.98678265415264,75.1657578591079
1760598239.680786,-8.460010759161634,-0.34372671918521813,0.8846431476604159,0.17707857923578613,-103.78274348516825,-34.451581839617724,79.03351185538864
1760598239.6906953,-7.727409011290233,-0.31641260832657053,0.8559595157930432,0.17888921835804672,-106.69468459017739,-34.16451593037689,81.61925959110229
1760598239.7004895,-6.984127976938137,-0.291095311641953,0.836701456552957,0.17208349948400956,-107.53735599082412,-34.78797659189444,82.90206681068251
1760598239.710488,-6.237948760554433,-0.2655703889265081,0.8240412527697961,0.16042374035074566,-106.08427471645969,-36.86453785357551,82.96560896569515
1760598239.7204902,-5.494221388361536,-0.2373160370720103,0.8150101294647271,0.14795171326461085,-102.2195632061823,-40.72507247614831,81.99120108569257
1760598239.730503,-4.755444293474215,-0.20380190063180892,0.8071722795020151,0.13844295030162027,-95.97181845200063,-46.42762405545144,80.23692396454926
1760598239.740581,-4.021140601472791,-0.16282571815125643,0.7990306621222085,0.13488088766171008,-87.53386708708588,-53.73649012122016,78.00620130850838
1760598239.750493,-3.2881120345765575,-0.11286228973657376,0.7901091582176736,0.13902429778503184,-77.26213472112033,-62.144487040754164,75.61071841369314
1760598239.7604902,-2.551095453389285,-0.053394685599499156,0.7807592273203099,0.1511511728538929,-65.65348431347898,-70.93456804173998,73.33306828074605
1760598239.7704906,-1.8037747395575408,0.014825025982501964,0.7718086012545206,0.1700423812417304,-53.3019604337187,-79.27088046558173,71.39422056018348
1760598239.7805045,-1.0400229245753752,0.08965708017480123,0.764185957625058,0.19321738250548448,-40.841723571606394,-86.30483505092135,69.93011894705744
1760598239.7904932,-0.25518348780759587,0.16766582621938,0.7586241094662364,0.21737591702536604,-28.884785493222054,-91.27961470163484,68.98054655941897
1760598239.8005016,0.5528322896425095,0.24445366048234907,0.7554907392239781,0.23895945497737273,-17.96268717436122,-93.61745143434231,68.49180654855203
1760598239.8105066,1.3828357906857887,0.3152059341379747,0.7547460367343484,0.25473087727606114,-8.480115264617561,-92.97805485167001,68.33272274845798
1760598239.820504,2.2301725683612426,0.37535425125252597,0.755993615743234,0.26227511894600936,-0.6860338466222945,-89.28274530494566,68.32123020112334
1760598239.8304996,3.0870870654242535,0.42123409600325074,0.758578152709395,0.26034437923057785,5.335169074502343,-82.70513188011522,68.25695613102563
1760598239.840646,3.94357253959064,0.4506203727303333,0.7616891366033013,0.24900639012873155,9.653096580415356,-73.63378599221005,67.95425251810526
1760598239.850512,4.78856253562489,0.4630579017813525,0.7644490453135863,0.2295931421811613,12.464483025329816,-62.614802611616845,67.27036856700347
1760598239.8605688,5.611276758049554,0.4599437893752444,0.7659858135191925,0.2044774337670974,14.05509970221599,-50.28311935890007,66.12467981738331
1760598239.8705132,6.402520327493051,0.4443542797159418,0.7655023770522074,0.17672143329015008,14.756547208664735,-37.29174245911058,64.50672435002132
1760598239.8810236,7.1557476702412925,0.4206394763145849,0.7623552907481798,0.1496507292645903,14.904218656654884,-24.247604309094285,62.47280075234355
1760598239.8905702,7.86773906447014,0.3938381229224543,0.7561450541206436,0.12641392290393277,14.801868523689832,-11.661278674166864,60.13267927654306
1760598239.900537,8.538796600656713,0.36899215262482354,0.7468117056203862,0.10959006094578358,14.696508706201636,0.08471767538199133,57.629288429398805
1760598239.9105513,9.172440027071309,0.35046202622343087,0.7347235368695862,0.1009006266481537,14.76518325959863,10.747262965934217,55.11492637796719
1760598239.920512,9.774659164233547,0.3413492659375513,0.7207416742498693,0.10106792575505737,15.1130262737633,20.214749689611935,52.72763983642261
1760598239.9304965,10.352843625154037,0.3431144697230691,0.7062372401139666,0.10983712317387433,15.780294101254107,28.483666002939398,50.57105308223317
1760598239.9405077,10.914551588171676,0.3554411404569182,0.6930346684261494,0.12614739785584345,16.755069486945327,35.6251349348045,48.70023635070048
1760598239.9505012,11.46629342886304,0.37635179987431333,0.6832615112104103,0.14840766676527475,17.988167309801096,41.74768251850265,47.1152311446608
1760598239.9605064,12.012494479010648,0.40254438808158943,0.6791046051124556,0.17481540571708368,19.40733028914924,46.9621284776928,45.7626909161133
1760598239.970537,12.554768045873724,0.4298870283560755,0.6824978194264766,0.2036571135782793,20.928815226522108,51.35314153164484,44.544935367682456
1760598239.9805305,13.091581621405854,0.4539916475177349,0.6947867033409888,0.23353889910097037,22.46556333228348,54.96014354280571,43.33474868912628
1760598239.990504,13.6183447090751,0.4707871849567115,0.7164251254359659,0.2635070270148873,23.932031953437615,57.768440317343824,41.99358591251092
1760598240.000511,14.127893941333182,0.47702677131085025,0.7467584374752889,0.2930339557714522,25.24643412004157,59.71002976131707,40.39053376142104
1760598240.0105097,14.61130520285507,0.47067847993459305,0.7839368758313645,0.3218748014897162,26.33173498438832,60.67253014917128,38.41942386423864
1760598240.0205054,15.05892628089055,0.45116369952311036,0.8249852733088882,0.34983738441336465,27.117206951815607,60.51407631294302,36.01186999620792
1760598240.030494,15.461499256475076,0.41942737333642605,0.8660383917023617,0.37653437290285896,27.542297481520833,59.08188869865725,33.144568522859025
1760598240.0404887,15.81123089612832,0.3778491749490393,0.9027389825632501,0.40118413645061857,27.563804240372246,56.2324585999716,29.839872582772937
1760598240.0505166,16.102673235870387,0.33002383116950595,0.9307833304994984,0.42250574054558254,27.166075158760414,51.85173271196944,26.15946773732972
1760598240.0621266,16.333296960084837,0.28044565839814406,0.9465783653081036,0.43873018276494974,26.372611757267162,45.87422138144441,22.191996054519723
1760598240.0715826,16.503676523445808,0.2341283729821585,0.9479397613693565,0.44773264975619126,25.25650286889066,38.3005585695709,18.036563266686983
1760598240.08084,16.61725454143111,0.19618198476893386,0.9347140286040102,0.4472768276392725,23.946828721760067,29.2135221377517,13.784880529831273
1760598240.0905304,16.679708717229534,0.17136214255554946,0.9091698473281762,0.435346927967399,22.628591292037562,18.792577333490634,9.505026790822368
1760598240.1005206,16.6980012775482,0.1636096127372272,0.8760143132017242,0.41052478296621425,21.534673678600896,7.326494767019186,5.229423094980468
1760598240.1105227,16.67923893010594,0.17560595504221999,0.8419709336496258,0.3723529549923433,20.929522311057973,-4.7773384079407375,0.9488009966512524
1760598240.1205378,16.629498705525027,0.20837813303151279,0.8149713930354723,0.3216171232285061,21.08539910343189,-16.989376049510103,-3.3869991137379536
1760598240.1304908,16.552774117709642,0.26098731738555364,0.8030936347013544,0.2604855954045469,22.25299078748455,-28.66356716861062,-7.861485843834832
1760598240.1405013,16.450170408004137,0.33034019651772517,0.8133980615940293,0.1924612699102488,24.62887144157826,-39.056167052709654,-12.578173097978011
1760598240.1504786,16.319439945747074,0.4111668077524608,0.8508007144123267,0.12213018393108102,28.32289124587782,-47.361310006396394,-17.64310831297288
1760598240.1605828,16.15491062244857,0.49620960752856635,0.9171109459003026,0.05472443470277736,33.329101013833686,-52.76530637591834,-23.145412055518012
1760598240.17049,15.94782447751553,0.5766547683172102,1.010358694590831,-0.004453600671353002,39.50427654834171,-54.518727340295406,-29.13807831859669
1760598240.1804967,15.687069402652806,0.6428100939436993,1.124534284171331,-0.050677899647500656,46.5582760846399,-52.02173360939818,-35.621117349153245
1760598240.190538,15.360253831838861,0.6850033203418369,1.2498507564466548,-0.08043232697352377,54.06005880787671,-44.91451281700512,-42.52884564737387
1760598240.2004845,14.955044565452711,0.6946425028294598,1.3736022881800982,-0.0919357559616937,61.46198769839115,-33.16165852847233,-49.72286172476842
1760598240.211056,14.46066154337901,0.6653448726919491,1.4816183586264093,-0.08546593539801978,68.14302431381833,-17.117263716517684,-56.992040048744585
1760598240.22049,13.86939977587067,0.5940055933204612,1.5601977429923122,-0.06341388295812918,73.46879507424742,2.443072136726022,-64.06066946930663
1760598240.2304707,13.178028688232363,0.48164912285977424,1.5982659486391364,-0.030044366650885182,76.86352653125437,24.335625710454675,-70.6054161155821
1760598240.240493,12.388906557536119,0.33388758152420084,1.589372493571478,0.009009897839551074,77.88578481408261,47.0356268399004,-76.28082591555935
1760598240.25049,11.51064844653359,0.16081277663019547,1.53308153888294,0.04744439867537211,76.29728174738932,68.79966548394509,-80.75160733577616
