timestamp,angle,linear_acceleration_x,linear_acceleration_y,linear_acceleration_z,angular_velocity_x,angular_velocity_y,angular_velocity_z
1760957749.9258237,-0.8563239648797607,-0.014478665715880206,0.9850605835311745,0.02125749829586285,-0.9191050821888972,0.5711342888810724,0.015330034218468439
1760957749.9359114,-0.8553038965757142,-0.014413144940331385,0.98561000257671,0.020620230205337986,-1.021889914156219,0.5504164199346097,0.025864100160183815
1760957749.9454727,-0.8535156009642388,-0.014151159751169307,0.9860591951884716,0.02010228270571087,-1.125781031610798,0.521134683697023,0.0374343462891513
1760957749.9554968,-0.8505819022532658,-0.013742059513723716,0.9863317099447134,0.019726251195617918,-1.2284978754660227,0.48963156744981634,0.04942286894247846
1760957749.9656916,-0.8464020400381258,-0.01327550723218148,0.9863786287034607,0.019515472292858233,-1.3282098972603158,0.4628727959522881,0.060702899335856875
1760957749.9756126,-0.8412281761256708,-0.012872332323357685,0.9861887833287593,0.01949026217839094,-1.423872630139278,0.44729920173167453,0.06962949847912048
1760957749.9856737,-0.8356938176729571,-0.012668724297473177,0.9857907138968466,0.01966186542823486,-1.515469401807906,0.4475829972492281,0.07414487701634345
1760957749.9957676,-0.8307802612030267,-0.01279476566029211,0.9852450304301801,0.02002646940981379,-1.6040925858772455,0.46549088134652317,0.0719980355585972
1760957750.0055585,-0.8277145755187927,-0.013349719134375724,0.9846284132044488,0.020561859156998433,-1.6918241475225864,0.49906267726810244,0.061052696126476215
1760957750.0155358,-0.8278063360066699,-0.014378867823712676,0.9840136675947903,0.02122837594397484,-1.7814147004995697,0.5422755766021138,0.039634028739553816
1760957750.0254936,-0.8322477059944237,-0.015858259323537228,0.9834521151740689,0.02197429461824183,-1.8758044008842312,0.5852881717059941,0.006851581910145616
1760957750.0356956,-0.841914990839173,-0.01769258859158512,0.9829638439569436,0.022744275891803598,-1.9775676448252848,0.6152633018749276,-0.037161396647350055
1760957750.0455334,-0.8572126849347612,-0.019727818548812483,0.9825383989114329,0.023488765677505914,-2.0883858420249566,0.6176753409665549,-0.09113496372979174
1760957750.0556903,-0.8779920002855295,-0.021775856261095797,0.9821448698980165,0.024172270295047444,-2.208651455718846,0.5779318702681627,-0.15269518154972908
1760957750.0655653,-0.9035586930121822,-0.0236454952313316,0.9817473633227022,0.02477903264489355,-2.337283650859711,0.48308952692364937,-0.2185410063689055
1760957750.0756521,-0.9327654647607209,-0.02517270085957304,0.9813204402839268,0.02531532465493309,-2.4717992609650232,0.3234238677559435,-0.2847483829001353
1760957750.0856566,-0.9641677488406061,-0.02624415507790302,0.980859807916719,0.025808143520781073,-2.608640970471211,0.09362942730636543,-0.3471717845520649
1760957750.0955,-0.996212060028211,-0.026810268700275926,0.9803859226471987,0.02630053145858065,-2.7437241861900317,-0.2065180256532445,-0.4019013891778733
1760957750.1056612,-1.0274244099357053,-0.026886682498847323,0.9799407481761365,0.02684399095190619,-2.873129174624309,-0.5721162275834756,-0.44572527089632147
1760957750.1155646,-1.056570917459615,-0.026545590635328353,0.9795794894020675,0.027488580673402332,-2.9938378514021147,-0.9936814738529611,-0.4765437200445375
1760957750.1255364,-1.0827706626167983,-0.0258995094653421,0.9793595805793001,0.028271480811848593,-3.104398226901984,-1.4581556224724328,-0.49368698177317416
1760957750.1357083,-1.1055499542509077,-0.02508068887108823,0.9793291271159772,0.029205312703052554,-3.2054000646873555,-1.9501732374458793,-0.4980964607883637
1760957750.1455686,-1.124836990505616,-0.02421976546839768,0.9795168937431309,0.030268196775387918,-3.299668003168619,-2.453361729624756,-0.4923422108912685
1760957750.1556392,-1.1409056106674074,-0.023427359360136603,0.9799257698830979,0.03139801342228477,-3.3921215213047287,-2.951475872088435,-0.4804663948653833
1760957750.1655087,-1.154284672807574,-0.022781714190736775,0.9805312028630273,0.03249309605998016,-3.4893059800136825,-3.4292414357886893,-0.4676618622483751
1760957750.175627,-1.1656545436195123,-0.02232445822563989,0.9812855622087856,0.03342048631625472,-3.5986534728649966,-3.8728824413949816,-0.4598134345246298
1760957750.1854541,-1.1757541448120867,-0.022065448598277505,0.9821287897779323,0.03403127437915617,-3.7275730171053647,-4.270404993822043,-0.46294277117098914
1760957750.1954613,-1.185319264143456,-0.02199583398577778,0.9830041655744642,0.03418101197808944,-3.882485881502182,-4.611775876111305,-0.48260377556021355
1760957750.20545,-1.1950628886125207,-0.022105599328168815,0.9838753344551058,0.03375218042684942,-4.067912813198696,-4.889146155295514,-0.5232754323913669
1760957750.215478,-1.2056924924165418,-0.022399416183289302,0.9847386271078563,0.03267542053802656,-4.285696927771136,-5.097231369634038,-0.5877953264446715
1760957750.2259774,-1.2179442653544776,-0.02290474760216747,0.9856253696269125,0.030946620169777873,-4.5344229488140115,-5.23388690860744,-0.6768727039353606
1760957750.2355576,-1.232607882084783,-0.023669303061111882,0.9865925129597254,0.028637774807410737,-4.809076625660629,-5.300828346055811,-0.7887182120265647
1760957750.245634,-1.2505202769920944,-0.024749247066778203,0.9877044210139706,0.025900542791637428,-5.100977875180889,-5.304360461125908,-0.9188318016078543
1760957750.2555444,-1.2725187702124425,-0.026192349973406602,0.9890114707843488,0.02296236872213466,-5.398017788409441,-5.2559170843298695,-1.0600008868599788
1760957750.265492,-1.2993555536455341,-0.02802031399727616,0.9905312453804985,0.02011562713738031,-5.685230627884176,-5.172195790955659,-1.2025712449689745
1760957750.2756512,-1.3315828020937623,-0.030212954957595694,0.9922364716321533,0.01770034344234711,-5.945726710813307,-5.074702779772162,-1.3350507395291549
1760957750.2856138,-1.369421286947035,-0.03269570442070842,0.9940519594850195,0.016081189858601515,-6.161987062786367,-4.988593527627628,-1.4450783551225774
1760957750.295717,-1.412627894316525,-0.0353317385404544,0.9958613415762538,0.015620212747508048,-6.31747140084166,-4.94078661756528,-1.5207347578166015
1760957750.3055706,-1.460379880991149,-0.03792030841577788,0.9975231050203255,0.01664780908265202,-6.398426190792623,-4.957429928143815,-1.552095415145017
1760957750.315398,-1.511195163061503,-0.04020273432282536,0.998893653360409,0.019434915148674275,-6.395715098482322,-5.060904774616405,-1.5328526926852915
1760957750.3255906,-1.5629073803225455,-0.04187690200259904,0.9998529862278434,0.024168921718898194,-6.3064459721254735,-5.266655160805638,-1.4617813749562671
1760957750.335483,-1.6127120083003041,-0.04262041850307915,1.0003271951374593,0.030935096752485763,-6.1351492972011314,-5.580208338110276,-1.3438110721143346
1760957750.3457124,-1.657295853477172,-0.042122018789591056,1.0003026063606304,0.03970482190065501,-5.89428055508439,-5.994790670332896,-1.190507906638886
1760957750.3556304,-1.6930558858846398,-0.04011972852048573,0.9998289180406762,0.0503316140195523,-5.603875291707615,-6.489927392708955,-1.0198525023455365
1760957750.3656719,-1.7164027043240115,-0.036442212942465746,0.9990117404088718,0.06255533798748611,-5.290279233642233,-7.03134171554396,-0.8553148564739177
1760957750.3758197,-1.7241294084753553,-0.03104753969175783,0.997997446206926,0.07601422220714169,-4.984000869795009,-7.572339051419474,-0.7243448911855481
1760957750.3856933,-1.7138121233488908,-0.024052755920200376,0.9969546640371562,0.09026365946226649,-4.716877510292143,-8.056685447548098,-0.6564960047453993
1760957750.3955088,-1.684198555207031,-0.01574874943666452,0.9960566941743075,0.10480058079766073,-4.518882176367207,-8.422789271979143,-0.6814589547076236
1760957750.4055026,-1.635538097618128,-0.006597073640630293,0.9954675005253362,0.11909219652198856,-4.414989823800079,-8.608808924173147,-0.8272920850240308
1760957750.415521,-1.5698104726805893,0.00279231208629768,0.995331491260054,0.13260770196149857,-4.42253247046499,-8.558172336566782,-1.1190835662652734
1760957750.425529,-1.4908173538903489,0.011701700296302577,0.9957653154854827,0.14485113536366626,-4.549393618033639,-8.224922990491883,-1.5781724619343531
1760957750.4354951,-1.4041107380152433,0.019362755450601444,0.9968491450232394,0.15539322816011847,-4.79324366706445,-7.578301751567727,-2.221901165537912
1760957750.445573,-1.3167427913431506,0.025026731390663932,0.9986152547189205,0.16389982450047655,-5.141839176849352,-6.606033394241399,-3.0637013334342065
1760957750.4556575,-1.2368375785127728,0.02804166497812523,1.001032939193324,0.17015410560926345,-5.574245651995379,-5.315917629252497,-4.113181656155852
1760957750.4657683,-1.1730103593276489,0.02792584509716124,1.0039911053408161,0.17406968223792824,-6.062741652310594,-3.7355314803838238,-5.375863323619446
1760957750.475501,-1.13369464011321,0.02442267155289509,1.0072827761252663,0.17569229882444584,-6.575148735750361,-1.9101170138362535,-6.852350847990468
1760957750.4854934,-1.1264691671851619,0.01752266806387277,1.0105973775234194,0.17518978848095781,-7.07738714152699,0.10100166674455509,-8.536995198915237
1760957750.4955015,-1.1574891657370576,0.00744597657491762,1.0135256476154535,0.1728324229829319,-7.5361144460916325,2.228942182338247,-10.416373107011692
1760957750.5056624,-1.2311093873936358,-0.005410221818212859,1.015579234139655,0.168967594661102,-7.921305785744059,4.400149817799879,-12.468044694140591
1760957750.5155208,-1.3497468356015196,-0.02054593993673284,1.0162249334255318,0.16399276954620715,-8.208589568355606,6.541128907045604,-14.660030800900866
1760957750.5255656,-1.5139825325248586,-0.037437026306596434,1.0149333143157093,0.1583289168715186,-8.38112120177089,8.582601638329145,-16.951317280216312
1760957750.535697,-1.7228571610158987,-0.055601675589700986,1.0112413761617018,0.1523946692193512,-8.43079081748128,10.46277249292091,-19.293491457000094
1760957750.5458543,-1.9742832087553486,-0.0746419453653672,1.0048254942599038,0.14658143474638755,-8.358602095054616,12.12949409247454,-21.633377601873846
1760957750.5555196,-2.2654818237676317,-0.09425310481501423,0.995573492987544,0.1412317045954167,-8.17412101802109,13.541295426791885,-23.916316331116978
1760957750.5657542,-2.5933581271784933,-0.11420035518416487,0.9836374466999412,0.13662362316724705,-7.893999323004627,14.667419124455478,-26.08959182331537
1760957750.5755708,-2.9547521086723436,-0.13426995732666192,0.9694481375989253,0.13296191046374398,-7.53972802574926,15.487170039294229,-28.105487298128697
1760957750.585527,-3.34653919267185,-0.15421046793424129,0.9536809308075794,0.13037121663032772,-7.134928775695538,15.988965632073525,-29.92354135082694
1760957750.5954752,-3.765598514065276,-0.17368644911969447,0.9371770078103261,0.12888810991815539,-6.702596296065158,16.169458060123894,-31.511755886972704
1760957750.605504,-4.208705444013975,-0.19226562383624038,0.9208366861617071,0.12845300004623972,-6.2627292720125025,16.03293571691864,-32.84672700443008
1760957750.615563,-4.672422653090108,-0.20944973776574,0.9055098700468712,0.12890890226489876,-5.830710760088834,15.590949310593759,-33.9128901753679
1760957750.6256406,-5.153052647460901,-0.2247438282546499,0.8919098811547089,0.13001480526042428,-5.416627307339627,14.861877927995133,-34.701250135212554
1760957750.6355226,-5.6466793298861235,-0.23774356628575216,0.8805666815830655,0.13147629947558417,-5.025480893688341,13.87009619518443,-35.20805591498157
1760957750.645627,-6.14928354568719,-0.24821179491018544,0.8718166501898503,0.13298862854439641,-4.65802741191261,12.644551378208085,-35.43383453363352
1760957750.655564,-6.656887273896569,-0.25611832470500345,0.8658109941444522,0.1342820172149388,-4.311881042107265,11.216798128827422,-35.38300695170377
1760957750.6655536,-7.165674082444141,-0.26163055218625975,0.8625238616418485,0.1351582929122387,-3.982589423473068,9.618751547493591,-35.06404464841671
1760957750.6754723,-7.6720483524656595,-0.26506017493565265,0.8617537147091888,0.1355114126549074,-3.664505939425688,7.8805788321609045,-34.489899486362795
1760957750.685528,-8.172623333992673,-0.2667854696137721,0.8631273179435061,0.13533051570948415,-3.351362183627421,6.029234875963156,-33.67834871214839
1760957750.695561,-8.664156414402846,-0.2671737173265716,0.8661221023569288,0.13468909401693552,-3.036509340564881,4.088074691326632,-32.65196165311037
1760957750.7054956,-9.143469042843407,-0.2665244180711522,0.8701152339964415,0.13372539829338362,-2.712911315640735,2.077715275755732,-31.437556764156422
1760957750.7155676,-9.607394378962923,-0.2650454581134944,0.8744545713757135,0.13261803300588704,-2.373074661035554,0.01799072870411402,-30.065192820078714
1760957750.725777,-10.05278947868358,-0.2628651154405866,0.8785385942346682,0.1315594910794277,-2.0090946230074453,-2.069400288452816,-28.56686827375081
1760957750.735831,-10.476634189527214,-0.26007392755257247,0.8818912667749492,0.13073045044559625,-1.6129074943565231,-4.1580838665508555,-26.975160185839727
1760957750.7456467,-10.876218508901657,-0.2567827419251007,0.8842190628814492,0.1302778779644174,-1.1767617093485976,-6.214626440899944,-25.32201108710496
1760957750.755742,-11.249396091819273,-0.25317806849849694,0.8854393524233156,0.1302989935445351,-0.6938744531735543,-8.197156898328204,-23.63778536841329
1760957750.765656,-11.594857734730889,-0.2495549402740924,0.8856739131620287,0.13083128510965072,-0.15919169341646672,-10.055447031457723,-21.950594512964226
1760957750.7755542,-11.91236149170443,-0.246312172640073,0.8852076292354081,0.13184757649100257,0.42987770707360445,-11.732654205088668,-20.285758477163768
1760957750.7857187,-12.202852567952592,-0.24390465735629752,0.884417351869795,0.13325594495904186,1.0729074692276561,-13.168619957103694,-18.665172971523113
1760957750.7955787,-12.468420291632926,-0.24275969350785356,0.8836798154719533,0.1349068240202978,1.7662433068628485,-14.304309813430068,-17.106357650444384
1760957750.8055544,-12.712070806422387,-0.24317655512082406,0.8832734047111886,0.13661153938264856,2.5032795191378905,-15.086749520343577,-15.621106608881256
1760957750.81573,-12.937337809440654,-0.2452379394050193,0.8832963769809415,0.13817506814883848,3.2752483692822527,-15.473755135099077,-14.213907542528796
1760957750.8256469,-13.147799199118118,-0.2487645848433711,0.883628859460193,0.13944053251490446,4.072334584126087,-15.43789652457059,-12.880535168428466
1760957750.8355806,-13.346598558858974,-0.2533351822282957,0.8839600225496794,0.14033599519326054,4.884745300168756,-14.969368944750745,-11.60734865757029
1760957750.8455174,-13.536071671351378,-0.2583724995139728,0.8838814566278446,0.14090887331305801,5.703355950075763,-14.077615793937186,-10.371759060985868
1760957750.8554962,-13.717545709095015,-0.26327170208174566,0.8830201107026038,0.1413330430622311,6.519741304525637,-12.791584430821246,-9.144076583112078
1760957750.8655722,-13.89132308654696,-0.2675298936817437,0.8811648012161563,0.1418798337520289,7.325704015717524,-11.158472897545789,-7.890579854558014
1760957750.8758187,-14.056804251205493,-0.2708347483915163,0.8783407431468122,0.14285442108631732,8.11270178007752,-9.240846639571659,-6.577301976841915
1760957750.8857534,-14.212668060068024,-0.2730864855595648,0.8748068780026357,0.14450969920860157,8.871706924892564,-7.112146114690925,-5.17382302259014
1760957750.8955283,-14.35703161575002,-0.27435609954813805,0.870982420173511,0.1469578034696109,9.593900491803462,-4.850884728110384,-3.656370637391562
1760957750.905408,-14.487551171817124,-0.27481009552796387,0.8673380681568694,0.15010294156658346,10.27222193857775,-2.5341877129332318,-2.0097631138574275
1760957750.9154377,-14.601478569952185,-0.27464212953046013,0.8642984870255362,0.15361561973089577,10.903339643966179,-0.23160800751688917,-0.22809617341385668
1760957750.9257567,-14.695724435588124,-0.2740400224391461,0.862190375390391,0.15695785727528866,11.489321275939545,1.999770677108814,1.6855738373895386
1760957750.935451,-14.76698493928227,-0.27319339381454455,0.8612453535116587,0.1594559503765583,12.038327487929507,4.1181319612718665,3.7200927215040296
1760957750.9454784,-14.811967129120779,-0.2723274649651741,0.8616451794287782,0.16040643941490215,12.563998453183261,6.097221250701314,5.857149705100495
1760957750.9558015,-14.827710971217211,-0.27173883877293104,0.8635851991019792,0.15919348028962807,13.083660336143717,7.9242061669116906,8.071984563385804
1760957750.9658167,-14.811967337701807,-0.2718087189410697,0.8673285249258869,0.15539262047941566,13.615836499705752,9.595588267592698,10.33379030908136
1760957750.9755812,-14.763564137377822,-0.27297741928588587,0.8732270740310782,0.14884050539510388,14.17768633735514,11.111932923384098,12.605969071258839
1760957750.9855032,-14.682688573276106,-0.2756794510403365,0.8816973756004999,0.1396628831076923,14.78288703620979,12.472288675250704,14.8465225847499
1760957750.9955256,-14.571031389492088,-0.2802541436159525,0.8931555211947335,0.12826614976566436,15.440169854267628,13.669090013492852,17.008847042821426
1760957751.0054803,-14.431766402531515,-0.28685402488132716,0.9079267084215412,0.1153015559849976,16.152368505619386,14.684148059892916,19.043086517865063
1760957751.0155995,-14.26936248755403,-0.2953697700316002,0.9261438137854168,0.10160791437782306,16.915621442748336,15.486151623215152,20.898038473421714
1760957751.0256767,-14.089241048359504,-0.3053828309021752,0.9476436584323349,0.08813651427744806,17.718382324406633,16.02999605733851,22.523451250400193
1760957751.0355327,-13.89730335086765,-0.3161527512019562,0.9718727172313388,0.07586378223861516,18.54008197916697,16.258199536667885,23.872440288406633
1760957751.0454786,-13.69936372412312,-0.32664554732602363,0.997826239645212,0.06569891384524708,19.349555493891533,16.10458581774307,24.9036990365668
1760957751.0555637,-13.50053687725773,-0.33560443757299957,1.0240509303799175,0.058391272392376285,20.10364453662772,15.500269287552037,25.583223329563882
1760957751.0655143,-13.304636486676635,-0.3416504615194987,1.0487307874024903,0.05443742078964846,20.74669068046628,14.381777585765649,25.88545371917665
1760957751.0757487,-13.11364464252213,-0.34338734253326497,1.0698552953948905,0.05398664087545208,21.211911789412092,12.700920598771948,25.794080508953222
1760957751.0856004,-12.927309005103062,-0.3394881389348219,1.085452985635224,0.056751340461599784,21.425751961682547,10.435774119807583,25.303131933126824
1760957751.0956345,-12.742920480192485,-0.3287641725421639,1.0938647569386988,0.06194268118494024,21.315971695977236,7.6018548405081665,24.41912700649367
1760957751.1056204,-12.55532120185393,-0.31024218902185646,1.0940221003417567,0.06826487845020156,20.82336015540285,4.262184927634235,23.164782862102115
1760957751.1159754,-12.357188934344563,-0.2832820099989438,1.0856826701163196,0.07400469697395577,19.915658708417045,0.5345338520436321,21.583970857248833
1760957751.1256552,-12.13963311825341,-0.24774751064066244,1.069569764910184,0.07723645535425804,18.600994401483707,-3.4061556703704974,19.746546915485556
1760957751.1355882,-11.893109259215315,-0.20420752669271247,1.047372649804026,0.07612577189353063,16.93732793651819,-7.332117044636714,17.750823884905586
1760957751.1455114,-11.60860365402267,-0.15410613079845675,1.0215887799842804,0.06927180593649535,15.034537834966022,-10.9753747721256,15.721362413469238
1760957751.1555717,-11.278963030596321,-0.09982259611728658,0.9952193510952924,0.05600183970553638,13.046994314540516,-14.049127463943144,13.80073710187123
1760957751.1655543,-10.90016616276229,-0.04455599559428426,0.9713608285581683,0.036538340230572494,11.156678519473312,-16.276829031825685,12.135755554828883
1760957751.175639,-10.47229345217165,0.007981840562161497,0.9527609779607479,0.011993453188039993,9.54946967532544,-17.42589306981042,10.860518743725832
1760957751.1856453,-9.999975857668318,0.054018476561176074,0.9414198108780695,-0.015805610137407663,8.38920285741934,-17.341083306347993,10.079856151266524
1760957751.195485,-9.492197596901903,0.09022441569009666,0.9383084921611063,-0.04461224213411705,7.7946765352434495,-15.97172956381809,9.856608775057712
1760957751.2054272,-8.961457604351542,0.11416235482682298,0.9432550743659757,-0.07210464130545334,7.823817034938024,-13.387429326738424,10.205128972828618
1760957751.2155135,-8.422420483565876,0.1245985900452814,0.9550124898389687,-0.09620866765535482,8.467280386676059,-9.778763298366073,11.091756045917322
1760957751.2255592,-7.890275523996218,0.12163313315757264,0.9714890456105966,-0.11535032811068813,9.651727211500587,-5.442193216631959,12.441484094824254
1760957751.2357912,-7.379058383122929,0.10664504786231781,0.990091016704163,-0.12861124651276895,11.25137504877148,-0.7510265106121659,14.148953163912442
1760957751.2457402,-6.900178032365214,0.08207866895238654,1.0081083885311237,-0.13577677267529112,13.105350940828915,3.883434593214147,16.091411977077335
1760957751.2556543,-6.461343984254587,0.05111369869479474,1.0230754176555348,-0.1372809713408762,15.037825131632584,8.055079375248575,18.1413842919147
1760957751.2654946,-6.0660183802232375,0.017271076237726696,1.0330561125901085,-0.13406914887435492,16.877887979070326,11.404735336678991,20.177278128510743
1760957751.2754855,-5.713435445291208,-0.015990897892637104,1.036829601912882,-0.12741264925474255,18.47656040725942,13.655396148601406,22.09089736314655
1760957751.2854674,-5.399148727140218,-0.04563906063642207,1.0339704691758285,-0.11871557838773165,19.719054235415147,14.637219460688128,23.791540067329546
1760957751.295515,-5.115996994975338,-0.06934486046318597,1.0248318048319294,-0.10934558807245001,20.53128487385159,14.300244737287318,25.206985751439916
1760957751.3055508,-4.855334505908028,-0.08565534877446197,1.0104466941933132,-0.10050467599348094,20.88059754743471,12.71443430825497,26.282165899091044
1760957751.3154507,-4.608357140031086,-0.09405128785161194,0.9923690170224946,-0.09314125880581262,20.771597047398238,10.058074965949926,26.976652711853877
1760957751.3255436,-4.367368870555815,-0.09490678514624164,0.9724767745642826,-0.08789927080409442,20.238692837831366,6.5966497515195375,27.26220874815093
1760957751.3354938,-4.126860513022282,-0.08937386849936704,0.9527607389790829,-0.08510187692141645,19.337290060551986,2.65491839002528,27.121448348225442
1760957751.345499,-3.8843021035092997,-0.07921387851350518,0.9351184988567867,-0.08476952645980952,18.135388288161558,-1.414856924901585,26.54820144997122
1760957751.355735,-3.6405763125422324,-0.06659115015133872,0.9211694099898559,-0.0866704342228349,16.70679051614457,-5.265705596610952,25.54957158387985
1760957751.3655038,-3.4000048727475427,-0.0538394737238589,0.9121009170525471,-0.09039669906108251,15.126403630202136,-8.587151919034389,24.149112365428703
1760957751.3755295,-3.1699480751382674,-0.043211963219946796,0.9085539877591737,-0.09545365190416331,13.46747459567742,-11.132451299219433,22.39016202993398
1760957751.385681,-2.959993707348097,-0.0366313201781977,0.9105576682322246,-0.10134626724625082,11.80020976409988,-12.739724213481336,20.338259300546657
1760957751.3957617,-2.7807974472872945,-0.03546714815623295,0.9175284927521941,-0.10764670226021582,10.19108701557844,-13.345180530802422,18.081706000870508
1760957751.4055207,-2.6426855119818353,-0.040371863434084325,0.9283505638790936,-0.11403221292079123,8.702217289168187,-12.987143524592222,15.729654660756413
1760957751.4156146,-2.554170504902703,-0.05119997560599845,0.9415372098053375,-0.12029150453880243,7.390265518146179,-11.80032603206779,13.407482216704496
1760957751.425495,-2.5205531983456058,-0.06701997534695918,0.9554498718285561,-0.12630640310201238,6.304664706765733,-10.000714652256141,11.249602657864461
1760957751.4355922,-2.5427834945947865,-0.08621327505254996,0.968531003218352,-0.13202097664383475,5.485129998995589,-7.86235526719058,9.390245942398671
1760957751.4454846,-2.6167345525369323,-0.1066460438591686,0.979505655907988,-0.13741057282197947,4.95876335581399,-5.6881738546640435,7.9530547625421795
1760957751.4555025,-2.733007413994145,-0.12589592908983618,0.9875178468837398,-0.1424597469121894,4.737275072710316,-3.777612491289439,7.04057047015678
1760957751.4654717,-2.877331009259956,-0.1415129704255108,0.9921851902414613,-0.14715277178585318,4.814966664246571,-2.3942697282312704,6.72474970886732
1760957751.4756842,-3.031555327057473,-0.15129031193604922,0.9935737528292078,-0.15147501984549838,5.168057952776848,-1.736893348009601,7.0395626324080895
1760957751.485501,-3.1751581831172078,-0.15351623909158058,0.992111269687635,-0.15541935133054363,5.755686920644303,-1.916935865471872,7.976495295996023
1760957751.4955597,-3.2871101552900273,-0.14717779364405006,0.988466943809457,-0.15899038344011834,6.522545461398856,-2.9453680047123445,9.483472879598088
1760957751.5056174,-3.3478848977022966,-0.13209049027446756,0.9834265737841781,-0.16220193907941124,7.4027882274489345,-4.730509635964359,11.467412304606729
1760957751.515743,-3.341377267956601,-0.10893811680001078,0.9777830228563433,-0.16506750459114844,8.324686689798924,-7.087356118802232,13.800340205733985
1760957751.5256855,-3.2565036554616333,-0.07921840452322251,0.9722500437749463,-0.16758733386578356,9.215510431130925,-9.757452271395806,16.32875287964999
1760957751.5359976,-3.0883018775540516,-0.045101578916376985,0.9673993026670532,-0.16973725313295893,10.006224287996165,-12.437044573132864,18.885602117516076
1760957751.5455859,-2.8384119796688414,-0.009218118596370664,0.9636184350703672,-0.17146357552212405,10.635696863108194,-14.810234404299486,21.30394897238223
1760957751.5557017,-2.5148940622379494,0.025600664683869494,0.9610896791046084,-0.17268711829991834,11.054173980150884,-16.583303451388595,23.430991313896193
1760957751.5654588,-2.1314148416878593,0.05660072930534206,0.9597904568384873,-0.1733177620580838,11.225798041611451,-17.516336522964462,25.140954433523397
1760957751.5756588,-1.705902092894697,0.08137168174177607,0.9595169477545368,-0.1732788862181096,11.130004287852916,-17.448662262541017,26.345344956397177
1760957751.5857842,-1.2588198510001811,0.09807207318544474,0.9599291891123918,-0.17253816934828708,10.761732405723249,-16.315356397865283,26.999352112692655
1760957751.5955117,-0.811254621234227,0.10558826902682446,0.9606130953671462,-0.17113845862462632,10.130546529050951,-14.153037840338328,27.10370137283644
1760957751.6056983,-0.3830212563808031,0.10360924861116344,0.9611522303452692,-0.16922070713414786,9.258910724760712,-11.094387469077745,26.701910208642907
1760957751.6157258,0.009006856763961702,0.09261144116696693,0.9612000951798484,-0.16703094981343666,8.179957439090648,-7.352120822148891,25.873511226151493
1760957751.6257262,0.3521673009608802,0.07376161205119902,0.9605417939681309,-0.16490529234498943,6.935068239554455,-3.1943791861324584,24.724268886015633
1760957751.6356273,0.6387537805405021,0.04875817125387892,0.9591330260543713,-0.1632309789267797,5.571468058228742,1.0854848588797263,23.3746661670902
1760957751.6455996,0.8661828460593364,0.019638918178897815,0.9571061405910691,-0.16238720116100064,4.139881516664076,5.201067255345869,21.947984290904305
1760957751.6557803,1.0366068877419927,-0.011415202248019542,0.9547386596791207,-0.16267510303339378,2.692194528864102,8.903087054374712,20.55918552821233
1760957751.6656082,1.15607346468006,-0.04225509684193734,0.9523884090586764,-0.1642506592145686,1.2790504005616825,12.00387337617211,19.30558474531161
1760957751.6755767,1.2333901086432393,-0.07090100750188112,0.9504081710294296,-0.16707526556884478,-0.05262289872546329,14.393222921543007,18.260001435986766
1760957751.685618,1.2788851365540868,-0.09563801851837367,0.9490585640149914,-0.1708965715824639,-1.2620458174735927,16.043892975435533,17.46676478728227
1760957751.6957195,1.3032508831167078,-0.11507739800484391,0.9484396820079914,-0.1752670170972302,-2.3167639613187,17.006450214425023,16.940643007519196
1760957751.7057362,1.316615301680437,-0.12820036171752186,0.9484599334830817,-0.1796010066479973,-3.194309554091318,17.394656622756703,16.66850806341962
1760957751.7156246,1.3279199915816093,-0.13440079554674333,0.9488540406496447,-0.1832647503644541,-3.883154714206556,17.363808300872222,16.613336635956973
1760957751.72562,1.344605142207118,-0.1335306505522764,0.949251184339388,-0.1856854963378345,-4.382903234897137,17.0852875517147,16.720005285364685
1760957751.7358167,1.372537597957685,-0.12592954791369057,0.9492806474146155,-0.18645933506290513,-4.703784256221252,16.720978157668714,16.922279799775286
1760957751.7455,1.4160875141617975,-0.11240462547243699,0.9486908548831968,-0.185432916366612,-4.8655438319372255,16.40110365516374,17.150393341238733
1760957751.7555199,1.4782674471351225,-0.09413590531813991,0.9474544349641087,-0.1827400733924828,-4.895816449631562,16.208451012777196,17.338575380361732
1760957751.7655408,1.5608817708605873,-0.07251307672161876,0.9458379407849772,-0.17878809180680844,-4.828079919424515,16.17088110667256,17.431801727443858
1760957751.7756908,1.664672369473786,-0.048936838222089545,0.944424327579916,-0.17420041471558304,-4.699383417172403,16.26269165937669,17.390965188921527
1760957751.7856612,1.789471838404186,-0.02462564383664976,0.9440834890109524,-0.16972624864377173,-4.548140094051554,16.414074892945248,17.195737251033155
1760957751.795512,1.9343794347291863,-0.000463214319445166,0.9458912426817987,-0.16612576301895518,-4.412309355031345,16.526876613257496,16.844647303628353
1760957751.8055391,2.097957047291232,0.023085348188903693,0.9510026794309304,-0.164038822931122,-4.32822326136622,16.494269513896228,16.352272758608088
1760957751.8155453,2.278412801300455,0.04597024304569293,0.9604919771747162,-0.16384880009753153,-4.330185048312708,16.22176248465425,15.743794193295095
1760957751.8255608,2.4737194064034567,0.06846414363538184,0.9751761384567176,-0.16556021808845642,-4.450836906360416,15.64700398264517,15.047489192809941
1760957751.835509,2.681621281633246,0.09099993422700381,0.9954442616174577,-0.16871580290387989,-4.722125025736878,14.755952412860008,14.286072086433807
1760957751.8457806,2.8995184243954992,0.11397789421693785,1.0211175564983879,-0.17237931830211686,-5.176438335661627,13.593181991325356,13.468141738282736
1760957751.8557854,3.124256878037982,0.13758703479494847,1.051367437324371,-0.17520190384428544,-5.847244605944296,12.264504696390889,12.581247716193298
1760957751.8655598,3.351885064907205,0.16167769526542564,1.084716308707142,-0.17557318704591232,-6.768473207259878,10.930854613414436,11.588053021666862
1760957751.8756795,3.577444880497643,0.18570812295585043,1.1191349880123178,-0.17183974466944008,-7.972109034059947,9.79349730591004,10.426686049079628
1760957751.8855329,3.7948603678962662,0.2087721873558581,1.152232520348657,-0.1625581038568971,-9.483917392847419,9.07192295371032,9.01570020222953
1760957751.8956158,3.9969704347974733,0.22970010700284718,1.1815136223475315,-0.1467406201409809,-11.317767298524068,8.97701574046035,7.263237404818185
1760957751.905538,4.175727737437649,0.2472100655852384,1.2046639555415146,-0.12405122266637397,-13.469509188153129,9.683037447979697,5.079182360311989
1760957751.915631,4.322555939841746,0.26007887019521514,1.2198191998888848,-0.09491412191561029,-15.911669240182981,11.302409832924226,2.3884616669938783
1760957751.925676,4.428827563812772,0.26729723745951467,1.225779868376621,-0.06051159462574911,-18.590258539451717,13.867051309819068,-0.8566584121877339
1760957751.9356165,4.486401335997357,0.2681804809172221,1.2221459420272345,-0.02266530337278925,-21.424734328745586,17.319074190576945,-4.667275235479636
1760957751.945641,4.488146733194645,0.26241780872802917,1.2093598201692852,0.01638372949348212,-24.31163618737585,21.512127874966094,-9.012952235440041
1760957751.9556582,4.428388226832385,0.2500619263518535,1.188658742087695,0.05426231428266881,-27.131740247778716,26.22289839232488,-13.821721582782171
1760957751.9658992,4.303223340018001,0.2314802320731205,1.1619452379513566,0.08877162339920178,-29.759851415595534,31.17066931379672,-18.98459039605791
1760957751.9757576,4.1107007273125,0.2073000685754922,1.1315870996738557,0.11815958860079323,-32.07575734681699,36.041804103041926,-24.363520796085425
1760957751.9856727,3.850874027859767,0.17837550949589334,1.1001617497891745,0.1413095246780752,-33.97458143940554,40.515711772336715,-29.801572651491863
1760957751.9955034,3.525762124163562,0.14578341937133188,1.0701675014664978,0.15780961028452173,-35.37489963416904,44.28925769961751,-35.133901135458956
1760957752.0054817,3.139243178496514,0.11083241189644236,1.0437350659571742,0.16789231048724002,-36.22349528743494,47.09747531391651,-40.19847893559238
1760957752.0154977,2.696894855207608,0.07505282427688648,1.0223813622852016,0.1722637868607988,-36.49636468293103,48.72950765517648,-44.845668530187766
1760957752.0255225,2.2057777982789903,0.04013703077893884,1.00684770537556,0.17187195017889076,-36.1963440046245,49.03961281513469,-48.946049550378554
1760957752.0354874,1.674152519999572,0.007816055502097762,0.9970530182295706,0.16767663038367095,-35.34832183406401,47.953579574538544,-52.39619915726142
1760957752.0456135,1.1111237400716394,-0.020317819763792284,0.9921721011181842,0.16048009330816118,-33.993330089966776,45.471005408299646,-55.12240370064737
1760957752.0558164,0.5262184813591408,-0.043011157565312694,0.9908241200215173,0.1508539798064209,-32.18286710520417,41.66373035942778,-57.08248522972481
1760957752.0655425,-0.07107946215978472,-0.059528380202315996,0.9913339164206254,0.1391684076464374,-29.974632534865083,36.67048856031413,-58.266011693445115
1760957752.0755453,-0.6718007253910093,-0.06976624467377447,0.9920154350508938,0.12569977662972523,-27.43045182643793,30.68770189686916,-58.69313157274045
1760957752.0855095,-1.2679191871407014,-0.07427250033603025,0.9914255781281581,0.11077337670417994,-24.616547597202022,23.956419393563557,-58.412170967453946
1760957752.0958571,-1.852687435888202,-0.07415644165066847,0.9885458752560369,0.09488930620909893,-21.605575114095867,16.745762046269714,-57.495998595686615
1760957752.1058338,-2.4208323113076142,-0.07090011252541427,0.9828651661840551,0.0787858483692179,-18.47917808311247,9.333820432294905,-56.03705303782334
1760957752.1155279,-2.9685761829935333,-0.06609970989943635,0.9743573380552101,0.063412311838455,-15.329453820711294,1.9876195339543825,-54.14091221720546
1760957752.1257699,-3.49347103227948,-0.06118463057231516,0.9633720959604598,0.04981134893607617,-12.257794299462118,-5.055670183983176,-51.91845732852389
1760957752.1355977,-3.9940627553429713,-0.05717184821886846,0.9504792551609565,0.03894241281517986,-9.370144356827787,-11.603799457002513,-49.477083334094196
1760957752.1455674,-4.469438659625111,-0.05451161834751597,0.9363197787301817,0.03150100906579263,-6.768701820643302,-17.518444716405867,-46.91194542422009
1760957752.1556783,-4.918744244352216,-0.05306471814115189,0.9215097803031712,0.0277908912088563,-4.541203376956798,-22.716529209519162,-44.298671107933494
1760957752.165508,-5.340775385830468,-0.05222138832759748,0.9066149871949221,0.027686513521920735,-2.7498138966854193,-27.163557229527463,-41.68905397802838
1760957752.1755888,-5.733749025418997,-0.05113368629054568,0.8921768778088194,0.03069131729812268,-1.4219703532258612,-30.860320576042664,-39.110857167217944
1760957752.1856751,-6.095325867581396,-0.04900048242513627,0.8787500250767053,0.03606831214732511,-0.5452389985883517,-33.82585701210044,-36.57205197870856
1760957752.1956553,-6.4229081319510115,-0.04533238397164949,0.8669142311770045,0.04300252529039477,-0.0674322566031508,-36.08042616792846,-34.06879820812709
1760957752.2056658,-6.714177025869528,-0.04013628923070382,0.8572469928055442,0.05075295715606463,0.0978576971194165,-37.63223394755984,-31.59553322240254
1760957752.2157605,-6.967783510366115,-0.033987853668064685,0.8502647287400872,0.05876218525396919,0.061198158488421514,-38.470699697647916,-29.154989244183593
1760957752.2255344,-7.18407277913343,-0.027990155937521584,0.8463528098794965,0.06670845425038464,-0.055661944592096786,-38.56752236044684,-26.76599390943623
1760957752.2357588,-7.365710246630733,-0.02363598586482573,0.8457033203429315,0.07450133826915101,-0.13379646970634673,-37.88509610230072,-24.467505983588417
1760957752.2456112,-7.518083040067044,-0.0225984273499273,0.8482722652202385,0.08223418655313447,-0.07032648822504091,-36.3903298999554,-22.318274384524145
1760957752.2555456,-7.649375437995086,-0.026478434342078645,0.8537619660742264,0.09011334178605557,0.2106390245205483,-34.07089441208973,-20.392466632778234
1760957752.2657428,-7.770260097034951,-0.03654521675083161,0.861631562013324,0.09838510722665499,0.7504098013895718,-30.95051704023874,-18.77232844685285
1760957752.2757077,-7.8932072008169945,-0.05351182057589909,0.871135560995384,0.10727712974103444,1.551983551884315,-27.10023188428816,-17.539309882180607
1760957752.2855666,-8.031482172726326,-0.07738593523307928,0.8813853315808352,0.11696236859262506,2.580140486012592,-22.643349714348915,-16.76516648726437
1760957752.2956011,-8.197963714076923,-0.10742199818179791,0.8914249753905594,0.12754245024771058,3.7649751367736677,-17.753057549594512,-16.504370082148377
1760957752.3057144,-8.403950894412512,-0.14218096737805022,0.9003148388071508,0.13903669779985967,5.008460206381043,-12.642693042515367,-16.788756528845205
1760957752.3156886,-8.658131550184885,-0.1796864991635972,0.9072191982980837,0.15136023127213682,6.193814090190903,-7.549740086289544,-17.6247635769386
1760957752.325683,-8.965855701866685,-0.21765372343909956,0.9114920800958934,0.16428340471316683,7.19747143374254,-2.715476746643734,-18.99304739744059
1760957752.3358345,-9.328805161481068,-0.2537582366513467,0.9127471909967477,0.17738096283285967,7.903089668303399,1.6370444868504013,-20.84989381325066
1760957752.3458169,-9.74508490687504,-0.2859078426966618,0.91089414147184,0.18999157322401616,8.216343498884717,5.323545704043097,-23.129716108094208
1760957752.355655,-10.209695597362593,-0.3124794341217926,0.9061305479775102,0.20120853438294684,8.078602557340648,8.214515673487291,-25.747994730247406
1760957752.3656456,-10.71529145084076,-0.33248919459358595,0.8988943716060037,0.20991292701999384,7.477310855302864,10.244238782777963,-28.604183953900232
1760957752.3755548,-11.253091621904863,-0.34567502576912906,0.8897934404033477,0.2148515438711415,6.451169641589019,11.411640183151123,-31.584335095282352
1760957752.3856475,-11.813799844513381,-0.3524831685857809,0.8795328233425639,0.21475914685265027,5.089013401252914,11.773106158103902,-34.56342594518652
1760957752.395586,-12.388396383699089,-0.3539635872788337,0.868854678917446,0.2085226132109915,3.5223341955452705,11.428702101261184,-37.407599762364754
1760957752.40572,-12.968696335111405,-0.3515901945177802,0.8584937245816482,0.19537593145034968,1.91246184852871,10.504154912392522,-39.97667786483371
1760957752.4155574,-13.547616153123611,-0.34703333738810355,0.8491416083624199,0.17510001990788152,0.43417870320761637,9.131461194647812,-42.12741304865942
1760957752.4257116,-14.119148528735343,-0.341920432357476,0.8414099746260699,0.14818683630236612,-0.7421299617278464,7.430959096951649,-43.71797546342969
1760957752.4358163,-14.678099490614922,-0.3376199484843208,0.8357844733561222,0.11592174352646117,-1.4677895763610735,5.497230499698478,-44.6140386926745
1760957752.4456494,-15.21967618509381,-0.33507324078736045,0.8325679497855705,0.08034768065566152,-1.630928889370131,3.390487852757802,-44.696493403225475
1760957752.4556246,-15.73902563448011,-0.33468609440291874,0.8318197174102152,0.04409858781025309,-1.1679752074806504,1.1343343808341508,-43.87029539133756
1760957752.4656448,-16.230820322046288,-0.3362847108935016,0.833307649666209,0.010119713183713491,-0.07040673956858762,-1.279981293492299,-42.07343228141678
1760957752.4757435,-16.68897224766539,-0.3391384087557694,0.8364960849156176,-0.01868119359172405,1.614145064023554,-3.8834854707581297,-39.28468798817445
1760957752.4855838,-17.106535577675285,-0.34204889113505216,0.8405902539019303,-0.03979276570230461,3.7869536351035524,-6.715011812935123,-35.52891310928421
1760957752.4955065,-17.47583115416188,-0.343502046888805,0.8446463574067397,-0.0514097282953884,6.309267521618766,-9.804384558806268,-30.87884821837633
1760957752.5055993,-17.788797875499043,-0.3418738321816531,0.847739637070451,-0.0526475561272488,9.018367622773265,-13.155590115607895,-25.45308796291104
1760957752.5155635,-18.037549188698033,-0.3356758766462507,0.8491670015758654,-0.04363774804592141,11.746697123556606,-16.73226432770531,-19.410375699388343
1760957752.5255916,-18.215086181201347,-0.3238164623023647,0.8486510223822425,-0.025501718647274164,14.341494835372535,-20.447609278781755,-12.940939493202032
1760957752.5355842,-18.316088914086965,-0.3058390763617223,0.8465096055986279,-0.0002178870741383352,16.682104461734188,-24.160519588786748,-6.25591361919193
1760957752.5455232,-18.33767747175484,-0.2820907012685467,0.843757191273586,0.029595703301413773,18.692340797968367,-27.67922866686035,0.4240303526818991
1760957752.5555902,-18.28001651909097,-0.2537753246276757,0.8421059564642037,0.060959876313945394,20.345973056440496,-30.773108900316046,6.879896215146735
1760957752.5656824,-18.14664767039808,-0.22286962950477882,0.8438423077323396,0.0908502186537131,21.66444001323879,-33.19231916047366,12.90479463331817
1760957752.575736,-17.94447650348536,-0.1919101014118502,0.8515705831828183,0.116521615391168,22.707119347472556,-34.69382466311585,18.313234724108952
1760957752.585749,-17.683401382386684,-0.1636886530369708,0.8678413142328955,0.1358037352199084,23.555568228075703,-35.0711074332026,22.94899729532216
1760957752.5955343,-17.37562798621107,-0.14090747494827424,0.8947081380441096,0.14732543284025912,24.293980777399653,-34.183933193972564,26.69126687596774
1760957752.6056948,-17.0347522174969,-0.12584241845986127,0.9332788058708709,0.15063430294651262,24.98868371517105,-31.984109606535227,29.458722178035718
1760957752.615579,-16.674710730248325,-0.12004941212538316,0.9833377543310087,0.14619538391960227,25.66988120502882,-28.53338937400085,31.211526288287363
1760957752.6256487,-16.308695286117086,-0.12412680571744619,1.043117767763502,0.1352698975173778,26.319064439118353,-24.010459947350583,31.951619886911757
1760957752.6357846,-15.948113484872827,-0.137535989091685,1.109284712614103,0.11968796649460331,26.865388923525963,-18.705071385097483,31.72221772069858
1760957752.6455972,-15.601667417350779,-0.1584979835525269,1.1771704454459895,0.10154381442594528,27.19356985901914,-12.998553952753136,30.607577324023897
1760957752.6558597,-15.274622156411649,-0.1840150045818247,1.24124498112021,0.0828586914558766,27.164060607886505,-7.331228381043235,28.733589242496237
1760957752.6660268,-14.968344143994564,-0.21008247738234692,1.2957687669219131,0.06526821876467878,26.643426939884574,-2.1586748075504842,26.268525579182537
1760957752.6756876,-14.680192213968668,-0.23213281557367912,1.3355268204240747,0.0497903513078581,25.539603833644723,2.09929560468599,23.421919236466564
1760957752.6860905,-14.40382699490319,-0.24568587958932087,1.356530639339429,0.03671751550122461,23.834341216637842,5.110876175145806,20.438863466542124
1760957752.6955698,-14.129959500295426,-0.24709727296756334,1.3565776533963851,0.025655301147021733,21.604666104676173,6.677617961624744,17.58760275383489
1760957752.7055871,-13.847489288991921,-0.23423513017769812,1.3355735949650938,0.015703284544280143,19.026957208844777,6.764196550256376,15.14004905243698
1760957752.715674,-13.54490227805153,-0.20691425983692777,1.2955553816115137,0.0057426948108500716,16.360834087182415,5.505620912907475,13.347096098979852
1760957752.7257967,-13.211733508819748,-0.1669797876412243,1.2404096218954994,-0.0052345990389600396,13.91457091516727,3.1889358501730833,12.412426267430082
1760957752.7357259,-12.839876082959707,-0.11803082248704497,1.1753505167309442,-0.017839575798473745,11.997976666627112,0.21161692821500136,12.46928206900361
1760957752.745637,-12.424545871997434,-0.06486322225687481,1.1062657039933212,-0.032119250448553086,10.871571697747967,-2.9764007933021346,13.564239905768021
1760957752.7557757,-11.964783051649041,-0.012760103175856533,1.039039799033836,-0.04755200280713091,10.701786373590716,-5.936951054005144,15.650622172928289
1760957752.7658322,-11.463462469104696,0.033233453686189435,0.9789387535113311,-0.06319690625322391,11.530664086041318,-8.303036626893553,18.59230277027749
1760957752.775887,-10.9268722971788,0.0689368992058395,0.930111783415455,-0.07794464145619528,13.265511635710283,-9.823646588823026,22.1768425469398
1760957752.785767,-10.363986988326085,0.09148461893617321,0.8952508874464572,-0.0907958488688169,15.68991385372743,-10.387490009624019,26.135590636396305
1760957752.7957964,-9.785593144994763,0.09956229669174048,0.8754332305563499,-0.10109434146178027,18.493558956390544,-10.023508279794644,30.167840923026354
1760957752.8058367,-9.203420863113028,0.09342298892878999,0.8701542737359964,-0.10866014158382421,21.315264414956513,-8.880454917790455,33.9662644995789
1760957752.8155835,-8.629394217693793,0.07470209547815905,0.8775400814733834,-0.1137964897552548,23.791885657530187,-7.191329588644401,37.24135724735909
1760957752.825641,-8.075054519947127,0.04607743072754313,0.8947043692471127,-0.11718077120408756,25.60550143330383,-5.230356005592846,39.7432603360631
1760957752.835591,-7.551145123374659,0.010845489531528566,0.9181924981009242,-0.11967877265094386,26.522230263812983,-3.270323407508394,41.27986067737421
1760957752.8455927,-7.067298003305199,-0.027508185471659577,0.9444421227263864,-0.12213350970178254,26.4178963866944,-1.5467464025319866,41.730470987261995
1760957752.855641,-6.631746614690248,-0.06568397699905497,0.970196256806806,-0.12517693809523728,25.288077798298882,-0.2330058809172751,41.0545867183486
1760957752.8656337,-6.2510081307870795,-0.10085653915252062,0.9928241205841136,-0.12910441735582842,23.24240134543873,0.5719161514619422,39.29525397025542
1760957752.8756552,-5.92951905505196,-0.13086770429501193,1.010526392183246,-0.1338390483901507,20.485009345343055,0.8437158991313878,36.57658738133045
1760957752.8855462,-5.669254615832194,-0.15432588988240797,1.022415454534059,-0.1389919600259109,17.284758487762886,0.6232127109033685,33.09512310228797
1760957752.8956819,-5.469398970524715,-0.17061539571536682,1.0284683142416557,-0.14399769889803332,13.939814789980815,-8.400889322313719e-05,29.105093976472343
1760957752.9057157,-5.326149442767684,-0.179820443957145,1.0293605896405191,-0.1482821313333728,10.74175222748486,-0.9081148748819007,24.898364216371174
1760957752.915753,-5.232730149746246,-0.18257815577910885,1.0262131405525943,-0.15141490881303762,7.94394455794169,-1.9751122218102755,20.78052789200475
1760957752.92586,-5.179661021364537,-0.1798884739845554,1.020309591408764,-0.15321084142531616,5.73796427984683,-3.0865271972899135,17.04534384493008
1760957752.9355614,-5.155283236638787,-0.17291537113420025,1.0128517963036483,-0.15376495531346457,4.240069761833007,-4.153948236762664,13.95004865893013
1760957752.9457426,-5.146491310398422,-0.16280759046848814,1.0048014568863364,-0.1534240434482091,3.4880638544843707,-5.1245132093369286,11.694079264966017
1760957752.955691,-5.139581660590572,-0.15055644531604676,0.9968212424023458,-0.15270903558210042,3.447264211045512,-5.9839603576495,10.403380601537362
1760957752.9657202,-5.121113876817833,-0.13690157759430144,0.9892976178401909,-0.1522084582824108,4.023301599331485,-6.753164987706579,10.121843073322086
1760957752.9755785,-5.078697395899988,-0.12229256940254166,0.9824123824976215,-0.15246562317572585,5.0790316599063745,-7.478782484075561,10.810603563963115
1760957752.9855452,-5.0016489526054775,-0.1069088018043613,0.9762300279607109,-0.15388141238923744,6.4529421468692245,-8.219421786462345,12.355071900552458
1760957752.995608,-4.881495084013221,-0.09072914472546333,0.9707751796225202,-0.15664948500763434,7.976894782462399,-9.029495432551078,14.578720501528196
1760957753.005556,-4.71230914475556,-0.07363170782053752,0.9660827284542365,-0.16073174227798884,9.491643653233588,-9.943376497044257,17.261978593533623
1760957753.015836,-4.490880407360312,-0.05550039669480097,0.9622129460180675,-0.16587242243579106,10.859145615288677,-10.962585212500814,20.16407278742845
1760957753.0255907,-4.216726068186789,-0.03632142906065896,0.9592352656565362,-0.17164287144661933,11.971147779821537,-12.048340311180175,23.045417325106794
1760957753.0356455,-3.891974987751213,-0.01626115075571526,0.9571937491826025,-0.1775064787954069,12.753915840121115,-13.120976376592473,25.688225569166736
1760957753.0455735,-3.5211615547147948,0.004281566329027227,0.9560704690334313,-0.18289286905952595,13.169291225149037,-14.066607046405498,27.91338409548061
1760957753.0557067,-3.1109605733089483,0.024657569721998285,0.9557602940111404,-0.18727088678115228,13.212538943919855,-14.750224847183052,29.59222140602878
1760957753.0656967,-2.669874887229764,0.0439934253212496,0.9560649701927012,-0.1902111849175875,12.907647352100975,-15.033380921290444,30.652492779277598
1760957753.0755641,-2.207868618703366,0.06126428942919701,0.9567084567996669,-0.19143175147131283,12.300856128020222,-14.793837616160635,31.078587265451482
1760957753.0856328,-1.735929985968008,0.07540676132681985,0.9573703319885157,-0.19082313511369842,11.453235582753681,-13.944229047169726,30.906564531661903
1760957753.0955968,-1.265552943918483,0.08545440237470328,0.9577304273138756,-0.1884533307204646,10.433130418433818,-12.44685261681919,30.215080388099206
1760957753.105708,-0.8081448075902249,0.090671755744105,0.9575161666268005,-0.18455442701703043,9.309201266336832,-10.322262638078989,29.11351994502658
1760957753.1156096,-0.37439042292972985,0.09066273344422766,0.9565442456697858,-0.17949418907986925,8.144632267242638,-7.650287438105019,27.7287361847395
1760957753.1258233,0.026376416452851693,0.08543592540713787,0.9547498334340284,-0.17373621705251807,6.992840335223963,-4.563287661770392,26.19173712479841
1760957753.135937,0.38673243795730367,0.07541884069767871,0.9521989622269383,-0.16779277841554116,5.89477603213117,-1.23268231220788,24.625524950252505
1760957753.1455333,0.7015936417502606,0.06142191494219978,0.9490826093255911,-0.16217516682561317,4.877708473469134,2.1492622865500577,23.135086194725297
1760957753.1557827,0.9684643018104035,0.04456035077630754,0.9456935523069947,-0.15734709268099908,3.9552819461748183,5.389837529253938,21.800267452513214
1760957753.1657774,1.1874802110230749,0.026146956353096596,0.9423889789423803,-0.1536864192255877,3.1286311975191703,8.315859385987329,20.67196222804829
1760957753.1756525,1.361247807919172,0.007571022375146974,0.9395428201076517,-0.15145935206862932,2.388399849290209,10.790850333611763,19.77170831962816
1760957753.1856484,1.4945052875471698,-0.009823407105301501,0.9374923170101844,-0.150809379176731,1.7175354522324553,12.727612894905437,19.094472421419997
1760957753.195765,1.5936474118242145,-0.024850401875418305,0.9364845513858193,-0.15176114721437484,1.0946824083517852,14.094992441650113,18.614098000467457
1760957753.2056606,1.666162557719685,-0.036579736290388354,0.9366306559475228,-0.15423699090955512,0.49788547253314036,14.918246821390849,18.29063898191656
1760957753.2155955,1.7200345869021127,-0.044412001616344315,0.9378765331020863,-0.15808103046894686,-0.09178466527544826,15.273033383014457,18.07861933560324
1760957753.2259476,1.7631678012833376,-0.048120769449618225,0.9399979351939871,-0.16308370195319163,-0.6871186801248608,15.273616453707712,17.93516596547623
1760957753.235978,1.8028948677917125,-0.04785184270701321,0.9426250574897092,-0.16900020177650094,-1.2925741210431814,15.05651417239448,17.82697912845154
1760957753.2456968,1.8456154781277876,-0.044076960499725995,0.9452971260191002,-0.1755599668733813,-1.9032975612401832,14.761412873806988,17.7352465755407
1760957753.2556837,1.896588399372275,-0.03750875804341032,0.9475402320113305,-0.1824688779604639,-2.5055023354530404,14.51167000012467,17.657868223202353
1760957753.2656975,1.959873242166064,-0.02898963012734943,0.9489543179678773,-0.1894090329853858,-3.0781718705614227,14.39695365171895,17.60870690352618
1760957753.2757463,2.038401162174475,-0.01936852297521613,0.9492922791464021,-0.19604172527524966,-3.595912063488751,14.460430885228453,17.613980506054098
1760957753.2856326,2.1341461405036886,-0.009379269527525788,0.948517551618224,-0.20201800617593693,-4.032656392154286,14.692419900060814,17.706322691121034
1760957753.2957592,2.2483626777265635,0.00046501087263476596,0.9468341090861991,-0.20699907082238866,-4.365826731384328,15.03163808329926,17.91740579680324
1760957753.3057644,2.381846185977908,0.009945094347642262,0.9446898750854538,-0.2106863100596214,-4.580473706704841,15.37420765095982,18.270258012325836
1760957753.3156424,2.535163583680303,0.01916173001654766,0.9427573324507954,-0.21285770063640957,-4.672881598983946,15.589523178685209,18.77244118612407
1760957753.3258288,2.708803232704259,0.028507757357949994,0.9418935646601234,-0.2134032211185205,-4.653145944974116,15.5410589955712,19.411069970558493
1760957753.3356347,2.9032089043936873,0.03859013395703298,0.9430792446949658,-0.2123487044757639,-4.546327311461978,15.10936850706944,20.150312359059722
1760957753.3456619,3.1186853910068755,0.05011368130283484,0.9473346802007273,-0.2098567701173222,-4.39195503349012,14.214090900380972,20.931618019632126
1760957753.355901,3.355184767580482,0.0637417665628122,0.95561121787176,-0.20619607046736,-4.241894926897464,12.83184127444596,21.676556699958237
1760957753.366085,3.6119998357615413,0.07995120355312522,0.9686586345671421,-0.2016762579904746,-4.156864443417517,11.00738766184486,22.291863752704835
1760957753.3758032,3.887408033232013,0.09890194767596369,0.9868757728287341,-0.1965554230795873,-4.2020895331461,8.856389461745207,22.67610385331177
1760957753.3858538,4.178325886707529,0.12034495918018999,1.010163185495416,-0.19093729399838577,-4.4426594902023595,6.559051085771716,22.727264203180155
1760957753.3957198,4.480046810790666,0.14359060447183128,1.037808696735447,-0.18468387884890403,-4.939020760452257,4.345223571660871,22.35054422458981
1760957753.4056942,4.786137012339296,0.1675529596077416,1.068442575852218,-0.17737192954657552,-5.742825292818538,2.4726491675909847,21.465604846345443
1760957753.4158065,5.088547593397835,0.19087079004146923,1.1000931328473662,-0.16831543648900457,-6.89315885224891,1.2009917516599076,20.012584138143918
1760957753.4255795,5.3779607563797365,0.21208506894262166,1.1303552124896223,-0.15666070357873735,-8.41314727599334,0.764788444992864,17.95629216673224
1760957753.4355671,5.644331988850377,0.22983403507190406,1.1566580587041226,-0.14154074329023997,-10.307066593494705,1.3484098320692517,15.288183980736662
1760957753.445567,5.877540831790021,0.24302141992311793,1.17659342976783,-0.12226043104708897,-12.558234892506524,3.065692898154528,12.025985970598711
1760957753.4555948,6.068042747876701,0.2509248435317496,1.1882472054459503,-0.0984773708618647,-15.128020538876312,5.946333822600349,8.211194901977155
1760957753.4657426,6.207428099016856,0.2532310330457404,1.1904735070641037,-0.07034374166838274,-17.956244864609623,9.930459758186817,3.905006158408591
1760957753.4755607,6.288827384778809,0.25000128090214463,1.1830617475940386,-0.03857864138062221,-20.963146341168276,14.871974722897534,-0.8165558733528261
1760957753.4856324,6.307137419580444,0.2415805862869844,1.1667704102447185,-0.0044490394035582425,-24.052967190577537,20.55026461445716,-5.867524222283968
1760957753.4956188,6.2590725635914755,0.22847119509776795,1.1432281352778701,0.03034769161588578,-27.11911777454476,26.688747968021755,-11.156288477878658
1760957753.5058734,6.1430685426455485,0.21119964930183563,1.114724423194911,0.06388684740795855,-30.05070383243941,32.97778901049144,-16.5889431042763
1760957753.5155895,5.959085439468272,0.19021376262429518,1.0839244673958746,0.09427313299985468,-32.73992778050947,39.09890994576098,-22.07153283257
1760957753.5255973,5.708369594350899,0.1658457542770176,1.0535459509335472,0.11990621870332169,-35.08956811953819,44.74725332870531,-27.511242169366657
1760957753.535557,5.39323684739117,0.13836416563230017,1.026035356712477,0.13970515174332818,-37.01954924074749,49.6498876912387,-32.81680075772343
1760957753.5456123,5.016927284148319,0.10810850551152806,1.003282651271205,0.1532453596511795,-38.471640965441054,53.578637694780376,-37.89856950043687
1760957753.5556598,4.583553932260044,0.07566412354129926,0.9864142943734042,0.16077739602969024,-39.41158011751432,56.35732700710108,-42.668838080537924
1760957753.565769,4.098130988793874,0.04200794387892366,0.9756975210363596,0.16312375075064484,-39.82835264321394,57.864308582840714,-47.042787764368036
1760957753.5757022,3.5666335080935085,0.008556019840316427,0.9705698213954503,0.1614815578725309,-39.730940612096106,58.0316891149038,-50.940398511879074
1760957753.585724,2.9960228791994608,-0.022925776502403124,0.969782786719729,0.15718293941769929,-39.14335764353538,56.84269649936082,-54.289344245261624
1760957753.5956721,2.3941766785336087,-0.050541790845531426,0.9716302760819254,0.15147146383392115,-38.099087882038866,54.328332657376954,-57.0286739224103
1760957753.6058319,1.7696839366789399,-0.07257246240513889,0.9742235422805646,0.1453410984694294,-36.63605633443852,50.56396941644889,-59.112882964341395
1760957753.6157222,1.1314988458408999,-0.08779898297775938,0.9757772986236231,0.13945988840550994,-34.79307005986191,45.66599914910207,-60.5158691958513
1760957753.6256502,0.48847947208890313,-0.09577352465969678,0.9748725145923105,0.13417488159514454,-32.6083628223992,39.78814728532979,-61.234225766443444
1760957753.63558,-0.15113259465874418,-0.09696960625338424,0.9706604872028308,0.12957601258521034,-30.120461988437633,33.11670475136131,-61.289327494226335
1760957753.646076,-0.7802155615214008,-0.09276974003278259,0.9629735176198835,0.1255882424007407,-27.371058472914523,25.863858174334528,-60.7277029596058
1760957753.6557777,-1.3931713599007534,-0.08528211928433421,0.9523177528653264,0.12206192419231678,-24.408953987421828,18.258569100932533,-59.61925321214857
1760957753.6655884,-1.9861576616058714,-0.07701439834139226,0.9397453361886923,0.11883790083232337,-21.29366563523151,10.53505154454829,-58.05301483880426
1760957753.6756067,-2.557100290450176,-0.07046097481818052,0.9266304169881328,0.1157744608215596,-18.09713039424684,2.9196348973020587,-56.13044670869337
1760957753.6858468,-3.1054750867835423,-0.06767956792103101,0.9143974314154203,0.11273808738468483,-14.902336976463022,-4.382553074129558,-53.956706507117815
1760957753.6957896,-3.631892339502651,-0.06994318804968025,0.9042626400100753,0.10957661483438748,-11.798577605039494,-11.199253948644033,-51.63102672327779
1760957753.7057025,-4.13755997758948,-0.07754575520595587,0.8970470232559916,0.10610326661622785,-8.874079266518844,-17.39924584385654,-49.237884394385
1760957753.7157552,-4.623731896477411,-0.08980548028842486,0.893098365589798,0.10211449957024352,-6.207632747843497,-22.895601017141157,-46.840855312406305
1760957753.725836,-5.091254591275883,-0.10525915967116625,0.8923256872800442,0.09744652531803975,-3.861144925060436,-27.643502838540055,-44.48061542456447
1760957753.7357628,-5.540305197521587,-0.12199453028367294,0.8943126805204963,0.09205669399725781,-1.8747112002166209,-31.633199777123743,-42.17757066144256
1760957753.745817,-5.970371531223715,-0.1380414386510442,0.8984565278937517,0.08610440628788908,-0.26503505020992624,-34.8797146662537,-39.9384116017586
1760957753.7557461,-6.3804696910180665,-0.15173778941654367,0.9040847600330012,0.08000284789598214,0.9728879739732257,-37.411609741443044,-37.76489815701627
1760957753.765727,-6.769540561145255,-0.161999914078563,0.9105288845500318,0.07441806399047719,1.8616843219266699,-39.26121325676892,-35.66266054177931
1760957753.7758722,-7.136927146727164,-0.16845416787940884,0.9171603863850314,0.07020574556851726,2.4364066258431385,-40.458198824897686,-33.647886649810104
1760957753.785788,-7.482819808477625,-0.171419409520024,0.9234068373171428,0.06829420056184958,2.739481021580897,-41.02745969774399,-31.75041451447185
1760957753.7957175,-7.8085680614690585,-0.17176051639361364,0.9287629107012261,0.06953727238963603,2.8166316864058474,-40.991136263577026,-30.01274165392756
1760957753.8057008,-8.116790702049382,-0.17065603988755207,0.9328032184113905,0.07456866809718446,2.714073242853608,-40.37370629376489,-28.48547731108358
1760957753.815864,-8.411261550911993,-0.16933537986034172,0.9351980498277317,0.08368793411836245,2.476820038286111,-39.20843472358591,-27.220515888852926
1760957753.8257616,-8.696595110848369,-0.16884065533120607,0.935729039382995,0.09679904640567141,2.147704954301427,-37.543314824153704,-26.26355419743855
1760957753.8358312,-8.977794361634126,-0.16985616386918587,0.9342987709207695,0.11340848980687512,1.766646383009918,-35.44488957413361,-25.647505582898084
1760957753.8457599,-9.25974390397315,-0.1726273540411351,0.9309285766773227,0.13267614559244092,1.369868649406314,-32.99886419637439,-25.3879671262293
1760957753.8557143,-9.546732649641918,-0.17696827894022935,0.9257433373782861,0.15350394442910265,0.9890991401337442,-30.307034938839735,-25.48130252710647
1760957753.8658442,-9.842074051275205,-0.1823391792859447,0.9189471002406262,0.1746450606839388,0.6510228923971986,-27.480693823178584,-25.905265159106193
1760957753.8759072,-10.147866355591344,-0.18796837729101934,0.9107939133575098,0.19481785007163552,0.3772857476623729,-24.631324061918793,-26.62156657412963
1760957753.8858304,-10.464910027168397,-0.1929942256135977,0.9015556177641949,0.2128106647555212,0.18512819701992297,-21.860006732125157,-27.579528580862434
1760957753.8957736,-10.792780182527727,-0.19660902936760838,0.8914887869337296,0.22756551877220557,0.08847953368190813,-19.247344877517506,-28.719978461862834
1760957753.9058669,-11.130037981859932,-0.19819224201153482,0.8808088709605559,0.23823237754875798,0.09915971837206958,-16.84573688565184,-29.97877187684854
1760957753.9159188,-11.474552274647287,-0.197421839163603,0.8696848351879014,0.24419351764485014,0.22772757979424388,-14.675498185759478,-31.2896061696904
1760957753.925775,-11.823889043278033,-0.19435154332117313,0.8582643226644621,0.2450674063002822,0.4835087237989248,-12.725736699246571,-32.58601029116586
1760957753.9358397,-12.175713022148328,-0.18944055257506723,0.8467267432857338,0.24070826926540603,0.8735510327985464,-10.960119866990905,-33.802562127863894
1760957753.9457238,-12.528137651742195,-0.18352467120935084,0.8353467627042166,0.231215359909391,1.4007244144630717,-9.326789549911608,-34.875527689923466
1760957753.9558458,-12.879961111656733,-0.17772534144546834,0.8245421959452527,0.21695488640106034,2.061687557613439,-7.770804542169263,-35.74322398355043
1760957753.9657032,-13.230740500278834,-0.17330538324154057,0.8148825542962103,0.19858366813052844,2.8456389020770994,-6.246841624617348,-36.346429796612014
1760957753.975712,-13.58068187629392,-0.1714925688399606,0.8070452836451544,0.1770544360530093,3.734477945936584,-4.729705578529893,-36.62911217326424
1760957753.9859037,-13.930354921993938,-0.1732987637418508,0.8017207302725649,0.1535829190435456,4.704380135690191,-3.220601959329352,-36.539654219410345
1760957753.9956813,-14.280270109687484,-0.17936144416765504,0.7994804498368377,0.12956650374164683,5.72820100053638,-1.748027619132436,-36.03267752015763
1760957754.005695,-14.63037824528076,-0.18982849666361798,0.8006351007401673,0.10645929743098377,6.777904951267574,-0.36328505145646556,-35.071415571733944
1760957754.0156891,-14.979565194293473,-0.20429978428507625,0.8051155332970015,0.08562329600491979,7.826438667664776,0.8682747536027661,-33.630401281603554
1760957754.0257735,-15.325219134584332,-0.22183247496955746,0.8124106295576635,0.0681853111378047,8.84892598467831,1.8783986593537518,-31.698033960656357
1760957754.0356152,-15.662945924064687,-0.2410130509037375,0.821586365194517,0.05493066790773925,9.823438691285961,2.6073078477220824,-29.278473937425492
1760957754.0457132,-15.986501548861197,-0.26009669530158847,0.8313939557400364,0.04625543889434748,10.731717806514968,3.0134027136416583,-26.392345008654726
1760957754.055659,-16.287996470377855,-0.2772099192476806,0.840455062783401,0.04218147884086626,11.560110565083761,3.080037404482946,-23.075936609557623
1760957754.0656936,-16.558397122520677,-0.290599252295947,0.8474944368799945,0.04242003145598728,12.300783964936842,2.8188565947445854,-19.37895943272342
1760957754.0755854,-16.788298439391912,-0.2988893081910997,0.8515803237429574,0.04645809441241692,12.953091677414509,2.2697884603001297,-15.361310843592783
1760957754.0858567,-16.968875304696667,-0.30129965527605496,0.8523329654021836,0.053640810556195725,13.524858539113648,1.4981381531669282,-11.089596081304691
1760957754.0962114,-17.092864558873686,-0.2977740279388471,0.8500689255014805,0.06323148921242382,14.03330135225981,0.5893890357240824,-6.634215939767442
1760957754.1058953,-17.155410174577803,-0.2889976496520082,0.8458578422474505,0.07444372685593488,14.505281813731608,-0.3576025735465601,-2.067653319909448
1760957754.115802,-17.154632180864983,-0.27630648777475453,0.8414754244077605,0.08645218403842705,14.976547144194578,-1.2383077092291686,2.5357562076566644
1760957754.1258986,-17.091840229426346,-0.2615124665411303,0.8392443245105401,0.09839621764554447,15.489577252404583,-1.9504605194150908,7.098670877988595
1760957754.135759,-16.97137994863795,-0.2466761754944845,0.8417663985567322,0.10939232978529045,16.089691497473307,-2.401709343383948,11.538630756976339
1760957754.1457665,-16.80015668022292,-0.2338579921303998,0.8515658447365231,0.11856765497475535,16.819223562153283,-2.516667511492471,15.765669667185678
1760957754.1560056,-16.586922387154416,-0.22487648705370195,0.8706802481654434,0.12511929243965084,17.709875304218645,-2.2432750230666043,19.680571707681015
1760957754.1658626,-16.341437580102852,-0.22110064264912363,0.9002530362664922,0.12839544166781633,18.773836841433035,-1.5585525457593392,23.17488217411739
1760957754.1756818,-16.073625755451598,-0.22329497424309094,0.9401933696708684,0.1279854592212027,19.994893879852714,-0.47382606093235097,26.133791143723705
1760957754.1858256,-15.79281516298201,-0.23152172802630297,0.9889736632663391,0.12379845453734023,21.321399249161576,0.9607652241051724,28.442727815615942
1760957754.1957145,-15.507114912994302,-0.24508942340535025,1.0436255419397755,0.11610637428043988,22.663419415791257,2.6531714206312405,29.997946515842525
1760957754.2056804,-15.222920953478125,-0.26253510160773186,1.0999688476504916,0.10553026693290034,23.89630818778328,4.469046431296649,30.720620445972205
1760957754.2157824,-14.94452090328937,-0.28164460994661344,1.1530673532296158,0.09295788241444347,24.872210070802094,6.235889071965786,30.57303976997788
1760957754.225748,-14.673779939752666,-0.29954215373156523,1.1978571778179958,0.07939474334596133,25.439526904149314,7.753702661450524,29.574528149406405
1760957754.2356596,-14.409932732047247,-0.31289782252947707,1.2298515111962753,0.06576686245541556,25.46840578782732,8.81366066594263,27.813864814540786
1760957754.2456465,-14.149551266725812,-0.31829107185970845,1.2458009292632568,0.05270979469595504,24.87826980356416,9.224709977239272,25.454667182361213
1760957754.255647,-13.88677714140424,-0.3127215591364884,1.2441913550680688,0.04039311022611767,23.661918944665874,8.84541557178592,22.730707552722784
1760957754.265676,-13.613882843181697,-0.2941886925919268,1.2254911064030012,0.02843634396213844,21.900376572527403,7.615378056749798,19.929693589377028
1760957754.2758527,-13.322159951223256,-0.26220101119419686,1.192103627252884,0.01596478501108818,19.763781964226194,5.57859149071248,17.36643250595461
1760957754.2856407,-13.003041600025956,-0.21806309806060653,1.1480305819318095,0.0018245653199647914,17.496098294069377,2.8913868364167064,15.3488476940735
1760957754.2956512,-12.649284542118295,-0.16483599597122456,1.0982954467472197,-0.015073464267779406,15.384657516155743,-0.18955057667159653,14.142134070175283
1760957754.3056998,-12.25599807785991,-0.10695801369211398,1.0482194397582771,-0.0353678310180971,13.718843429749567,-3.338991340191624,13.936814178038889
1760957754.3158333,-11.821333855506564,-0.04960600767416069,1.002672409859271,-0.05893959080135961,12.74478703990707,-6.209790186948254,14.825574379454881
1760957754.325825,-11.34673375814676,0.0020631791273470496,0.9654287563135909,-0.08479348001116749,12.624222110438799,-8.485555137458194,16.79197830487191
1760957754.3357441,-10.836737367162048,0.04363826054645496,0.9387374679158492,-0.11117686614889377,13.405251275052974,-9.928948893570633,19.712068073512366
1760957754.3459227,-10.298437035123678,0.07201787447156946,0.9231722154234943,-0.13590661298274664,15.010667035441992,-10.41613189302994,23.36795144909188
1760957754.3557646,-9.740719117147568,0.0857324684843565,0.9177714095810334,-0.15680962327906997,17.246087119823127,-9.95108222099058,27.471000227755862
1760957754.36571,-9.173445798836845,0.08499725532587227,0.9204187298689857,-0.17215737015344013,19.8263574078258,-8.658113600561117,31.691342668131472
1760957754.3759894,-8.606717606888747,0.07151966474212328,0.9283667901416415,-0.18099006978483717,22.41541874926792,-6.755494101495076,35.68995133972184
1760957754.385731,-8.05031459655116,0.04811919918681966,0.9387869218459418,-0.18326742726514683,24.67280777624475,-4.5164591992718846,39.149793953494786
1760957754.3956137,-7.513353462212421,0.018235108389702066,0.9492409490417102,-0.17983075596906917,26.299365244345168,-2.2255312616253646,41.803098185730576
1760957754.405673,-7.0041352758964175,-0.014595360633613164,0.9580045231295456,-0.17220238358927095,27.07539607201457,-0.13791102099742542,43.45257805196363
1760957754.4157054,-6.530110212676158,-0.04720394943586931,0.9642097049814999,-0.1622778454008829,26.886167481266252,1.5518405209286794,43.98532266104192
1760957754.4256449,-6.097861842606773,-0.07712930941056326,0.9678082196607073,-0.15198306835664924,25.731906635076875,2.7280257273919304,43.37885775473243
1760957754.4356778,-5.713019543340706,-0.10278010724932256,0.9693854923490527,-0.14296923706399578,23.721971373675046,3.357832996683167,41.69956725053845
1760957754.4458113,-5.380041638746248,-0.12342063660452196,0.9698793024495208,-0.136400239299331,21.055203100607685,3.4824951562704105,39.094160551035976
1760957754.4556844,-5.101863309942685,-0.13901688610194704,0.9702717080457212,-0.1328577390727235,17.990289230417044,3.1987104669747315,35.7752272869229
1760957754.465689,-4.879455633974563,-0.150003188791672,0.9713228527261906,-0.13235934848331152,14.81106007321014,2.6344134889953383,32.002214847545794
1760957754.4758406,-4.71138052920109,-0.15703065015580464,0.9733983662130167,-0.1344650983136667,11.791937068144904,1.9231705503812704,28.059444666531064
1760957754.4856668,-4.5934435665420175,-0.16074670141251104,0.9764139551365533,-0.13843782072699426,9.168216552222349,1.1810739935944996,24.233011583098595
1760957754.4957678,-4.518541500521958,-0.16163849195748387,0.9798915657577257,-0.1434212401528858,7.114599430163454,0.48920706238547573,20.788486028111834
1760957754.505699,-4.476775071903992,-0.1599545056964109,0.9830992418478696,-0.14860300530185594,5.733649011185876,-0.11629490078770591,17.951199249005075
1760957754.515953,-4.455854249887017,-0.15570078097320997,0.9852348576663464,-0.15333760410088132,5.054114740671372,-0.6457011505794339,15.890565246948428
1760957754.5257041,-4.441773746378223,-0.14869499319346344,0.9856119787974079,-0.15721511012142114,5.0376735045117265,-1.1488873009518175,14.709461215612354
1760957754.5357106,-4.419696135545618,-0.13865711636826564,0.9838119435780773,-0.1600740493307689,5.591787442883223,-1.7015352656693352,14.439237607851359
1760957754.5457215,-4.374957109262449,-0.125317826708189,0.9797773415140445,-0.1619676902174397,6.586062965248356,-2.3864929698110715,15.040513160775527
1760957754.5556831,-4.294101009649623,-0.1085298684230604,0.9738356283862777,-0.16310024548935215,7.869629469733594,-3.2731816657730097,16.40952523445551
1760957754.5657444,-4.165857821798283,-0.08836906210785467,0.9666542673019565,-0.1637514837062071,9.287494057939984,-4.398357406343915,18.389414326217988
1760957754.5757248,-3.9819796145123494,-0.06521062490477621,0.9591383283541722,-0.16420555125384856,10.694413748952211,-5.751494023530255,20.785411413437384
1760957754.5857475,-3.737864681889431,-0.039766631237229115,0.9522881136862654,-0.16469445670608987,11.965435552259688,-7.267462222067504,23.382516059475762
1760957754.5961177,-3.4329145940885546,-0.013074817067338889,0.9470388074311576,-0.16536120925626652,13.002803917386906,-8.828075103738513,25.963992403728277
1760957754.6057067,-3.0705933503363805,0.013563569852930269,0.9441059634533472,-0.1662436867125675,13.739362107452274,-10.272650951895924,28.328943263160312
1760957754.6157138,-2.658183311303389,0.0386921001573639,0.9438592138633622,-0.16727798703078064,14.138849583117356,-11.416284978672179,30.30736997998922
1760957754.6258368,-2.2062537397949424,0.06084346413137799,0.9462422657971463,-0.16831831478551806,14.193651123513957,-12.073283335937779,31.77146844815969
1760957754.6356347,-1.727874839977761,0.07870402882435446,0.9507509334692168,-0.1691688610083005,13.9206412606717,-12.082391009290665,32.642399971209045
1760957754.6458828,-1.2376277639135613,0.09127683441459884,0.9564733059584467,-0.16962218405234353,13.3558120810458,-11.330150408325165,32.89231668264732
1760957754.6556098,-0.750481850162241,0.09801703409341755,0.9621880021069689,-0.16949874180155525,12.54836057399624,-9.768977615776365,32.54191140469716
1760957754.6657784,-0.2806322177251693,0.09891456066371042,0.9665092507970501,-0.16868301707155992,11.55483571423728,-7.4272822652795805,31.654142578857293
1760957754.6758082,0.1595917102625851,0.0945053525547162,0.9680626731296978,-0.16715248602404634,10.433818677862861,-4.410077787232222,30.32505003684265
1760957754.6856778,0.5606292278956468,0.08580336171035999,0.965673269544941,-0.16499631484953436,9.241456655282906,-0.889884096253066,28.672738125194265
1760957754.6957977,0.916294052188838,0.07415871036487422,0.9585460911783231,-0.16242123322202506,8.028018863110228,2.910877481446126,26.825662054995476
1760957754.7056916,1.224001626387385,0.06106097545146453,0.9464194531319393,-0.15974284019924656,6.8355141222854385,6.743594482436094,24.911305177033118
1760957754.7157311,1.4845846203972737,0.04791892854402265,0.9296701755044108,-0.1573618905249324,5.696313758316895,10.360091965995789,23.0461846522645
1760957754.7257752,1.7017266172542862,0.035856704621682035,0.9093501965634605,-0.1557266034564573,4.63266866861521,13.538739091908969,21.327907333383674
1760957754.7358978,1.8811118849193789,0.02556800027791167,0.8871346333398072,-0.15528349551626994,3.6569999650968077,16.10684296402205,19.82976808139714
1760957754.7462783,2.0294447527426174,0.017261672063374305,0.8651661505243529,-0.15642107924609544,2.772867436787422,17.956785039828873,18.598163522158625
1760957754.7558708,2.1535178460034183,0.01071343909030257,0.8457945889422824,-0.15941314912452273,1.976546547396339,19.054268528845206,17.652866590932472
1760957754.7656102,2.259492048107479,0.0054120051179164805,0.8312366755465614,-0.16437032003614108,1.259135663228238,19.43808789611632,16.98994177475822
1760957754.775993,2.3524919099497734,0.0007605323571378126,0.8232129618282967,-0.17120871251764366,0.6090500510989311,19.21185239876679,16.586782632455247
1760957754.7856483,2.4365332554286216,-0.003723813884895479,0.8226440991112265,-0.17964290030118507,0.014647264688386957,18.52895260915156,16.408472470263067
1760957754.7957315,2.514713175714113,-0.00826874609463794,0.829488320248187,-0.18920703673768063,-0.5333818594896363,17.57267320382573,16.414478907935955
1760957754.8056576,2.589537258517269,-0.012798110986698839,0.8427674664951573,-0.19930357740259994,-1.0402589694288216,16.533733672354035,16.564657264142053
1760957754.8158753,2.663251749440332,-0.01697505725298224,0.8607738424772302,-0.20927303930993107,-1.5063176657023092,15.587729491570856,16.823687922546508
1760957754.8257113,2.738082390759469,-0.02030836231889759,0.8814032766383225,-0.21847255817825956,-1.9272810438423655,14.874969384754479,17.16339597563446
1760957754.8359883,2.816334248325835,-0.02228191983163479,0.9025380110843193,-0.2263490571640216,-2.2955157400773127,14.48501856202931,17.56283412900391
1760957754.8457267,2.90035747579363,-0.022469589562069212,0.9224030173468369,-0.2324958406282227,-2.6019919093869364,14.447800258520555,18.006452515112514
1760957754.8556452,2.9924213903149575,-0.02060577422595982,0.9398323323759118,-0.23668684296480555,-2.838614113640393,14.732366722887976,18.481030400709827
1760957754.865787,3.094556811568082,-0.016595741631864024,0.9544045761507101,-0.23888716168391347,-3.000609493112796,15.253498895276,18.972225414546656
1760957754.875834,3.2084213690855092,-0.010470047352635056,0.966436716874293,-0.23924043982769977,-3.0887212770915258,15.88526600118872,19.461562953205657
1760957754.8857276,3.335219308594196,-0.0023075338760156832,0.9768553497079562,-0.2380339271780705,-3.111024027126899,16.479740116119174,19.9244646563371
1760957754.8959506,3.475677670256447,0.007839334736128753,0.9869850450214553,-0.23564225455807786,-3.0842313671922446,16.88838989950002,20.32959064313845
1760957754.9057984,3.6300555216239574,0.019987695603700027,0.9982980823429701,-0.23245226051373596,-3.034400457149018,16.98339927066352,20.639447519190735
1760957754.915732,3.7981497298296163,0.03422079558318522,1.0121625647094452,-0.22877408846425282,-2.9969545033142135,16.676311723120683,20.81196189736992
1760957754.9257655,3.979263839829019,0.05063933843444876,1.02961544797947,-0.22474818700912638,-3.0159458931447998,15.931943697241637,20.802577790644076
1760957754.9357219,4.172124280007655,0.06928342341390634,1.0511805766828872,-0.22026301950210553,-3.1424781025895356,14.776301511548736,20.566419377149124
1760957754.9456785,4.374752077356501,0.09004834138608593,1.076749884899078,-0.21490251604855976,-3.4322345732102377,13.298040004390144,20.06014481476648
1760957754.9557276,4.584318942425648,0.11261758595498268,1.1055436267186969,-0.2079433151306059,-3.942161585015618,11.643590668462428,19.24326148146614
1760957754.9657097,4.7970273386479,0.13643037911194564,1.136158442926024,-0.19841739264738492,-4.726493334646809,10.006422583519548,18.078851961961842
1760957754.9757063,5.008052081777458,0.16069052520453905,1.1667002049714212,-0.18524449337775092,-5.832423758650124,8.611154071208732,16.53385315958019
1760957754.985825,5.211567756996327,0.18441167498289832,1.194985309103746,-0.16742217417339547,-7.295784954162193,7.693599500053088,14.579196412000135
1760957754.995827,5.400867900200531,0.20648552645945129,1.2187834469672616,-0.14424374423430775,-9.137099276145085,7.478335925700068,12.190197916614867
1760957755.0057158,5.56856574993392,0.22575696464707237,1.2360694966134869,-0.11550169133436569,-11.358348611003587,8.155859685971858,9.347552711264253
1760957755.0158443,5.706856743041469,0.2410931690740563,1.2452528312435047,-0.08163039463928895,-13.940748998305429,9.861682573175921,6.039146281639882
1760957755.0256536,5.807819771674775,0.2514397560432408,1.2453584051854778,-0.043748688299596876,-16.843740102487185,12.659664558981326,2.2627021118198343
1760957755.035714,5.86373520694308,0.25586399837162777,1.2361433252327436,-0.003580421708824839,-20.005332016933227,16.531464591627216,-1.9709288444192623
1760957755.045774,5.867401308522477,0.25359220712916114,1.2181411301646212,0.03674231499414306,-23.34391568634437,21.373269706182015,-6.634233743255915
1760957755.0558274,5.8124369379121985,0.24405370426144826,1.1926296398050955,0.07495954787756891,-26.76158979906598,27.00007127657219,-11.679806436528102
1760957755.0658336,5.693566665551652,0.22694344569099117,1.1615182718688994,0.10899159414239395,-30.148905572869747,33.156877537155175,-17.03800795547571
1760957755.0757132,5.506890912507458,0.20230635565138924,1.1271551849013388,0.13721226326682442,-33.39067075121872,39.53555040940355,-22.61602328424559
1760957755.0857568,5.250144451825295,0.1706317609167504,1.092069130674682,0.15863459521163115,-36.37218844040647,45.79553373461641,-28.298671165651253
1760957755.0957637,4.922939846790174,0.13293366866353237,1.058679062177132,0.17297960666637408,-38.985176153659175,51.586602504254685,-33.95118790714146
1760957755.1057417,4.526980348833126,0.09078792657507774,1.029014506241188,0.1806249238709635,-41.1326869470057,56.57182897785891,-39.424077770885546
1760957755.1158633,4.066213602103024,0.04630107287989719,1.004488506342535,0.18245292897309956,-42.732611011936726,60.44916379911254,-44.55994034988814
1760957755.1258574,3.5468877099643197,0.0019955461883101643,0.9857574056777353,0.17963490491888695,-43.719685323487575,62.970354301000256,-49.20192816902797
1760957755.1358016,2.9774687078581703,-0.039390356469181695,0.9726892902100953,0.17339750178005142,-44.046272682149734,63.95631622069825,-53.203206964309935
1760957755.1456497,2.368385428110971,-0.07517383104330888,0.9644442627889724,0.16481876290165373,-43.682400328860446,63.308404694066006,-56.43658440612094
1760957755.155642,1.7315838597167061,-0.10304136174027222,0.9596500568533438,0.15469271706651577,-42.61563746691548,61.01517669046669,-58.803429915186605
1760957755.1657147,1.079896695144311,-0.12136398346923027,0.95664436876982,0.14348641248054236,-40.85135652681746,57.15418840896167,-60.24113024745471
1760957755.1761587,0.4262628691512146,-0.12946480909965055,0.9537504310787502,0.13139342364926182,-38.41378779813572,51.88823392060993,-60.72851602962766
1760957755.185672,-0.21713664998726484,-0.1277863120979434,0.9495473514596848,0.11846457280120813,-35.34801872899459,45.455401970464855,-60.28884682944299
1760957755.1959994,-0.8397327871409282,-0.1179093595682269,0.9430908116446961,0.10477371469410307,-31.722653554501324,38.15262084109251,-58.99001649146653
1760957755.207085,-1.4333016426113137,-0.10239297695642832,0.9340410241189461,0.09056264173888619,-27.632271479932538,30.313092532371652,-56.941670953687265
1760957755.2161489,-1.992468330507913,-0.08443636903833765,0.922670056252701,0.07631390916398052,-23.198314880246038,22.27910952691785,-54.28899736092638
1760957755.22629,-2.5148955962623254,-0.06740835855296756,0.9097484759868539,0.06272595124893612,-18.566895961921755,14.372927899433416,-51.203136173658606
1760957755.2359447,-3.001115574719748,-0.05432948282119689,0.8963432777357612,0.05060156977721353,-13.902423714850842,6.869293256420932,-47.86855879002475
1760957755.2456946,-3.45402193794351,-0.047411218069352994,0.88358265014521,0.04069145840171118,-9.376900739313356,-0.02640875811608324,-44.46834305992441
1760957755.2557874,-3.8781007838571395,-0.04774659088879561,0.8724475190078155,0.03354604091306045,-5.1559601025529105,-6.1907944546899145,-41.168932974772964
1760957755.2657495,-4.278527151255274,-0.055210167283788726,0.8636331940130737,0.02942051856720561,-1.3837913464691356,-11.583595277159167,-38.106439473608525
1760957755.275732,-4.660278056050692,-0.06857526581606388,0.8574965024737177,0.028256883876966312,1.8303447324607292,-16.236897757298646,-35.376604062583844
1760957755.2856994,-5.027406858376512,-0.08580876745438494,0.854078589722793,0.029741642020860076,4.421492214413578,-20.234392188448492,-33.03012648318362
1760957755.295865,-5.382589906286298,-0.1044729369513908,0.8531793175748719,0.0334164186821774,6.3725949024543675,-23.684422733007597,-31.07422734492794
1760957755.3057544,-5.727003560301997,-0.12215396641444934,0.8544548308028127,0.03880572841710777,7.711860898757727,-26.691783197680234,-29.480250632385907
1760957755.315733,-6.060529468704275,-0.1368446080932183,0.8575108745684074,0.045525129376791956,8.504675402426816,-29.333346192531693,-28.196023606441884
1760957755.3258238,-6.382229760093907,-0.14722635836209297,0.8619698412540574,0.05334351420286946,8.841780088818604,-31.64172328948318,-27.16079908627868
1760957755.3357897,-6.690991293129558,-0.15281931564003481,0.8675005476618303,0.06219005790282678,8.825917222595479,-33.5994601424217,-26.320092616010875
1760957755.3457923,-6.98621486368011,-0.1539904169756725,0.8738134786080485,0.07211232086889362,8.559100938948479,-35.14420183488933,-25.63771605503586
1760957755.3556945,-7.268421916801663,-0.15182986043543362,0.880634134644063,0.08320335885319188,8.132202424196198,-36.18328436092608,-25.10284298310126
1760957755.3658302,-7.5396662622882165,-0.14792075939199606,0.8876697871162922,0.09552152951080597,7.617807604862658,-36.61466856930331,-24.730965168497356
1760957755.3757176,-7.803670692998306,-0.144040767292989,0.8945823521055942,0.10902598287906808,7.066560712152141,-36.350222888300124,-24.5589092026254
1760957755.38606,-8.065656603562864,-0.14184706322439428,0.9009762258812793,0.12354237588688634,6.506655040629873,-35.33714909791023,-24.63532339723568
1760957755.3956897,-8.331892004016424,-0.1426023143570133,0.9064069482063283,0.13875901714289732,5.945896046491619,-33.573817757767,-25.008849980797237
1760957755.405701,-8.609036889992947,-0.1469912833307902,0.9104132913512919,0.15424038368983886,5.375822127203308,-31.11732886781999,-25.716375549567477
1760957755.4157069,-8.903400996326816,-0.15505523988228084,0.912569765459747,0.1694412602567507,4.7775387067108515,-28.081545819225816,-26.773353288581504
1760957755.4259834,-9.220239594960427,-0.16624389157573377,0.9125496929882099,0.18371313744126042,4.128936137306308,-24.625967605890903,-28.167437502789213
1760957755.436107,-9.563197988141049,-0.1795624303614368,0.9101848833401743,0.19630771231660596,3.4126938461136196,-20.93742129423175,-29.855865983171114
1760957755.4456906,-9.93398003675184,-0.1937778012326196,0.905508825645028,0.20638988835666247,2.6240768683869113,-17.207905523324204,-31.766428652762396
1760957755.4559965,-10.332269656215527,-0.20764274137453728,0.898774482273655,0.21307205284695974,1.7772991374440767,-13.612639098064092,-33.80155804400085
1760957755.4657161,-10.755888460784652,-0.22009851148591525,0.8904422449779861,0.21547798959986658,0.9092920120137972,-10.292229484631296,-35.844964741328944
1760957755.4759212,-11.201138224496624,-0.23042693550704885,0.8811374449274753,0.21284038378799444,0.07997031072256369,-7.341928284814034,-37.770163428704194
1760957755.485674,-11.663257967590306,-0.23833544499776688,0.8715802891421662,0.2046264914124534,-0.6315785269495541,-4.809453784745435,-39.450112000176944
1760957755.4958475,-12.136919836177581,-0.24397045189053457,0.8624943857900713,0.1906726957403964,-1.1350743970635566,-2.7011520204457335,-40.76701998410755
1760957755.50587,-12.616691427413809,-0.24786326918896817,0.8545035977902774,0.171298449536989,-1.3405443495717855,-0.9946472053952745,-41.621228679241426
1760957755.5158076,-13.09740305929421,-0.25082019459560756,0.8480308686002747,0.1473701053614974,-1.1717916103759496,0.34508571662557513,-41.938021620413515
1760957755.5257413,-13.57437564177536,-0.25377395931870894,0.8432153348625198,0.12029402759932983,-0.579551556531484,1.3498377677632651,-41.67139681963074
1760957755.5356953,-14.04348582097238,-0.25761626736243737,0.8398639124053149,0.09193040963358091,0.44818278286130764,2.0358304786385264,-40.8042679509933
1760957755.545715,-14.501067571576186,-0.2630316349538583,0.8374508012379439,0.06443112351819381,1.880816707507221,2.397328003015013,-39.345197401880895
1760957755.5558856,-14.943673100370283,-0.2703537232365665,0.8351741285777303,0.04001701998551718,3.646093537613219,2.407210064141836,-37.322441740039785
1760957755.5658216,-15.367740999823605,-0.2794665496120338,0.8320732109533735,0.020721904343012614,5.637503376549259,2.024066092054561,-34.77662081872245
1760957755.5758953,-15.769243138674902,-0.28977061513550123,0.8272013620162533,0.008139067661561465,7.727187139121303,1.2041611576809341,-31.753559755026508
1760957755.5856428,-16.14339737462391,-0.30022646138863235,0.819838593973167,0.0032090864000721055,9.782380149055742,-0.08416590424485466,-28.298744152324854
1760957755.5956964,-16.484533673330574,-0.3094776565916183,0.8097195442540955,0.006083653128964863,11.682828126116878,-1.8464259287693612,-24.454416933465268
1760957755.6058698,-16.786180552923447,-0.3160421061637477,0.7972456475265887,0.01608959486434904,13.336494256611825,-4.050818707870502,-20.259740885001065
1760957755.6157925,-17.0413956821371,-0.3185444053938892,0.7836445064825128,0.03180103062573011,14.691265278718038,-6.6219832563687575,-15.753793868707273
1760957755.6258376,-17.243308964680082,-0.31594879375538776,0.7710338283211813,0.05120863317254703,15.741103231716302,-9.440726275717072,-10.98059161420262
1760957755.635772,-17.38579734622978,-0.3077506455270109,0.7623475208069144,0.07195826525394786,16.525920233802612,-12.349777370245777,-5.99495380869461
1760957755.6458802,-17.4641817326649,-0.2940937957613145,0.7610932341078978,0.09162254169725627,17.12517398610593,-15.164788183740304,-0.8679037819326627
1760957755.6558523,-17.47582986029625,-0.2757939503575069,0.7709355372875855,0.10797044487596531,17.645764141519958,-17.689282695154677,4.309579921879132
1760957755.6660585,-17.4205618272903,-0.25426130764523536,0.7951338489470144,0.11920807751036001,18.20534892641402,-19.732030208230967,9.425351282944634
1760957755.6758375,-17.300784189499062,-0.23132858966669073,0.8359023178847131,0.12417050643444161,18.9127673917479,-21.12525799483825,14.348007410553988
1760957755.6857257,-17.12131758546068,-0.2090026360507105,0.893792532562381,0.12244659862710552,19.847836542737557,-21.74217427646827,18.932255848101804
1760957755.6956968,-16.88892306724573,-0.18916709800682355,0.9672220731636508,0.11441911398638288,21.043332877125806,-21.51234002344049,23.02782634291584
1760957755.7060606,-16.61156941967502,-0.1732717747342717,1.0522739718335081,0.10120656708822845,22.47232106153448,-20.43341530969233,26.49166672462033
1760957755.7158353,-16.29751902692646,-0.16205203012216926,1.1428654329674197,0.08450259358574924,24.04391874034016,-18.577688297798606,29.202655642210658
1760957755.725772,-15.954344320817167,-0.15532852325549454,1.2313251361690751,0.06632060380093058,25.609868296829884,-16.09163551045483,31.077429475749167
1760957755.7358012,-15.58801631106391,-0.15194040927051122,1.3093331317862564,0.048666524473675775,26.98284575777625,-13.186741637169677,32.08527013910735
1760957755.745851,-15.202221177289559,-0.14985916074308128,1.3690835391741212,0.033182805827680156,27.96533127579338,-10.120294417928555,32.259518389607344
1760957755.755818,-14.798048739504233,-0.14650724619069008,1.4044563908854504,0.020830007683282383,28.38531479058757,-7.166317727537602,31.702878073281816
1760957755.7658613,-14.374150806188842,-0.13925990014693812,1.4119615956466087,0.011685636970464978,28.13264198648094,-4.579342685546223,30.584432905247954
1760957755.775845,-13.927389345784553,-0.12604540489432728,1.3912622560717187,0.004927772511189304,27.188266576654904,-2.5567404239546905,29.127280444029438
1760957755.7857926,-13.453894548744296,-0.1059039527098684,1.3451853308339206,-0.0009710374967983477,25.638901433186323,-1.2075661533825781,27.587311608708898
1760957755.795883,-12.950350985385036,-0.07934857556178995,1.2792461990460726,-0.007873084237281131,23.67192014091284,-0.535927721136158,26.22550495289514
1760957755.805902,-12.415254997436888,-0.04841125129476587,1.2008080239061918,-0.017515539320876652,21.549506351070196,-0.4441758956429943,25.27763215242349
1760957755.8160584,-11.849869607418825,-0.016343294214097425,1.118046915736298,-0.031078548860899783,19.565958697236272,-0.7563499867351637,24.925984020604336
1760957755.8257391,-11.258664088142039,0.012961700134331653,1.0389017595837335,-0.04889263313591984,17.99631733655651,-1.2569481386461414,25.277420703449973
1760957755.83607,-10.649154246899244,0.03568008353162491,0.9701629787103154,-0.07035496273301961,17.046794320062265,-1.7360739155170934,26.350882450390785
1760957755.8459296,-10.03121316724326,0.048738297854837395,0.9168087857325282,-0.09406245889664429,16.81721505203067,-2.0305907574119564,28.0758439855656
1760957755.8558013,-9.416043801564706,0.050318812840204355,0.8816430058879069,-0.11811223283639764,17.28297809783003,-2.052376691319083,30.301458585384424
1760957755.8657398,-8.815055951141558,0.0401077260079623,0.865236965946109,-0.14048413381835012,18.29973916877103,-1.7984628652439727,32.814643300562025
1760957755.875896,-8.238866717354979,0.019266789320111503,0.8661379407720208,-0.15941109268776227,19.629289034672954,-1.3425118491106207,35.36433536311246
1760957755.8857014,-7.696567548699224,-0.009830088331406603,0.8812815908289793,-0.17365812706757766,20.981040127463938,-0.8114147499149091,37.688715539031556
1760957755.8958066,-7.195304156089754,-0.04401686787142607,0.9065333927687703,-0.18266339104373053,22.060927375452586,-0.3537509001690472,39.54231133895088
1760957755.90597,-6.740127576722734,-0.07981531900677569,0.9372809995810879,-0.1865335309169601,22.618728256783598,-0.1078879218816146,40.7203964244043
1760957755.915868,-6.334017675839214,-0.11388330133366577,0.9690055052837224,-0.18592000676889203,22.485808954181774,-0.17650845833163456,41.078761480917855
1760957755.9258015,-5.97796553615901,-0.14336529955399577,0.9977740568120063,-0.18182562663191754,21.597706751969017,-0.6118071519096859,40.54752935084333
1760957755.9358888,-5.671027009461967,-0.16611524749185008,1.0206130065256924,-0.17539734098902945,19.999071964599285,-1.412449984525529,39.138121423899854
1760957755.9457157,-5.410313065627101,-0.18079374905684292,1.0357320459842247,-0.16775197328422853,17.831633617229855,-2.5306266488300317,36.94282297541432
1760957755.9556808,-5.190943261837788,-0.18686031635026293,1.0425769203607707,-0.15986058533964018,15.30854523034914,-3.885792105631451,34.1268033593894
1760957755.9657314,-5.006036437742303,-0.18448817998702838,1.0417045621145182,-0.15249398629564687,12.680375974589756,-5.381142563268195,30.91302442228311
1760957755.976016,-4.846833353296399,-0.17443178671983373,1.0345085710837947,-0.14621627505435414,10.198862042346693,-6.919308891510201,27.561193806408546
1760957755.9856873,-4.703033015844007,-0.15787680866168136,1.02286128158192,-0.14140846737950646,8.084194801735398,-8.414804383415337,24.342676349388608
1760957755.9959111,-4.56337858846824,-0.13629502924505976,1.0087551539589015,-0.13830590657262165,6.50025055226251,-9.802023541999848,21.513914558112766
1760957756.0056825,-4.416459461764044,-0.11131196191541454,0.9940112978928952,-0.13703631761070106,5.540195756154046,-11.038700216760377,19.291274042150988
1760957756.0157003,-4.2516245937516715,-0.08458235676822347,0.9800903920911864,-0.1376487264952219,5.222876919783405,-12.105455224319343,17.83020623415451
1760957756.025976,-4.05985657133857,-0.05766681114177448,0.9680093903797364,-0.14012724892566586,5.498756310482991,-13.002328150099302,17.211167761077657
1760957756.0357573,-3.8344557954070995,-0.03191161367529285,0.958345469814079,-0.14438799042419503,6.26308552079134,-13.743133614652832,17.433905518853905
1760957756.0457315,-3.571430139069565,-0.008346309256582791,0.9512984926520189,-0.15026247752861435,7.373534985167614,-14.348364693089627,18.420641616330034
1760957756.055659,-3.2695590838091064,0.012379461108765585,0.9467826831836718,-0.15747668956276306,8.66952102495724,-14.837388940938643,20.02754845528668
1760957756.0657227,-2.930174372215848,0.03000222686657542,0.9445230178944141,-0.16563785849111132,9.990826129428395,-15.220876431881079,22.062869026344572
1760957756.0759156,-2.556746733169221,0.04459056790407922,0.9441387651159279,-0.17423911914035298,11.193624922899744,-15.494627042114733,24.30925478367293
1760957756.085932,-2.1543809908381375,0.05644393883520771,0.9452046475579554,-0.18268612316353372,12.162601244390995,-15.636027693655821,26.547458061836682
1760957756.0959942,-1.7293065807204333,0.06596933709343825,0.9472881397753997,-0.19034344746297002,12.81842952617292,-15.604132502077057,28.578486038408148
1760957756.1059906,-1.2884202427691667,0.07356394256663329,0.9499676321796118,-0.19659433729989872,13.120477958260764,-15.343804145419176,30.241708071507652
1760957756.1159477,-0.8389049616101852,0.07952715196350535,0.9528398749496598,-0.20090547240350995,13.065133344390993,-14.793581107979467,31.427129217668725
1760957756.125833,-0.3879242296224697,0.08401451602849648,0.9555265615058735,-0.20288851634860086,12.680581242981232,-13.896118858134509,32.08094668837896
1760957756.1359143,0.057621175152659874,0.08703293935295844,0.9576887340617258,-0.2023512303034249,12.01914009516427,-12.609403954363907,32.20443127248509
1760957756.1461444,0.4912869678530896,0.08846669703442132,0.9590532434118829,-0.19933213500745633,11.148330106623815,-10.916643210019593,31.846991419584956
1760957756.1558354,0.9072377362176546,0.08812072374773469,0.9594487325977987,-0.19411401416850738,10.141788613722111,-8.832884409247903,31.094889994846785
1760957756.16591,1.3003620135318414,0.08577018643211992,0.9588421837739682,-0.18721327143667157,9.07097439939639,-6.407014912244416,30.05744378971855
1760957756.1758735,1.6663541238172603,0.08120988438645775,0.957363576440542,-0.17934441228651432,7.998377262556341,-3.7186779341587193,28.852634524674425
1760957756.1858387,2.0017698722385258,0.07430052147011043,0.9553068543131036,-0.17136141225517698,6.972691578539149,-0.8706195878038945,27.59390739618914
1760957756.1957183,2.3040670436382316,0.06501077237179809,0.9530997044317421,-0.16417994738858535,6.026141893129389,2.0222074819210767,26.37955909770503
1760957756.2057438,2.5716451709199504,0.05345505505649781,0.9512411707719385,-0.15868630964648112,5.173895758062026,4.844966770168488,25.285590187790337
1760957756.2160077,2.8039002525614336,0.03992676321543261,0.9502136990329884,-0.1556407864384981,4.415308405650039,7.494749082967033,24.3623176318655
1760957756.2260365,3.0013055157992503,0.02492439793927736,0.9503838454526758,-0.15558565853426745,3.7366452093695504,9.890159263988856,23.634511131587388
1760957756.2357576,3.1655171060308898,0.009164334541982807,0.9519114761074623,-0.15877010091627114,3.114905294591525,11.977465935363462,23.104402178893427
1760957756.24588,3.299486628745088,-0.006428556345180274,0.9546883751967602,-0.1651046850816056,2.5223657136512116,13.732755570236387,22.756657296716675
1760957756.2559562,3.4075462286900624,-0.020760902116757976,0.9583232492903122,-0.17415570538835778,1.9314292410638423,15.160182530318806,22.564318963344522
1760957756.265748,3.4954201185653035,-0.03264730724876141,0.9621827860469808,-0.1851843558997355,1.31928950435596,16.286932187735122,22.494781629731907
1760957756.275847,3.5701111800067107,-0.040924842735154,0.9654893623250616,-0.19722914986594128,0.6718673823815406,17.155872709204527,22.51503831532457
1760957756.2857819,3.6396175405513915,-0.04459865875556442,0.9674653740293685,-0.2092229180731655,-0.013530474299001036,17.817060230270187,22.595645790274357
1760957756.2958193,3.7124599725704246,-0.04299726038284522,0.967502129401563,-0.2201286964182525,-0.7272960739554326,18.319281347548554,22.71307438593299
1760957756.305762,3.797046097931668,-0.035901441253004006,0.9653209074046278,-0.2290733004471459,-1.4486247870256186,18.70268916092025,22.85033066495962
1760957756.3157296,3.900945100293622,-0.023609221572467386,0.961090840254892,-0.2354562004918693,-2.1486262361513524,18.993372983799244,22.995977537997515
1760957756.3259342,4.03017676039172,-0.006914956163650637,0.9554761679277526,-0.23901577862281725,-2.7950696496271807,19.20045226932875,23.141906825516575
1760957756.33582,4.188624098781207,0.012996209148139199,0.9496013071357821,-0.23984312696166812,-3.3580547292105463,19.316024573486,23.280393307375896
1760957756.3458984,4.377663634803731,0.03471908172094652,0.9449390916781106,-0.23834210007126147,-3.8156903589766396,19.31802897614299,23.401032438030246
1760957756.3558984,4.596074760252145,0.05683354363812593,0.9431397816866813,-0.23514185047302572,-4.158855587410011,19.17581520923782,23.48812015397042
1760957756.3659446,4.840242792455329,0.07810668263766182,0.9458240663331562,-0.23097445192623756,-4.394309324827814,18.857940995994273,23.51888596966028
1760957756.3759582,5.104617194685582,0.09765412302431552,0.9543634146595044,-0.22653554979512883,-4.545747296682351,18.341455412878066,23.462780121829663
1760957756.3859737,5.382340813817565,0.1150308351213869,0.9696688714281952,-0.22234970423711192,-4.652790538546826,17.621662927464023,23.281801055633313
1760957756.3961766,5.665940528773929,0.1302373604999439,0.9920082340253418,-0.21866233169852972,-4.7682258479430875,16.72112031912766,22.931691131963685
1760957756.405781,5.947969649037728,0.14364568856598206,1.020873726012929,-0.2153751337527483,-4.954007665580238,15.696449968764924,22.363762904540774
1760957756.4158144,6.221513414244287,0.15586414150239153,1.0549272532421388,-0.21203288396324807,-5.27654542356315,14.6415275440558,21.52713773764525
1760957756.4258468,6.4805024449156345,0.16756980421920567,1.0920519538325177,-0.20786088775187916,-5.801709399938844,13.685784295667109,20.371238241192625
1760957756.4357784,6.719817701157358,0.17934017775293026,1.129527018499601,-0.2018481901050424,-6.589887504421679,12.986812922700615,18.848436114818586
1760957756.445731,6.935207896012889,0.19151269818218683,1.164315028377894,-0.19287081532159314,-7.691360685683869,12.717213243507107,16.916802292045674
1760957756.455777,7.123069638264299,0.20409250327971076,1.1934195608779552,-0.17984705312691265,-9.142228382391307,13.046599802570762,14.542922723251934
1760957756.4658573,7.280157462845209,0.2167186283161058,1.2142521384310738,-0.16190997499483495,-10.96108547111124,14.120739065209712,11.704710367805083
1760957756.4759905,7.403294465110222,0.22868903871289173,1.2249476625823814,-0.1385737391374427,-13.146620949021566,16.040646740779373,8.394059763369645
1760957756.485886,7.489145221110713,0.2390354049656211,1.2245814907939014,-0.10986520786258828,-15.676288984752563,18.844914159530493,4.619075434087582
1760957756.495747,7.534092988316738,0.24663032540845792,1.2132622817612382,-0.07639394518753899,-18.506204690136727,22.498348087682835,0.40549685347532527
1760957756.5057962,7.534237801043892,0.25030693611851723,1.1920967769388389,-0.03934181566914833,-21.572417022552703,26.88911987712522,-4.203084098179375
1760957756.5157504,7.485508749658724,0.2489762013878137,1.1630409290322075,-0.0003666474162753995,-24.793654001877112,31.835141936772953,-9.146463831165518
1760957756.5258083,7.383869003154181,0.24173707576896322,1.1286637823254253,0.03857008209335845,-28.07547379564394,37.098652092852646,-14.350428132379685
1760957756.5357656,7.225587274416211,0.2279814197901519,1.0918567165409652,0.07542721366569012,-31.315506655716067,42.40647521397637,-19.73022208267782
1760957756.5457962,7.007550698900376,0.20749448254666256,1.0555220487045485,0.10832454694746645,-34.409222708487384,47.47260719191905,-25.194173735040188
1760957756.5556884,6.727596554980364,0.1805453061336291,1.0222721832798818,0.13576019670500264,-37.25550396429715,52.01982878211678,-30.646805371554738
1760957756.565692,6.384840339502313,0.14795397656910148,0.9941667649309252,0.15676742913043676,-39.761300315330296,55.79786883154636,-35.991038870300166
1760957756.5759528,5.979973857292024,0.11111610698375726,0.9725146972456375,0.17098521297527494,-41.84483190653506,58.59684284379056,-41.12948189039572
1760957756.585838,5.515500668508117,0.0719618764828755,0.9577678690786723,0.17863510006730998,-43.43712107029345,60.255879654619605,-45.96514106938115
1760957756.5957046,4.995871716195682,0.03283210353614579,0.9495266143518353,0.180416918473142,-44.4820017034045,60.66769098954416,-50.4021464900051
1760957756.6057458,4.427485318300104,-0.003731484800738847,0.9466614928984294,0.1773503771741321,-44.93508098008205,59.78020469020001,-54.347145657455954
1760957756.6158142,3.8185248720201437,-0.03526483334574006,0.9475367125993995,0.17059557062738498,-44.76237127896569,57.59632007684367,-57.71192582839045
1760957756.6257987,3.1786240625653983,-0.05969389156466639,0.9503024723565635,0.16128461994805046,-43.93943296987866,54.172495294686,-60.41755834589675
1760957756.635788,2.518370023525499,-0.07563451918182444,0.9532100471642388,0.15039282563149406,-42.45183679282933,49.61640710545083,-62.39998311452839
1760957756.6458266,1.848675834835629,-0.08263064005461461,0.9548963978272057,0.13867013135027947,-40.29754122522968,44.08345354444184,-63.616563519707185
1760957756.6558702,1.1800729420103702,-0.08128369494359204,0.9545853702545208,0.12663977478622773,-37.49136188054381,37.77145913332609,-64.05281857324299
1760957756.6657257,0.5219909965946422,-0.07323489673241823,0.952162718574983,0.11465286330136183,-34.07108015007419,30.9126763956466,-63.728298364881425
1760957756.6758215,-0.11789461524695904,-0.06098064084722148,0.9481049828185547,0.1029726239291737,-30.10397200707004,23.76221520108994,-62.70041140938286
1760957756.6858501,-0.7341626473865904,-0.047531918599719905,0.9432751854694953,0.09185689898973684,-25.69185334828124,16.582519929515176,-61.06497843804759
1760957756.695915,-1.3239163770192324,-0.03596505037023078,0.9386332735275158,0.08161343215408157,-20.972453998091353,9.624475429039634,-58.95246371474743
1760957756.7057939,-1.886771528989058,-0.028943099480996708,0.9349360722761357,0.07261490547126123,-16.11531018430113,3.1069877601614477,-56.519322888142874
1760957756.7157695,-2.4245485014601895,-0.028303193666585368,0.9325097860699608,0.06527248212065039,-11.311446008236025,-2.8019365134265133,-53.93475537674407
1760957756.7259343,-2.9407056393351567,-0.034795993630134386,0.9311600750297169,0.059975393167669706,-6.757655681120549,-7.9990276618644165,-51.36425146890348
1760957756.7357876,-3.4395997006694343,-0.04802968961761265,0.9302423547366132,0.057013217258317365,-2.6377408735492907,-12.451358083566848,-48.952364125810476
1760957756.7459342,-3.9256953390227722,-0.06662231831661551,0.9288633992520152,0.056506992638255676,0.8959225700115073,-16.191963990686364,-46.80771077167232
1760957756.7559934,-4.402856408102545,-0.08851838102848067,0.9261462657921745,0.05837730726656791,3.7370117990554115,-19.305695058801916,-44.993054250554884
1760957756.7657876,-4.873833941013716,-0.11139285598778396,0.9214788580335673,0.06236588773531211,5.833468860709899,-21.90753165322584,-43.52243921798577
1760957756.7757754,-5.340023851187835,-0.1330557269503993,0.9146820279450627,0.06810690967844131,7.188164003968319,-24.117223174127552,-42.36603737449963
1760957756.7858713,-5.801513846714591,-0.15178262810046345,0.9060638835153172,0.0752262968018903,7.852417726024815,-26.03489233594889,-41.46192794286603
1760957756.7959287,-6.257387008298912,-0.16652433874115213,0.8963587805014889,0.0834382592093719,7.914005142207467,-27.72200555470171,-40.73277591832349
1760957756.8057692,-6.706209078518742,-0.1769792353090513,0.8865746125166989,0.09260854537213135,7.482019573659966,-29.190915035674962,-40.10444416270509
1760957756.8159301,-7.146602885827755,-0.18353943629137412,0.8777885813434328,0.10276213530582469,6.6712593079823685,-30.40437745896755,-39.523127706756505
1760957756.8260329,-7.577806046052802,-0.1871376610358628,0.8709380151583753,0.11402849682508114,5.588653830264528,-31.28451205864794,-38.9677510263838
1760957756.8358476,-8.000114055640566,-0.1890281684048821,0.8666478731130524,0.12653677705925648,4.323710938624741,-31.729018439138024,-38.455174483216304
1760957756.8458414,-8.41512905733258,-0.19053720698379334,0.8651230422106241,0.1402896666905638,2.9441324859583373,-31.6314276116536,-38.03712427563764
1760957756.85581,-8.8257654540983,-0.19282012452332248,0.866116578547009,0.1550516586769109,1.496766988982466,-30.90180309745029,-37.789408921568466
1760957756.8658814,-9.236004520288708,-0.1966620462173516,0.8689697956385353,0.17028281133599418,0.013128575957073282,-29.484583201656037,-37.79549898575316
1760957756.8758094,-9.650433819280549,-0.20235374697271355,0.8727107397322078,0.185135386423833,-1.4820239691044095,-27.37102397321309,-38.12754815624185
1760957756.8857784,-10.073644528310824,-0.20966324333322703,0.8761947126697455,0.19851354609690602,-2.96097431792851,-24.604773324504958,-38.82824147425615
1760957756.8958054,-10.509583484481194,-0.21790819049533325,0.8782701113191119,0.20918259420697288,-4.384200149797904,-21.28026599668368,-39.89651907714555
1760957756.9058795,-10.960963134449619,-0.22611705551043756,0.8779505916158942,0.2159086054141984,-5.694187795777053,-17.534721725371625,-41.27944529074271
1760957756.915936,-11.4288209161307,-0.23325073055621398,0.8745698280363716,0.21761062987946578,-6.813332761127344,-13.535470996264296,-42.8715060468592
1760957756.9260397,-11.91229158867963,-0.23844270648309063,0.8678914749944947,0.2135104195392692,-7.646771782367848,-9.46500953235678,-44.52156728720556
1760957756.9359393,-12.408616517053895,-0.24120831695559455,0.8581496402514823,0.203264168499555,-8.090129953948793,-5.506397008522825,-46.04666459577649
1760957756.9458008,-12.913371666325268,-0.24157592345730372,0.8460064271616258,0.18705804749612512,-8.041130805235639,-1.831208506481426,-47.25078786131796
1760957756.9558105,-13.420860827526969,-0.24010676542527482,0.832429483805748,0.16564913699678407,-7.413192051530625,1.408706973482523,-47.94602449846054
1760957756.9659066,-13.924598657747783,-0.23779343449076087,0.8185092643417985,0.14033855541772058,-6.148862416393792,4.085565569145191,-47.9729986877969
1760957756.9757683,-14.417801086062747,-0.23585482726730128,0.8052503859188422,0.11287321597416063,-4.231206952649161,6.0969498128157715,-47.21759971116746
1760957756.9859,-14.893807456442058,-0.23547068386135575,0.7933814343278248,0.08528456546794677,-1.6916703843273764,7.365457351587228,-45.62156055640451
1760957756.9959898,-15.346377452043747,-0.23751370417235337,0.7832290035087367,0.0596844499387778,1.386738105713332,7.838126154765487,-43.18546873729787
1760957757.0060387,-15.769833647471266,-0.24233785827383122,0.7746920592336143,0.03804682632390215,4.871880987526658,7.486738387832691,-39.96409066563686
1760957757.0160794,-16.159053358769377,-0.24966825389020122,0.7673313406475938,0.022006528423793276,8.591162357622245,6.3095938094799005,-36.055206684020426
1760957757.0259209,-16.50934558411593,-0.25861423114062937,0.7605590089430767,0.012701535307490661,12.346369421929163,4.334811864466472,-31.58421236415676
1760957757.0359752,-16.816274160116944,-0.2678006808122984,0.7538865731768996,0.010674764366121558,15.93353838221429,1.6247291892776208,-26.687336538952497
1760957757.0459542,-17.075501687006636,-0.27559145961188497,0.7471754411715846,0.015839687060740435,19.165430793078897,-1.719505047277736,-21.496366643694024
1760957757.05578,-17.282726076427355,-0.2803658328909066,0.7408362125782498,0.027505836461425497,21.893233287079088,-5.554445995961247,-16.12729210919526
1760957757.0659528,-17.433760399899473,-0.28080127848815584,0.7359343808325736,0.04445687286071242,24.02387323643529,-9.693531672147492,-10.674422662917033
1760957757.075843,-17.52477067687667,-0.27611347823969634,0.7341769877434694,0.06507199855192451,25.530005016645003,-13.910380183834862,-5.210513380273834
1760957757.0858288,-17.55264707467545,-0.2662117160242662,0.7377746355897293,0.08747762223579719,26.45100417913964,-17.947191987814843,0.20760029950857095
1760957757.0959814,-17.515455919659768,-0.25174796725265364,0.7491912568890552,0.10971207727552412,26.88478322291799,-21.528525933121816,5.529283152114069
1760957757.1059818,-17.41290934542177,-0.23406380668461002,0.7708055762180216,0.129887286267275,26.971579212038492,-24.379947558924094,10.698450049026135
1760957757.1159525,-17.24679026044699,-0.21505637842852987,0.8045155919576172,0.14633813723271724,26.871920321670526,-26.250340206077695,15.642564153558054
1760957757.1260605,-17.021271533432135,-0.19698455747026666,0.8513268323806849,0.15775648010062127,26.741735996933865,-26.93605319733921,20.264935970460698
1760957757.135833,-16.743066317291856,-0.18222689556042101,0.910977649925435,0.1633062930399765,26.707986375772183,-26.304582242593398,24.442666218277115
1760957757.1457312,-16.42134816466966,-0.17299898045070433,0.9816654116077098,0.1627105600689629,26.848161046430885,-24.315236700980876,28.031816939184182
1760957757.1559427,-16.067393677114644,-0.17104486149812304,1.0599406089930843,0.15629355546806153,27.1765631249957,-21.034281572942156,30.880183674864075
1760957757.1659014,-15.693929474637828,-0.17732970249657026,1.1408277904961104,0.1449592163222402,27.63964266609328,-16.64222798793702,32.84656455797191
1760957757.1759834,-15.31420620288929,-0.19177335735252143,1.2182093834052772,0.13009008548324535,28.121901215029087,-11.431156372776577,33.82400479030036
1760957757.185926,-14.940869946044746,-0.21307656799124433,1.2854681275249347,0.11336213676552598,28.462922502730894,-5.7902515947324416,33.76342116308761
1760957757.1957936,-14.584749248002868,-0.23870101512323913,1.3363266713493545,0.096486815199265,28.484623936532795,-0.1783404725158864,32.693450770511895
1760957757.2060394,-14.253714683194183,-0.2650609483118253,1.3657584483943215,0.08091185576727619,28.025795317669594,4.916553568172292,30.732429219685912
1760957757.2157621,-13.951786083806365,-0.28795276528945546,1.3707952113160349,0.06753574727133756,26.978724598169848,9.028499045487873,28.089165538328444
1760957757.225948,-13.678649644686713,-0.3031865351908545,1.3510525040401824,0.056509723376495916,25.32091060387051,11.77060989886552,25.05067016479242
1760957757.2357862,-13.429697788307243,-0.30730951886846675,1.3088483319173705,0.04720123520829773,23.134380993558736,12.88922643910606,21.95711273225555
1760957757.246143,-13.196622642782806,-0.2982602517258982,1.2488857088073249,0.03836143647752812,20.606571312935564,12.304847258331682,19.16669550781786
1760957757.2558472,-12.968494560758964,-0.27579042413609633,1.1775698138626731,0.02847826327332366,18.01005970729252,10.129988240196647,17.015227837058312
1760957757.2658608,-12.733165095901885,-0.24154581792168953,1.1021009337932985,0.01622798312081082,15.662994145064236,6.657976176031124,15.776377166241215
1760957757.2760715,-12.478776538160542,-0.19878761004604503,1.0295096452706207,0.0008939877761099301,13.876669682101838,2.322769344723159,15.628563703429805
1760957757.2858214,-12.19515572759395,-0.15182797103877935,0.9657870950747623,-0.017375219607380414,12.90020684052494,-2.3635994310527075,16.633354298669715
1760957757.2958665,-11.87491608053012,-0.10531781717783405,0.9152287634643637,-0.03754705236094559,12.87364492094429,-6.884339953991757,18.728333654933788
1760957757.3058496,-11.514166181253817,-0.06354423296173956,0.8800683503376513,-0.0579275924188204,13.799424096297885,-10.788235573439648,21.735185172381264
1760957757.3159592,-11.11279966882609,-0.029872716555542866,0.8604323550670949,-0.07655671244641798,15.538334391374645,-13.744570949956238,25.38146246262681
1760957757.3258748,-10.67440320114166,-0.006417970725015133,0.8545961738964554,-0.09166113369710162,17.830595981356687,-15.574464902177525,29.332611883560816
1760957757.3359182,-10.205859211714897,0.0060358018474670596,0.8594764242636109,-0.10204335282868701,20.337387886434726,-16.256046436030555,33.22953178083103
1760957757.3458016,-9.7167340429318,0.007899528403941189,0.871262412976921,-0.10731263543237608,22.69426301708057,-15.906267884379304,36.72654166590283
1760957757.3560588,-9.218532006037393,0.0004989709157572967,0.886076819845007,-0.10791690775288694,24.566223682651508,-14.746000089159331,39.525116655633
1760957757.3659077,-8.723871802610338,-0.014266312781965454,0.9005599245125843,-0.10499209476645853,25.69486210831343,-13.056816313631364,41.3999485576872
1760957757.3757617,-8.245617059350637,-0.03424622286230523,0.9122919993022228,-0.10008898473303446,25.930443332022495,-11.137582280035938,42.21547445299099
1760957757.3859162,-7.795979509410192,-0.05729054554224536,0.9200037457466427,-0.09485618967217209,25.24530004357665,-9.26716013297197,41.93253090833307
1760957757.3957477,-7.385618067863242,-0.08140591712515254,0.9235666328097859,-0.09075145301632619,23.7284986318555,-7.67697798768404,40.60590999776408
1760957757.406043,-7.022777819348202,-0.10483062227362683,0.9237921069766817,-0.08883170988930221,21.564708750647505,-6.53466733347281,38.37421366103625
1760957757.4158418,-6.712539772178891,-0.12605684754602492,0.9220962326658272,-0.08964677836757316,19.00219766425768,-5.937979777235224,35.44364376173675
1760957757.4262002,-6.456271174761811,-0.1438322843308062,0.920105062511709,-0.09323890523992551,16.315797083396763,-5.9170195518841515,32.06742765596325
1760957757.4357631,-6.251365479180901,-0.15716354239919472,0.9192829096651806,-0.09923117148526703,13.770640542105369,-6.442429902079432,28.522616228599787
1760957757.4456956,-6.091336027822999,-0.16532969776339726,0.9206540108158622,-0.1069727062436209,11.591587046030654,-7.437316260432857,25.08604406605438
1760957757.4558492,-5.9662821827829084,-0.1679020737041007,0.9246576109321069,-0.11570141538611223,9.941705918309967,-8.791094692530017,22.011265073535952
1760957757.4659028,-5.863691374583239,-0.16475965045545518,0.9311397265611536,-0.1246882612795346,8.911290191186925,-10.373880124385028,19.508221866024996
1760957757.4759486,-5.769488110554419,-0.15608824961709605,0.9394571344063589,-0.1333391227219964,8.517027475698686,-12.050311314580917,17.727257493810875
1760957757.4859636,-5.669202794896079,-0.14235446943784766,0.9486545157643557,-0.14124535512393596,8.709592436984368,-13.691807994439252,16.748820116820593
1760957757.4959302,-5.549118235929756,-0.12425178624771595,0.9576695642971043,-0.1481870729356944,9.387208538663165,-15.186281446560384,16.57980474879319
1760957757.5059977,-5.3972644561879,-0.10262527697769985,0.965522333701205,-0.15410150423145533,10.412590201538855,-16.444453724939315,17.15688131021209
1760957757.5157561,-5.204169414887485,-0.07838946081724525,0.9714565466401298,-0.15903254602084882,11.630926469503931,-17.402290271131214,18.356406705048244
1760957757.525804,-4.963323435149237,-0.05245681230623076,0.9750187999173487,-0.16307748033075656,12.886999316354151,-18.019593145202588,20.00974306543437
1760957757.5357366,-4.67136542064713,-0.02569166054479264,0.9760782895765329,-0.16634334866629497,14.039994614382623,-18.27542979640816,21.922168885040666
1760957757.5459008,-4.328038900275585,0.0011028038369171286,0.9747993678663631,-0.16892001840772616,14.974989423631293,-18.161646716198312,23.893181863547035
1760957757.5558689,-3.935988358872049,0.027165977410993927,0.9715821197016875,-0.17087127267491783,15.610479178890952,-17.67609883738525,25.73589126233301
1760957757.5658507,-3.5004672290041348,0.05174124455492029,0.966984990846708,-0.17224073421560895,15.901672268996025,-16.817295174117305,27.29339306501872
1760957757.575797,-3.029009457416724,0.07403668229959375,0.961641009473968,-0.17306685344554337,15.839658269472208,-15.58184272871718,28.45050307080054
1760957757.585807,-2.5310845489832285,0.0932066363033074,0.9561771843880223,-0.1734006751915082,15.446950226958624,-13.96537677371779,29.139927683022677
1760957757.5958428,-2.017724042320082,0.10837039266456,0.9511456322105571,-0.17332111686830032,14.77026744922819,-11.966749785322866,29.34274460453148
1760957757.6058102,-1.5010875784544544,0.11867303834586844,0.9469735360653478,-0.17294416444019872,13.871693455738399,-9.594382339168146,29.08379048143331
1760957757.6159115,-0.9939357110668711,0.1233811202232892,0.9439356555686386,-0.1724241519509978,12.819457680944076,-6.873120763158181,28.423109092369053
1760957757.62586,-0.5089942879309256,0.12199580069218545,0.9421483132217368,-0.17194707454806735,11.679530683894287,-3.849833643475018,27.444967121727142
1760957757.6358929,-0.05822639384440429,0.1143605559229221,0.9415799666119233,-0.17171752664095774,10.50900043344583,-0.5962819501279341,26.24607940867806
1760957757.6458607,0.34793689890990337,0.10073993832598832,0.942072453610497,-0.1719417091222956,9.351838992389668,2.7916219690104147,24.92458618275135
1760957757.6558414,0.7013285590946398,0.08185134885448908,0.9433686150554488,-0.17280860543030838,8.237235608489271,6.198348500312788,23.5710084262516
