timestamp,angle,linear_acceleration_x,linear_acceleration_y,linear_acceleration_z,angular_velocity_x,angular_velocity_y,angular_velocity_z
1760596086.7373445,0.759530340658984,-0.303432250076442,0.8736023478215691,-0.08619955698047858,25.940151264323696,26.6459517094447,-36.481991312934355
1760596086.747325,0.2768262953688606,-0.2550267550906524,0.9113902650767133,-0.09804220445421517,27.405990012628838,16.857997634252264,-37.161916668979615
1760596086.7573426,-0.1705485325016246,-0.19852530753407605,0.9489822283203794,-0.1113166839390085,28.31660646226077,8.09071498938677,-37.371001311311296
1760596086.7673585,-0.5750727935842597,-0.13921264076198853,0.983486672653127,-0.1259637952399141,28.596379057157765,0.8427766691523525,-37.00759464848917
1760596086.777735,-0.9326639960951183,-0.0823843862864152,1.0126122968280538,-0.14158891259294623,28.246553057884466,-4.57878870025523,-36.04182980869572
1760596086.7873392,-1.2431843268783422,-0.03278496387788559,1.0348010879337544,-0.15743987808274662,27.33278578161888,-8.059983747876089,-34.51440553111231
1760596086.7974048,-1.5103928816883563,0.005897713697875187,1.0492548915516389,-0.17250995258188404,25.96737480101496,-9.667821427552246,-32.52493187449009
1760596086.8073425,-1.7413575467910158,0.0313926681587191,1.0558746124513445,-0.18572537253832105,24.289537849513163,-9.625461427772324,-30.213550143028126
1760596086.817428,-1.9454376071447337,0.04300544992216677,1.0551428109744503,-0.1961549099528801,22.446738658408645,-8.275652992928379,-27.74014060209976
1760596086.827359,-2.1330205382665133,0.04156063376120063,1.0479815321948913,-0.20318234415973763,20.579207451462732,-6.035316291475878,-25.26494512501005
1760596086.8373797,-2.3142258186955713,0.029151952142779297,1.0356098793779025,-0.20660575449617613,18.80872407963936,-3.345930722931828,-22.933219573832094
1760596086.8473582,-2.497771396830405,0.008757312218579071,1.0194150822266375,-0.20665485505196096,17.231722799077254,-0.6254856472823729,-20.865040473489508
1760596086.8573341,-2.6901471437966777,-0.016209152446422063,1.000841737621399,-0.2039375832857526,15.916102025346046,1.7723951113714265,-19.150067770127205
1760596086.8673494,-2.895173976677791,-0.04233937465324729,0.9812991443589479,-0.19933690370735116,14.90087019081589,3.5878341773249662,-17.84622798991821
1760596086.8773804,-3.1139639094748124,-0.06661464545789031,0.9620856462809626,-0.1938805237225043,14.19782913886131,4.670218473547646,-16.9810192607687
1760596086.8873672,-3.3452438039357193,-0.08669552541557711,0.9443295628702872,-0.18860345026408848,13.794703695227042,4.979550398326564,-16.554321682651405
1760596086.89733,-3.585965600940803,-0.10110094726983263,0.9289469158010107,-0.18441939806509072,13.65932327049921,4.575110316934172,-16.541988739214897
1760596086.907342,-3.8320962724208294,-0.10927152743547044,0.9166159578424041,-0.18201397210923992,13.744579148570983,3.5942142299882334,-16.899879476905785
1760596086.917335,-4.079460791684474,-0.11152086148274717,0.907767498603694,-0.1817702452579708,13.993903330581622,2.224645274740216,-17.568231680250477
1760596086.927343,-4.324504468531558,-0.1088865436568846,0.9025888787672369,-0.1837347528254335,14.346959964340783,0.6746518942591813,-18.47634005449006
1760596086.9373567,-4.5648529533010125,-0.1029019859551537,0.9010389611519106,-0.18762806510046748,14.74515610499923,-0.8557232457756487,-19.547441041172164
1760596086.9473484,-4.799582188518873,-0.09532015708330155,0.9028719752236917,-0.19289855634652506,15.136526196515659,-2.198741942557391,-20.70360513610966
1760596086.9573543,-5.029163183201741,-0.08782831092011308,0.9076691313047941,-0.19881121458261047,15.479573755388962,-3.2360975472253077,-21.87037282672254
1760596086.967344,-5.255108324351546,-0.08179568578256632,0.9148777666295208,-0.20455684667302462,15.745775230190745,-3.9077324757611125,-22.980867449713912
1760596086.9773598,-5.4794040744937815,-0.07809191505632335,0.9238573395110906,-0.20936295024704366,15.920625984067398,-4.212150968449697,-23.979155399949676
1760596086.98735,-5.703855939254186,-0.0770019131763795,0.9339293926827914,-0.21258757059040367,16.00327185528693,-4.1990991683964145,-24.82267177679533
1760596086.9973538,-5.929486064697722,-0.07824543331154052,0.9444257264774534,-0.21378200324853922,16.004876978505756,-3.9563437440390805,-25.483585395709692
1760596087.0073814,-6.156109650441525,-0.0810908855095594,0.9547277267450505,-0.21271599891878765,15.945931405799024,-3.5928481467830875,-25.94905436037087
1760596087.017432,-6.382178627887275,-0.08453792565575471,0.9642916710506684,-0.20936788426501982,15.852736203795459,-3.2208826595464153,-26.220422761399593
1760596087.0273445,-6.604929079532751,-0.08753433717441242,0.9726591581491262,-0.20388925866619548,15.75335501315756,-2.9395085494274142,-26.311512115474482
1760596087.037344,-6.820813057890716,-0.08919024589922102,0.9794561299972555,-0.19655784365462584,15.673401159121624,-2.821482589666073,-26.246239672741492
1760596087.0473602,-7.026145127301516,-0.08895596798072708,0.9843864353233719,-0.18773205953837263,15.63212169871587,-2.905005514111779,-26.05582486127294
1760596087.0573616,-7.2178564310516045,-0.08673765852081901,0.9872264808247057,-0.17781761599002324,15.639306755728448,-3.1909853639555465,-25.77581829170926
1760596087.0673523,-7.394229575949324,-0.08293610687041664,0.9878269146095261,-0.1672512614712864,15.693546100291936,-3.645716523729974,-25.443123784693483
1760596087.0774043,-7.5554887227075165,-0.07840670347486527,0.9861255014071214,-0.156501549117713,15.782235180875238,-4.208192186870111,-25.093118567398825
1760596087.0873501,-7.704139915087168,-0.07435030986583244,0.9821719328084922,-0.14608227832022933,15.883492233194717,-4.800758111551955,-24.756943758700455
1760596087.097332,-7.844992540676452,-0.07215349694621001,0.9761605414012692,-0.13657137429398394,15.969823397196826,-5.3415402554257385,-24.4590517980218
1760596087.1073472,-7.984838724816964,-0.07320219304144493,0.9684623624862823,-0.128626091346831,16.013032684280137,-5.757053507775955,-24.215150044926986
1760596087.1174352,-8.131818436328292,-0.0786958694844979,0.9596458573653832,-0.12298475463190278,15.989593377845077,-5.9935715237091856,-24.030736868489484
1760596087.1273692,-8.294547307283654,-0.0894893265830698,0.9504768036368321,-0.12044641651955466,15.885536506812024,-6.026110710740187,-23.900439250799366
1760596087.1373563,-8.481122105605053,-0.10598429844607146,0.9418912869617172,-0.12182312422343933,15.699901426531406,-5.8641656809266784,-23.80828751357275
1760596087.1473675,-8.698136708681327,-0.12808358340402384,0.9349397504877056,-0.12786475739864922,15.445932637095165,-5.553586697048523,-23.728898946573104
1760596087.1573539,-8.949836031757586,-0.1552090948406723,0.9307042487462196,-0.13916281420319085,15.149473992026408,-5.1742198758871725,-23.629336891594672
1760596087.1673796,-9.237510166425647,-0.18637573343350577,0.9301957275399882,-0.1560452425592113,14.844382298636729,-4.833187885579453,-23.47125116639877
1760596087.177396,-9.559194142904541,-0.2203074569155116,0.9342427263725173,-0.17847709346095653,14.565231381482157,-4.654053747561499,-23.21286938200248
1760596087.1873493,-9.90969951785784,-0.2555803238999578,0.943385805533696,-0.2059813329115362,14.338059161916828,-4.762665370868097,-22.81052932625781
1760596087.1974034,-10.280968510823678,-0.2907771216413425,0.9577915860676377,-0.23759348592828677,14.170356840554478,-5.27123128013702,-22.219690366316144
1760596087.2073936,-10.662709703430002,-0.3246354096349403,0.977195462876494,-0.27186438424839104,14.041836946037385,-6.262965654000661,-21.39565049842441
1760596087.2174144,-11.043243266225703,-0.35616422700003886,1.000873970053311,-0.3069236253284118,13.897662766322084,-7.780113158848245,-20.29440106728206
1760596087.2274342,-11.410454809691572,-0.3847007078492248,1.027641438100605,-0.3406074946605397,13.645688685758218,-9.817935554471758,-18.874058708576555
1760596087.2374628,-11.752739552046572,-0.4098868811671196,1.0558666540817474,-0.37063956725153396,13.158810575880775,-12.326157138174953,-17.09709538435151
1760596087.2473705,-12.059822519892867,-0.4315715506615256,1.0835136959843423,-0.3948375344385125,12.282813122260512,-15.217676296480205,-14.93323813234394
1760596087.2573576,-12.32336711770714,-0.4496704675300846,1.1082199965048523,-0.4113142626646251,10.849254979980655,-18.382632023534768,-12.362589334879647
1760596087.2673593,-12.537324742465003,-0.46403300210944337,1.1274262034956635,-0.4186457689508478,8.692108747183052,-21.704767825102582,-9.378347323570699
1760596087.2773476,-12.69802006038194,-0.4743583957596461,1.1385642537363796,-0.4159877064195211,5.666236002409694,-25.076790854968795,-5.988521964440674
1760596087.287353,-12.804000982912843,-0.48018626500359934,1.139296517467204,-0.40312988345234735,1.6654664507758281,-28.412044021195214,-2.216200097264403
1760596087.2974179,-12.855703956494878,-0.48096462015474756,1.1277870515772663,-0.38048565509052107,-3.3618944276069724,-31.650978782016885,1.9018562257842566
1760596087.3073301,-12.854991786936925,-0.4761792957581965,1.1029798070570764,-0.3490222755145878,-9.401959745787263,-34.76220186818324,6.31825409616471
1760596087.3173447,-12.804615863994085,-0.4655125026346893,1.0648548384165577,-0.3101489374274252,-16.36987957918376,-37.73888891146811,10.97937637919879
1760596087.3273475,-12.707645710253704,-0.4489873797202046,1.0146264273351444,-0.26558696090867984,-24.11093588853068,-40.59193104796373,15.830590420086487
1760596087.337347,-12.566904493915052,-0.4270541043652121,0.9548372566705556,-0.2172468883326383,-32.408291191026166,-43.341341692489635,20.821442161418364
1760596087.347348,-12.384451886300614,-0.4005842086324438,0.8892987494102614,-0.1671282726119136,-40.99697854353252,-46.00732812437425,25.90988157508458
1760596087.3573284,-12.161162115816246,-0.37076203315608963,0.8228386549280191,-0.11724119819323485,-49.58306753899526,-48.60214335597409,31.06462012915254
1760596087.3673398,-11.896449630622923,-0.3388905817642288,0.7608475275620031,-0.06952998760973914,-57.8662552916925,-51.12347688482739,36.264987750112134
1760596087.377435,-11.588190960700688,-0.3061555439006125,0.7086642435864411,-0.02577155930717331,-65.56359283960381,-53.54979340525135,41.49810485408313
1760596087.387366,-11.232872736091293,-0.27340681926778976,0.6708969220855318,0.012563861575676011,-72.43187373568345,-55.83771514521437,46.75373007757977
1760596087.3973768,-10.825960557971772,-0.2410147264889578,0.6508163424534599,0.04446969572230733,-78.28643166538629,-57.92131231245064,52.01767599356793
1760596087.407354,-10.362441536199988,-0.2088381275054109,0.6499526085129107,0.06953684756975083,-83.01454229946874,-59.71313250495007,57.265095306561555
1760596087.4173555,-9.837464897981718,-0.17631214889736826,0.6679604594837948,0.0880292413180905,-86.58204922111491,-61.10702017597259,62.45509862324061
1760596087.427353,-9.247003242542384,-0.1426363214792228,0.7027300816855503,0.1008779239974337,-89.03219650351011,-61.98310448038364,67.52794393785746
1760596087.4373703,-8.588473657335609,-0.10702759075230658,0.7506703471028614,0.10957620651870227,-90.47624649576699,-62.215484934374096,72.4054399721401
1760596087.4473946,-7.861273318939767,-0.06899527131319748,0.8071046209424558,0.11597579350312807,-91.07663144406668,-61.68290166591135,76.99443358208939
1760596087.457337,-7.0671896051733665,-0.02859098938571225,0.8667552086344646,0.12201785034239304,-91.02499266888816,-60.282071283182795,81.19258348151273
1760596087.467349,-6.210649067597863,0.013414672686998974,0.924295142403755,0.1294573091322023,-90.51868821768416,-57.942690546531416,84.89522863331489
1760596087.477444,-5.298783820529133,0.05547061837449021,0.9749099508723794,0.13963738829850197,-89.73934079807529,-54.64262446933192,88.00208252607506
1760596087.487343,-4.341315466160158,0.09532379063181905,1.0147805171434614,0.15334998042758197,-88.8357479128742,-50.42149858945007,90.4227156798751
1760596087.4973595,-3.3502735227063782,0.13024034920956784,1.0414049941087327,0.17078612255931658,-87.91183530916359,-45.390720325135874,92.08027076124671
1760596087.507345,-2.3395700323076034,0.15734965298593437,1.053717461490213,0.19155586910718375,-87.01917700622414,-39.7379414874169,92.913472365053
1760596087.517361,-1.3244472439575612,0.17407155751753303,1.0520088781396317,0.21475584523777955,-86.1533035976199,-33.72423351833298,92.8776067546262
1760596087.5273464,-0.32080877724845597,0.17857061471958938,1.0376929594117175,0.23907861428487442,-85.25351782335079,-27.67270911324453,91.94558270951144
1760596087.5373504,0.6555563982535911,0.17016706147885244,1.0129783016376745,0.26296571365328536,-84.2068550205747,-21.947955305486918,90.11024021986053
1760596087.5473666,1.5898392805410826,0.14962760916675139,0.980509377118584,0.2847956743024281,-82.85752407801503,-16.92659945091758,87.3886243763645
1760596087.557401,2.4691281614139253,0.11926551231678802,0.9430294499551297,0.30308153151974304,-81.02302068215083,-12.960727312471304,83.82805238453905
1760596087.567364,3.2833126614169506,0.08280307454740497,0.9031051197413893,0.31664328511872003,-78.51691567443399,-10.337545146727964,79.51271875765916
1760596087.5773652,4.025879661425215,0.04498790593254421,0.8629374913250542,0.3247240071500908,-75.1764222228941,-9.240243110028883,74.56864381463767
1760596087.5873632,4.694486412450208,0.010999768904714508,0.8242677780326734,0.32703242382390807,-70.89088715875441,-9.716044703481929,69.16430845017608
1760596087.5973814,5.291196320266907,-0.014270663194913281,0.7883673397875196,0.32371547796974465,-65.6260116533105,-11.657511994788203,63.50459315590811
1760596087.6073675,5.822289018613862,-0.02695485349217287,0.7560893711952811,0.31528377464184554,-59.438404524042106,-14.80202859932418,57.8167472910655
1760596087.6173418,6.297608467460061,-0.024817119151188193,0.7279547629482129,0.30252263800316803,-52.476247759525904,-18.751946419946847,52.32890218628698
1760596087.62735,6.729485020536768,-0.007614960395114339,0.7042463915414215,0.28641858895342304,-44.964295395147175,-23.014414169051005,47.24370695089529
1760596087.637388,7.13134640090988,0.02288280310623399,0.6850918410326611,0.26811799512823015,-37.17469994623196,-27.056028215361337,42.711452102990926
1760596087.647373,7.516198275086654,0.06324438846484723,0.6705225653582932,0.24891611325727667,-29.38859050898924,-30.364136359187768,38.80796711425921
1760596087.6574214,7.895186703177191,0.10902732366480464,0.6605047925391374,0.2302560431131029,-21.85602764573369,-32.50498433188326,35.52220308150875
1760596087.6673956,8.276439928173314,0.1555925079408385,0.654940901486841,0.2137055444309096,-14.762947554714879,-33.16967517022686,32.756700682084265
1760596087.677463,8.664329456653473,0.1988968816359276,0.6536397969397774,0.20088294067240886,-8.212326722386988,-32.20201969441777,30.34154932857741
1760596087.687368,9.0592092965185,0.23609656923930813,0.6562561337313652,0.19332296460155357,-2.223241839945942,-29.606739226521622,28.059738663354842
1760596087.6974,9.457613781192162,0.26585551993598133,0.6622075420246213,0.19230061003335064,3.253147855252393,-25.540612482421736,25.67971255287078
1760596087.7073667,9.852840106617553,0.28833820460295617,0.6705955403362712,0.19865245214076357,8.305914630516677,-20.291776725520897,22.989845648882874
1760596087.7173686,10.235818764054574,0.3049391723034911,0.6801686824255148,0.21264056798581296,13.032703197009806,-14.252942302770483,19.82952530186655
1760596087.7274292,10.596175522038202,0.3178492675405733,0.6893658856544769,0.23389019729269303,17.511917326221827,-7.892923710610631,16.11241566591199
1760596087.7374308,10.92339677762914,0.3295733344349296,0.6964653767353257,0.2614036510549492,21.784520871971292,-1.7283494607548546,11.8390514214621
1760596087.7473679,11.208010372357554,0.34250032555871507,0.6998455744507014,0.2936248967363872,25.848133970369464,3.705272629218547,7.097729062721998
1760596087.7574565,11.442678487253811,0.35859182162746106,0.6983384401959623,0.328518292804601,29.66318573060743,7.885760116808025,2.0542746010092756
1760596087.7673576,11.623077594204478,0.37921260484279135,0.6916243379814985,0.3636392038878981,33.168777247532475,10.342606367494176,-3.0675771181712523
1760596087.7773705,11.74843729815118,0.40509070260947094,0.6805898495986261,0.3962078038892692,36.30460265106742,10.702940026440505,-8.01273243035645
1760596087.787381,11.821641985576834,0.43636773029052006,0.6675582617932794,0.42322743901328325,39.03447070097722,8.74384950291064,-12.525331013468694
1760596087.7973642,11.848858526432593,0.4726792892160387,0.6563107289578862,0.44168824537828216,41.366502066065415,4.4464284828050324,-16.380254271559984
1760596087.8073761,11.838718227471457,0.5131918044390449,0.6518412862102955,0.4488589623395081,43.36514179160562,-1.9564758708551178,-19.412354811959815
1760596087.8173676,11.801135658035712,0.5565292298794177,0.6598277007011584,0.4426180547117646,45.151108444440496,-9.949298864034485,-21.540347134224124
1760596087.8274553,11.745885084291455,0.6005619615471833,0.6858491931639793,0.4217442150975984,46.887463156369435,-18.730675022192877,-22.782659203069464
1760596087.837398,11.681077749610264,0.6420970051429764,0.7344329763776267,0.3860968408755036,48.752821772255906,-27.247400262129585,-23.263125963113637
1760596087.8473895,11.611695023472466,0.6765799963676866,0.8080539840927513,0.33665958676972657,50.90568908653787,-34.270086376126734,-23.20520427238774
1760596087.857376,11.538340173910145,0.6979654482221368,0.9062408447537302,0.27546364719814403,53.446220188976575,-38.50876952653881,-22.91435875421053
1760596087.8673775,11.456377486288137,0.6989104841486953,1.0249557253530672,0.20542772211590132,56.38286708444963,-38.75971268282664,-22.749314000199277
1760596087.8774226,11.355624463827255,0.6713968031722458,1.1564146683080287,0.13014584908035923,59.61116775850441,-34.06828168893669,-23.083944917873804
1760596087.8873956,11.220737155315321,0.607797488574415,1.2894917473951193,0.05363396302245852,62.910513358642426,-23.88811534555815,-24.262755462832516
1760596087.8974328,11.032368786584946,0.502295631009955,1.4107929530086778,-0.019972304719752983,65.96233472997699,-8.214458955289782,-26.55423323514737
1760596087.9073822,10.769085724582444,0.3524472123980896,1.5063814726182267,-0.08677753828677653,68.38993026619421,12.330381913029482,-30.10769478686019
1760596087.917366,10.409902125819722,0.16058236010723562,1.5639803875050309,-0.1435332026650659,69.81614399268177,36.47902998828358,-34.92014139268364
1760596087.9273672,9.937165593746784,-0.06531460812240404,1.5752912390078688,-0.18804706998854462,69.93055068230044,62.38283282424992,-40.819658752449676
1760596087.9373858,9.339417206879336,-0.31158142020933677,1.5379077006922108,-0.2195168721529871,68.55368590415179,87.76311172516851,-47.47065348642007
1760596087.947417,8.613788570528442,-0.5599143028587098,1.4562671240472094,-0.2386847053021801,65.68388682275346,110.14271702705466,-54.40351597949473
1760596087.9573717,7.767511802140667,-0.7894318569784111,1.3412473131170533,-0.24771495945760347,61.51412187558265,127.13488928306712,-61.06719903133574
1760596087.967361,6.818221512005133,-0.9794448417718709,1.2083728853681448,-0.24976178533525453,56.412182018082,136.750884760112,-66.89831140089845
1760596087.9773707,5.792916135764774,-1.1123714701921534,1.0750207366879296,-0.24830202433618806,50.866318448424884,137.67768216579842,-71.39588853543471
1760596087.9873762,4.725685187202058,-1.1761645889319612,0.9573249076245176,-0.24640534470530812,45.40694665344394,129.4770458831756,-74.1885512243485
1760596087.997379,3.654537709194228,-1.165772790064822,0.8675447200789247,-0.24613737042070205,40.52048386914245,112.66915366313404,-75.08149861989101
1760596088.0073884,2.617817038689201,-1.0834788570991973,0.8124650585625934,-0.2482419807621993,36.57237502024403,88.68541041315335,-74.074947522604
1760596088.0173774,1.650715498090425,-0.9382731342738643,0.7930462973185346,-0.25216318303769764,33.75346837836524,59.699681553539435,-71.35210054799666
1760596088.0274138,0.7823166967074746,-0.7445753967528091,0.8051850979348162,-0.256376681823446,32.058657358989066,28.367863920504746,-67.24133454802319
1760596088.0374308,0.03344207496397869,-0.5205953922102001,0.8412090925016315,-0.2589218156510788,31.300441952051195,-2.4821719224582135,-62.16196923028925
1760596088.0474057,-0.5845794147948303,-0.2865121592827228,0.8916544368873945,-0.2579723472209716,31.153653542914785,-30.165579100160706,-56.564720281423405
1760596088.0574465,-1.07022760684652,-0.0625717575928071,0.9469388188567925,-0.25228335700044713,31.22179724485183,-52.42071868892274,-50.876975547009025
1760596088.067367,-1.4312922978834226,0.13279151127183808,0.9986800060407665,-0.24141230552717874,31.111321578985265,-67.62438764884034,-45.46027531176528
1760596088.0773675,-1.6837138617039307,0.28464594221043343,1.0405544936812259,-0.22570936691543983,30.49889393233405,-74.9235445399172,-40.583918506420645
1760596088.0873942,-1.849941514625044,0.3828638193817288,1.0686969913915627,-0.2061514313786472,29.179248180613264,-74.27662571983471,-36.4153192091839
1760596088.0973842,-1.9569794761560892,0.4228648065258929,1.0816993927192775,-0.1841174073894797,27.08676612329589,-66.40792330365218,-33.02508662202837
1760596088.1073806,-2.034259348929204,0.40572616808583223,1.0802947847433828,-0.1611758662628955,24.290608582472316,-52.6868111494429,-30.403016628566693
1760596088.1173704,-2.1114399465256053,0.33769601989841486,1.0668282134359321,-0.1389128487511179,20.968657798636357,-34.94960170826689,-28.480357851372858
1760596088.1273897,-2.216217417169033,0.22923119523939972,1.0446271878187587,-0.11879513064022348,17.368527416549682,-15.285693540129937,-27.15382571877842
1760596088.137396,-2.37224402596887,0.0937161458797585,1.0173839990435096,-0.10205261523572726,13.764432521066347,4.188290886043017,-26.307696821992664
1760596088.1473765,-2.5972948443911243,-0.05398770033838732,0.9886405478001754,-0.08956974986023562,10.41745950541091,21.54246571931498,-25.83156612777362
1760596088.1574287,-2.901855887408347,-0.19902904484169995,0.9614262326331324,-0.08178895739487911,7.544529939465889,35.21377638061495,-25.632564529799346
1760596088.167363,-3.2883034323942106,-0.32795998885455563,0.938054194771001,-0.07863871298634297,5.298791964070062,44.134660515007226,-25.64172392158581
1760596088.17738,-3.7507965921935353,-0.42990180731858424,0.9200481753916181,-0.07950253559030691,3.761806912581857,47.79928140492896,-25.814744983651675
1760596088.1873956,-4.275931743828313,-0.49736392990320477,0.9081609219136212,-0.08324509220477311,2.9460660964822023,46.26421829467079,-26.127885506548097
1760596088.1973822,-4.84412671277458,-0.5266415698936338,0.9024518613848728,-0.08830837757569716,2.805231999495141,40.08856511245583,-26.57021349211245
1760596088.2073777,-5.4316198113991305,-0.5177829792264903,0.9024047558233211,-0.09288274597427339,3.249039998463522,30.225486955407867,-27.1340008897946
1760596088.2173772,-6.0128847908835565,-0.4741823911845814,0.9070747616640729,-0.09514391292161017,4.159886486995217,17.88232037399784,-27.80533184293312
1760596088.227384,-6.563190539300116,-0.4019012455726534,0.915255522861561,-0.09353049835841722,5.408577623581903,4.368574924227993,-28.5568473827487
1760596088.2373855,-7.060999751114745,-0.3088399327422896,0.9256537519490955,-0.08702201691433069,6.867359693727799,-9.049347356327955,-29.343939729966866
1760596088.247392,-7.4899240529300295,-0.20387625232137413,0.9370558414988358,-0.07536927612402351,8.419106672726194,-21.27075985292388,-30.104865252291486
1760596088.2574515,-7.840031239926537,-0.09606304394071122,0.9484705931816247,-0.05923052002377981,9.9623393806006,-31.449165153658697,-30.764454590532118
1760596088.2673972,-8.10840761676937,0.006053689318669821,0.9592335729379555,-0.040177188403633476,11.412491842446943,-39.04059095935476,-31.24054496756602
1760596088.2774055,-8.298982505812882,0.09496532463225082,0.9690612730030708,-0.02055187094395547,12.70038372792878,-43.811546243530955,-31.45198108063634
1760596088.2874281,-8.421700928985567,0.1645746384534233,0.9780484300460613,-0.0031867658161531635,13.76910361323196,-45.811668840282906,-31.32698344701352
1760596088.2974734,-8.49118003212654,0.21042704325312545,0.9866108095394256,0.00898063048330161,14.570487214906397,-45.32023310956595,-30.810812649435363
1760596088.3073864,-8.525013173393754,0.229823793806022,0.9953867977687028,0.013335081244836736,15.062212371318525,-42.77799937132461,-29.87191651018604
1760596088.3176217,-8.54190213274944,0.22184455424306565,1.0051198955116674,0.00798375005496995,15.206273441966513,-38.716141123215046,-28.5060534196764
1760596088.3273864,-8.559805161489448,0.18730129800035178,1.016546194217761,-0.007940069343103944,14.969164264359929,-33.6922355645711,-26.738115745924407
1760596088.3374,-8.594282368044615,0.12863321325242247,1.0303022157193582,-0.034120165721217816,14.323499693192234,-28.240028723948964,-24.621449987133342
1760596088.3473911,-8.657194755200656,0.04973775031652365,1.0468496017352542,-0.06906028347442651,13.25025365497112,-22.83575928483326,-22.23442793302693
1760596088.3574114,-8.755868064601048,-0.04427503483231922,1.0663965832295141,-0.11021997644783522,11.740530460955513,-17.880208295476194,-19.674008457461678
1760596088.3675861,-8.892773156435986,-0.1474131067279011,1.0887998833318047,-0.1542441848859218,9.795929871063969,-13.693069182924686,-17.046181234329456
1760596088.3773956,-9.065710638585056,-0.2532130654713437,1.1134555695581678,-0.19726303327158662,7.427112481648089,-10.515048640261158,-14.45356430287114
1760596088.3873818,-9.268428739770036,-0.3552133104553106,1.1392123848545224,-0.23525395652528366,4.650999521786053,-8.513264894330476,-11.981029574463335
1760596088.3973904,-9.491558044217365,-0.4474629547504946,1.1643477176546906,-0.2644522621213361,1.4878501437103704,-7.786673101653185,-9.680990374923953
1760596088.4074128,-9.72371764258929,-0.5250246976123996,1.1866363476494624,-0.28177448252611803,-2.040177731518315,-8.369931989757333,-7.560734928822701
1760596088.4174056,-9.952633658766459,-0.5844052310694368,1.203526698994905,-0.28519995591765435,-5.907781675768524,-10.235789669925133,-5.574620265191173
1760596088.4274163,-10.166118061743642,-0.623829629397992,1.212422164953388,-0.2740501486974461,-10.082505954362674,-13.297253743539185,-3.6236927186876313
1760596088.4374495,-10.352793420217399,-0.6432912559286026,1.2110427655789604,-0.24911097470702873,-14.519269071681858,-17.411291269281236,-1.5641698617706217
1760596088.447393,-10.502515114952901,-0.6443581012946632,1.1978160013083314,-0.21255979313546097,-19.155730257192825,-22.38558626478603,0.775630483586277
1760596088.4573693,-10.606514132427138,-0.629775889086663,1.1722238500484465,-0.16768837956030913,-23.910947946692314,-27.989139695926823,3.57231929452229
1760596088.4673738,-10.657336382136853,-0.6029516518257668,1.1350255836541108,-0.11845236321303372,-28.68892365823423,-33.96649126965049,6.982247932044946
1760596088.4773822,-10.64867826882952,-0.5674187193024663,1.088289854109288,-0.06891440963982905,-33.386976591953434,-40.05436363965719,11.118336946282382
1760596088.4873967,-10.575215961556532,-0.5263782820115898,1.035204276208123,-0.02267154222869983,-37.90701775323898,-45.99887229562041,16.0325682641225
1760596088.4974098,-10.432504993593046,-0.48238970626757405,0.9796790929222003,0.017637336120304613,-42.166365803151955,-51.57133634791405,21.706507951091655
1760596088.507476,-10.216994417827525,-0.4372446915798626,0.9258109957200182,0.05065697436396862,-46.10432278584476,-56.581153769051014,28.050642806950925
1760596088.517406,-9.92616098131533,-0.39201194305309284,0.8773110007033615,0.07640824486444811,-49.681668651464555,-60.88485067988549,34.91177208067785
1760596088.527389,-9.558729687814786,-0.34719041798634254,0.8370153584608248,0.09611551341366978,-52.872573913925976,-64.3908653330228,42.08646155696701
1760596088.5373948,-9.114918220976632,-0.3028850396048182,0.8065804546733947,0.11179332144240654,-55.65147405126409,-67.05972020514542,49.337841919583326
1760596088.5474286,-8.596636403276793,-0.25893980248733217,0.7864099212627377,0.12569013570637716,-57.97973986904095,-68.89922647259662,56.41299075490466
1760596088.5573707,-8.00759123145247,-0.21501701718308536,0.7757952683788087,0.1397379191705733,-59.7972161506324,-69.95467337267851,63.05882463306205
1760596088.5673962,-7.353280897727118,-0.17065743676624992,0.77320258078649,0.15514658060727085,-61.02182125355558,-70.29468272722318,69.03558861690315
1760596088.5773933,-6.640889346924814,-0.1253653975453941,0.7766215861671228,0.17222403943873124,-61.5575358314334,-69.99425317561287,74.128175673654
1760596088.587394,-5.879104572981094,-0.07873881876605772,0.7839005331571225,0.19043588980107914,-61.30861181228324,-69.11714256665466,78.15620343746664
1760596088.5974162,-5.077877562524547,-0.030626297759373648,0.7930101858808726,0.2086594027707484,-60.19652982225283,-67.70003164649168,80.98380970247202
1760596088.6074421,-4.248121518779584,0.018735027356678296,0.8022123424901539,0.22553683420673976,-58.17625821087355,-65.74094797902507,82.52949537408993
1760596088.6174133,-3.4013353174281393,0.06865063480209983,0.8101475527345863,0.23981346278280347,-55.24922090400833,-63.194287514844156,82.77523928547284
1760596088.6274183,-2.5491347401656235,0.1179952007453871,0.8158798704269391,0.25057550751379426,-51.471319863011416,-59.974328696955745,81.77296471733565
1760596088.6374755,-1.7026973069867533,0.16532461679223395,0.8189231900297587,0.25736329450734097,-46.95501509495587,-55.96805151515574,79.64581364818225
1760596088.6474102,-0.8721647832330769,0.20903570618086129,0.8192387464976002,0.26018306083958503,-41.86494591417228,-51.056247589091384,76.58199370721937
1760596088.6574302,-0.06608139970285364,0.24753315724279287,0.8171736383765555,0.25945500513312036,-36.4070130294923,-45.13983471031056,72.82025257799202
1760596088.6673856,0.7090447011626034,0.2793829348532553,0.8133231813069837,0.25592835892546917,-30.81130883862001,-38.16673300180085,68.62796998828411
1760596088.6774132,1.4489893320322451,0.30345267978011603,0.8083333677852922,0.25058425394899764,-25.310023670084643,-30.154107559839193,64.27481861256994
1760596088.687402,2.151840133628497,0.3190431977856185,0.8026920468117237,0.24453708984850708,-20.11261724969385,-21.201394304751872,60.00624269511485
1760596088.6973982,2.8178147251522367,0.3260020496736436,0.7965720985882497,0.238935484608253,-15.38176337288244,-11.49124325477179,56.02119050527061
1760596088.7074938,3.4489089795285395,0.3247963363043224,0.7897801866070425,0.23486127473393142,-11.214169120890698,-1.2779307078444826,52.45759875138771
1760596088.7174094,4.048430936968703,0.3165190891180933,0.7818351843868943,0.2332310518039155,-7.6299194702381605,9.134801957466976,49.38742220673387
1760596088.7273886,4.620478427545583,0.30281217898480006,0.7721629087378762,0.2347113639899562,-4.572614474658715,19.42273712341501,46.82106802755364
1760596088.7373917,5.169411244792094,0.2857026286520954,0.7603604349242378,0.23965917626417094,-1.9206951049972583,29.272328723889395,44.71942331494496
1760596088.7473965,5.699357376644932,0.26736528020521155,0.7464619980965969,0.24809518119209154,0.4915246370577037,38.409277534217516,43.010550722259126
1760596088.7573893,6.213784449263248,0.2498422474684983,0.7311325408711946,0.25971385494249605,2.8461249795902637,46.620491929684654,41.60768911803664
1760596088.767404,6.715166862692151,0.2347661810228259,0.7157243195643317,0.27393151914477676,5.311134444932084,53.76666346307545,40.42546118815599
1760596088.7774003,7.204784296795166,0.22314393138854946,0.7021556694617687,0.28996930062473064,8.011820560958196,59.784305114913906,39.39206676896599
1760596088.7874038,7.682689284059288,0.21525136797523792,0.6926098029517965,0.3069601698214283,11.008221707858684,64.67776037253451,38.45644776939435
1760596088.7974036,8.147867648398305,0.2106640824482356,0.68910584309348,0.32406056555142826,14.282966327969472,68.50308379904592,37.5905318888548
1760596088.8074093,8.598579108461077,0.20840978896254767,0.6930507619273882,0.34054289010965355,17.742039994112588,71.34663341596244,36.787368135483185
1760596088.817635,9.032817818054781,0.20719664241351254,0.7049034577910382,0.3558501536346253,21.228669048135846,73.3016774475792,36.05622229762263
1760596088.8274724,9.448801198294149,0.2056642603368369,0.7240421471929994,0.36960733262098944,24.547570221912967,74.44634940819859,35.4157319130463
1760596088.83741,9.84539870781707,0.20261764572614052,0.7488460587568398,0.3815967620413024,27.494665717748564,74.8259372542892,34.88623680812966
1760596088.8474371,10.222442628247936,0.19722202833530814,0.7769391623467538,0.39170724099542226,29.886735420063335,74.4418128643188,34.48239117887039
1760596088.8574224,10.58089838332051,0.18914862309809824,0.8055256519511854,0.39986015201395136,31.586318738150496,73.24834466032073,34.20700895027041
1760596088.8674242,10.92289680445685,0.1786667551408325,0.83175679734533,0.4059155242174735,32.518933670651634,71.15801934513077,34.04678734892156
1760596088.877411,11.251641647668743,0.16667787606377482,0.8530825206033131,0.40957592030633444,32.68161622426391,68.05402853199035,33.9702062367147
1760596088.8874211,11.57120596515578,0.154684515862499,0.8675531398454733,0.41032372233761105,32.14326691618008,63.809034468372836,33.92761209042028
1760596088.8974118,11.88622700358529,0.14468814145420147,0.8740505050479954,0.40742695604303436,31.03806031678065,58.308678813269445,33.853285017424795
1760596088.9074187,12.201507843692417,0.1390174199270166,0.8724415174779893,0.4000268253047511,29.55335158945111,51.47832338172546,33.669130658981096
1760596088.917406,12.521538747246272,0.14009847428214642,0.8636547010922967,0.3872914979793752,27.913402956403846,43.31123774960905,33.289523450496034
1760596088.927402,12.849961468371957,0.15018483808172692,0.8496793370368774,0.3686007441879435,26.360122904132922,33.895934171338666,32.62676920922918
1760596088.9373991,13.18901273388493,0.17106578121412977,0.8334792146772712,0.3437209815192842,25.131983345680613,23.439755297437582,31.5966774253107
1760596088.9474163,13.538996250788546,0.20377232849703106,0.818804282503213,0.312937611139963,24.442350280202202,12.285366156563487,30.123834253948147
1760596088.9574218,13.897843234189054,0.24830424076756555,0.8098806698690834,0.27712336348812017,24.4585983238662,0.9166078187140757,28.146292293830967
1760596088.9674275,14.260824878924524,0.3034066270997283,0.8109706940108309,0.23773054799055104,25.283553803606786,-10.049746785085,25.619462959290313
1760596088.9774058,14.620471680168603,0.366428557570291,0.8258207021057359,0.19670053757285466,26.940983478692022,-19.88931231908534,22.51898375184771
1760596088.9874325,14.966732789740163,0.43329710228280766,0.8570475127140685,0.1562896134068729,29.36695022051384,-27.814285687294472,18.842301542196974
1760596088.9974408,15.287376626381898,0.49863774007165473,0.9055441180830807,0.11882016495714665,32.40882614573335,-33.03623426712876,14.60875575763967
1760596089.007404,15.56859763453126,0.5560642137855035,0.9700070509881082,0.08638008897886623,35.83354006047697,-34.844367744705764,9.858086164936854
1760596089.017413,15.795762013394333,0.5986472497991346,1.0466968448143816,0.060508358664087145,39.34617537598483,-32.693069728356875,4.6474854164937245
1760596089.0274048,15.954208643158633,0.6195533247656196,1.129532089821298,0.041918113518603695,42.61917586022488,-26.28953799452231,-0.9524806164173847
1760596089.037405,16.0300293921519,0.6128209073058846,1.2105819188076827,0.03031630733533231,45.33095272852327,-15.670002681644434,-6.862576983510441
1760596089.0474179,16.010782824905387,0.5742079180983091,1.2809646293139145,0.02437396897652271,47.21055537304444,-1.2515931846911048,-12.999572841468039
1760596089.057405,15.886129761724952,0.5020000130697609,1.3320884491255922,0.021876172223262283,48.08259544469354,16.15281350783327,-19.280161460520134
1760596089.0674098,15.648397978198444,0.3976268378370548,1.3570865652434767,0.02003728525496436,47.90457409017463,35.3667271362993,-25.623509625560676
1760596089.0776272,15.293078353444356,0.26591597055585237,1.352206609395508,0.015921510687905,46.7881124362375,54.933524435316045,-31.952144568795706
1760596089.0874238,14.819233512066823,0.11484707435156577,1.3178399988965073,0.0068857005238971815,44.99701380722313,73.2474386847214,-38.191288878190846
1760596089.0974145,14.229779202371459,-0.04523384333784143,1.2588710844614974,-0.009027340741452911,42.91867644304288,88.71870625381419,-44.266948125064225
1760596089.1074872,13.531594592809874,-0.2028334887011392,1.1841396434584803,-0.03278824661548768,41.01050399323661,99.95093677942872,-50.102915454985386
1760596089.1174524,12.735437343964328,-0.34671653987337764,1.1050371425716665,-0.06420104383955218,39.72840609130946,105.90388348422358,-55.61661481606491
1760596089.1274345,11.855675475945706,-0.4671873758064483,1.0335137739782827,-0.10187721272519638,39.448824819794694,106.01567929203622,-60.713783869719244
1760596089.1374636,10.909881113677546,-0.5569922485472066,0.9799467523679151,-0.1433974116714685,40.397908322964774,100.2654086142575,-65.28264613109519
1760596089.1474252,9.918338575428953,-0.6117306085744942,0.951346674515815,-0.1856616833079149,42.60106534788438,89.16765708758615,-69.18930693891858
1760596089.157473,8.903489454993778,-0.6298278028742489,0.9502709346184209,-0.22537130698834587,45.8632766219908,73.70250322439583,-72.27715513694602
1760596089.167504,7.889281380444609,-0.6122303565885566,0.9746294227519515,-0.25953878284313336,49.7856163243538,55.19460351794098,-74.37339884016413
1760596089.1774132,6.900336965605363,-0.5620051243053049,1.0183682256132587,-0.2859150355268882,53.81710508008516,35.16176727316084,-75.30493413116554
1760596089.1874468,5.960849599535687,-0.4839706406618152,1.0728414304455833,-0.3032538555021594,57.33428356966394,15.15586753937438,-74.92343007483187
1760596089.1974852,5.093158159489887,-0.38440826027306013,1.128547856618553,-0.3113816523899145,59.7351745867686,-3.3830396795880637,-73.13639502833294
1760596089.2074575,4.316042747173512,-0.27082957303948846,1.1768376099671187,-0.3110853823393285,60.53111276261705,-19.244289195018162,-69.93816764846066
1760596089.2174146,3.642893688081736,-0.15172431124455593,1.2112212428854963,-0.30386385016525513,59.42028760661792,-31.528600880932558,-65.43333507276724
1760596089.227428,3.0800100212120425,-0.03618031787119062,1.2280615427889077,-0.2916060495089567,56.330758197881984,-39.69444763961288,-59.84559607149796
1760596089.2374182,2.625352398643446,0.06672052797811168,1.226633947391999,-0.27626381690460544,51.42701322200569,-43.57300418672761,-53.507546205161844
1760596089.247418,2.26807647305299,0.14873900789473585,1.2086987161981086,-0.25957503757397843,45.08106332513583,-43.35642557659922,-46.83084184932544
1760596089.2574198,1.9890878540336123,0.2034249133220319,1.1777836789373188,-0.24287484244034122,37.81494513687217,-39.562379793046006,-40.26083391469202
1760596089.267443,1.7627007541986917,0.22696408656806807,1.1383591376774502,-0.22701281034840204,30.22551943987098,-32.97603916774323,-34.2236579525779
1760596089.2774298,1.5592837981309038,0.21872561565448176,1.0950474315299512,-0.212373679284915,22.904320945445665,-24.571026854676298,-29.07556495837228
1760596089.2874196,1.348574598673063,0.18137811783939065,1.0519747295033575,-0.19897924694927208,16.36498270237219,-15.41348783701355,-25.06355609574863
1760596089.2974389,1.103180734010831,0.12053288338799692,1.0123388342898016,-0.18663781866956325,10.98858324176496,-6.557450101744671,-22.303733514955102
1760596089.307435,0.8017129992802642,0.04397116975500147,0.9782240689703787,-0.17510533075238927,6.993513378989715,1.0569531663790643,-20.78005346438586
1760596089.3174465,0.4310575271994321,-0.03939528120273229,0.9506448323126498,-0.16422325944151253,4.431725283188138,6.68981723397533,-20.362123282847115
1760596089.3274047,-0.012529166445973386,-0.12063586694485423,0.9297565103627713,-0.15400294425810898,3.2084143748560567,9.861771898327005,-20.837160072760724
1760596089.337435,-0.5235898711017556,-0.19180498612007393,0.9151494527725288,-0.14463805065768892,3.1184162519679366,10.381930095689933,-21.94906538239437
1760596089.3474214,-1.0887755120427263,-0.24671004844312142,0.9061436568918847,-0.1364452736825954,3.890746363529112,8.342258651795978,-23.437180050569275
1760596089.357427,-1.6890043227966922,-0.28137485359638476,0.9020227103876638,-0.12975196903681122,5.232955473686289,4.081819984167856,-25.068478155235187
1760596089.3675654,-2.302082990328193,-0.29418223292188445,0.9021737519311085,-0.12476217254714636,6.868828628386152,-1.8722744018415052,-26.659179623180375
1760596089.3774214,-2.9053726487527913,-0.28572326155570543,0.9061266604441796,-0.12143672090551742,8.565581903992292,-8.878485477409223,-28.084373613736737
1760596089.3874533,-3.478125803881105,-0.2584137251144168,0.9135067043185361,-0.11941993220625641,10.149300227032546,-16.259724233586816,-29.276674751686066
1760596089.3974786,-4.003225864393205,-0.21596058107432684,0.9239296567695032,-0.11803613733253243,11.509391618577583,-23.378416053597174,-30.216718117414047
1760596089.4074345,-4.468206449446163,-0.16277133823173828,0.9368765412783238,-0.11636468584041486,12.594134256523143,-29.69956539398348,-30.919167040319657
1760596089.4174519,-4.865579244611642,-0.10339749663480907,0.9515863050121949,-0.11338391703564028,13.400014247870347,-34.83520517990512,-31.41784514962817
1760596089.427475,-5.192620395841859,-0.042089523442800085,0.9669991314050687,-0.10815831037138308,13.957633745572712,-38.56599496943835,-31.752812273112685
1760596089.4374354,-5.450830267754196,0.017483811927005086,0.9817725055029358,-0.10003415514058364,14.316681149188362,-40.83882104877296,-31.961006363451716
1760596089.447425,-5.645282383070435,0.07233244657983119,0.9943787196959292,-0.0888094258826954,14.531976116180008,-41.74267567585354,-32.0708280608746
1760596089.4574113,-5.784024299286865,0.1200770596377658,1.003277205605766,-0.0748494427163139,14.652073442208351,-41.468336127801464,-32.100059251662046
1760596089.467412,-5.877607545685745,0.15876925026072017,1.007138548392199,-0.05912542898955608,14.711396646859411,-40.25984530782526,-32.05596828273738
1760596089.4774334,-5.938732565533133,0.18667497399570487,1.005083080812272,-0.043159589016093666,14.72637923130025,-38.366907676475414,-31.936393880841365
1760596089.4875176,-5.9819225116152515,0.20210170446097525,0.9968918815062714,-0.028876620539550646,14.695610566189103,-36.00664279952485,-31.73091046039237
1760596089.4974258,-6.023101479754016,0.20333949125983572,0.9831536384667285,-0.018385923205861382,14.603506128708421,-33.34075977351316,-31.42166741221498
1760596089.5074322,-6.078952766798475,0.1887613226505282,0.9653213729420306,-0.013733888256187592,14.426515165949436,-30.470712524110276,-30.983966360408413
1760596089.5174382,-6.165970448499056,0.1570892553026968,0.9456619123532851,-0.016662028936310788,14.140326768266384,-27.44956134539128,-30.38695201457164
1760596089.5274506,-6.299189596974465,0.10778430942083317,0.927088041597986,-0.02839371093686839,13.726086607484769,-24.305858673043453,-29.594869191196437
1760596089.53745,-6.490677234801967,0.04147195730696411,0.9128732141850713,-0.04946130118850892,13.173616086318189,-21.07256288707382,-28.56917134311155
1760596089.5474586,-6.74796879853107,-0.039714022851107894,0.9062653108548444,-0.07957989633407746,12.480261081905628,-17.81325343801123,-27.271433919861405
1760596089.557478,-7.072715892994926,-0.13198640426583208,0.9100374537757216,-0.1175741484074621,11.645183955634991,-14.638935429059948,-25.66668991618401
1760596089.5674691,-7.459838812464639,-0.23004021608061878,0.9260333658408351,-0.1613709552454245,10.660294042159991,-11.711214272775695,-23.726622090275843
1760596089.5774682,-7.89742657006773,-0.32748716127091276,0.954774950564988,-0.2080781221082451,9.500179258658436,-9.230902366521082,-21.432063261635545
1760596089.5874317,-8.36749587202423,-0.41753263690965065,0.9951978361073641,-0.25416864188720584,8.113989078569096,-7.414282761528782,-18.774393229152786
1760596089.597466,-8.847541343573479,-0.49378176617170993,1.0445682174566175,-0.29577507524108826,6.421991106100964,-6.461586527213712,-15.755578500289943
1760596089.6074557,-9.3126407236076,-0.5510359760628118,1.0986146857742434,-0.32907128720128415,4.318505848995702,-6.523509742433019,-12.386760637948148
1760596089.6174574,-9.7377734090796,-0.585947335382404,1.1518850770881006,-0.35069227665317787,1.6814373468869317,-7.671896634192636,-8.685498279737228
1760596089.627443,-10.099989325502452,-0.597423457628155,1.1983128113973494,-0.35812893910792454,-1.6128637843428693,-9.880123517615962,-4.672018799613363
1760596089.6374123,-10.38011900212137,-0.5867148444239082,1.2319486358729137,-0.3500354454886195,-5.671722379257663,-13.017233594572147,-0.3651037766080503
1760596089.6474674,-10.563825522826004,-0.5571672902934,1.2477797273295628,-0.32639894371516803,-10.567984121324152,-16.85761831196559,4.221538402101719
1760596089.657436,-10.641940556633909,-0.5136796521564249,1.2425231645597734,-0.28854172695215485,-16.324176694008436,-21.10537090148225,9.08145006173864
1760596089.6674979,-10.610166706443385,-0.4619610677593953,1.2152596223291818,-0.23895235998664593,-22.901125430583836,-25.42983647933058,14.215316620751501
1760596089.6774414,-10.46833108388895,-0.4077179419278763,1.1677807992268976,-0.18097054529116127,-30.192647154542637,-29.506809392064707,19.628184301806332
1760596089.6874454,-10.219418354906534,-0.35590900308659823,1.104562202191348,-0.11837571594863269,-38.027417641396625,-33.05865502867952,25.32429092019636
1760596089.6974425,-9.868595407393077,-0.3101842699500455,1.032329018784744,-0.05494562044305093,-46.17843814928923,-35.88665692969618,31.30044225178739
1760596089.7074502,-9.422380285190155,-0.27257887889138677,0.9592428815612558,0.005946513914311545,-54.37961233265431,-37.89026227089714,37.539211207589375
1760596089.7174432,-8.888027729266723,-0.24347929018080047,0.8937957895624097,0.06163944369786057,-62.347846048874324,-39.07046817333051,44.003185669474924
1760596089.7274597,-8.273126076643686,-0.22183109934755685,0.8435545940210551,0.11035925214928376,-69.8079543922324,-39.51782167793724,50.63112985783536
1760596089.73745,-7.585347709748047,-0.2055247194684178,0.8139535653766887,0.1512475786434413,-76.51669031802949,-39.388566019539624,57.33643281810137
1760596089.7474368,-6.832285435681536,-0.19188224867193981,0.8073739699372529,0.18424940960005298,-82.2817432499224,-38.87448041122938,64.00780193748169
1760596089.7574298,-6.021342182244627,-0.17817214307328974,0.822748920289792,0.20989068660242535,-86.97211748109028,-38.172375505466675,70.51196736150045
1760596089.767438,-5.159694342962168,-0.1620861322158505,0.8558402760333987,0.22900233902678274,-90.51814956584266,-37.45808284240161,76.69818203190977
1760596089.7774692,-4.254373483944638,-0.14211574654191342,0.9001423659020951,0.24246915660184812,-92.90203200880806,-36.86777305172465,82.4044083356285
1760596089.7874508,-3.312480524496261,-0.11776890354559064,0.9481637562195094,0.25107937658269713,-94.1419627403671,-36.487401753170815,87.46518781383045
1760596089.7974408,-2.341481195948866,-0.08958409840011061,0.9927440533947101,0.25550923585874413,-94.27418811404702,-36.34952881376365,91.72123212013454
1760596089.80764,-1.3494763147676556,-0.058935501612402595,1.0281072674975835,0.2564158963275579,-93.33736943551762,-36.435755415823145,95.03063149306999
1760596089.817439,-0.34532554795632175,-0.02766738176559102,1.0504773722588694,0.2545728329802389,-91.36320544001588,-36.68255394869297,97.28116291355293
1760596089.8274493,0.6614671319436713,0.002363033183899701,1.058222653890339,0.25097637941793377,-88.37594763860663,-36.98843444907748,98.40258799469146
1760596089.8374536,1.6611370521025512,0.029731122580187064,1.0516136281033455,0.24686449135633642,-84.40116250503671,-37.221214888231735,98.37730380047695
1760596089.847438,2.6442694530912143,0.053776521331759974,1.0323473573778383,0.24361496841713162,-79.48128602558315,-37.2253574543145,97.24746908595452
1760596089.857451,3.6025311580847137,0.07474383664176121,1.002998880588134,0.2425345953515143,-73.69317574214574,-36.830420039479954,95.11687301424247
1760596089.867439,4.529378765075795,0.09369698644601311,0.9665191782902739,0.24459611774742696,-67.16185784045213,-35.86219659184513,92.14634009698982
1760596089.8774397,5.420593707760548,0.11221950450386461,0.9258373256696778,0.2502015890924818,-60.06533798400117,-34.157786036265335,88.54231119430088
1760596089.8876164,6.274522004006699,0.13196027023974133,0.8835770001239864,0.2590431490601083,-52.62753767253571,-31.58459805148916,84.53928571114001
1760596089.8975534,7.091950072379954,0.15412539985846413,0.8418800356489323,0.2701070059001647,-45.099581839029604,-28.061489930769238,80.3778682677624
1760596089.907437,7.875618428521871,0.17904322403724698,0.8023296855998782,0.28183230995055547,-37.73292859285175,-23.578467507097574,76.28103508948365
1760596089.917503,8.629449591846958,0.20592568971088238,0.7659645041809254,0.29239662484390716,-30.750160188313025,-18.210407034353214,72.43178259425441
1760596089.9274478,9.357628223183816,0.2329071315653797,0.733364929385346,0.30006178055939736,-24.319772630955207,-12.120591960372098,68.95542927511342
1760596089.9374352,10.063703572807315,0.2573695021181802,0.7047859414896704,0.3034949122212271,-18.53979844628973,-5.551549512531746,65.90935505020231
1760596089.9474354,10.749876998685512,0.27648632500762105,0.6803084192848027,0.3019911863969486,-13.432345893228378,1.1968372010263577,63.2817935627472
1760596089.9574676,11.41659248703869,0.287860592706815,0.6599880862241707,0.29555987832893843,-8.948507686934335,7.799528031900784,60.9996374923479
1760596089.9674633,12.062478793288943,0.29010955106457037,0.6439861639535285,0.28487412577503024,-4.981536724712441,13.944642756489637,58.94354231905912
1760596089.9775226,12.684616988527283,0.283264534612504,0.6326655659038485,0.2711121480795015,-1.38565168645119,19.372688129052523,56.96740603260717
1760596089.9874637,13.279044543796397,0.26889763232790154,0.6266344620922606,0.2557325253654634,2.002272517892279,23.91109902481703,54.91883304263548
1760596089.997431,13.841368261600635,0.24994396316628506,0.6267208298498919,0.24023286319653533,5.340922226200871,27.498722075716977,52.657454998753245
1760596090.007493,14.367348680724895,0.23024719275127883,0.6338688053147568,0.22594128549579445,8.765399239954125,30.195835090155295,50.06877787932048
1760596090.0174587,14.853338329264032,0.21390994367541344,0.6489597486699492,0.21388147606271762,12.373044588072652,32.17704453146132,47.07230811588655
1760596090.0274658,15.296500582507727,0.20457152268834025,0.6725769926158551,0.20473363341699963,16.215687581448954,33.70677878932756,43.62389075870324
1760596090.0374458,15.694794685105,0.20475177595851557,0.7047500383492766,0.1988891867260225,20.298480604920254,35.099768190135045,39.71330428294129
1760596090.047459,16.04677176741957,0.21538568083820211,0.7447263447727032,0.19657197425169387,24.584082478285858,36.67140784247686,35.35899518162484
1760596090.0574393,16.351272311756148,0.235632328322996,0.7908233798692593,0.1979771581587249,28.999918063725598,38.68470612465593,30.602203849343258
1760596090.0674565,16.607137136249804,0.2629855107665779,0.8404088867349897,0.2033663614766821,33.446002028161466,41.30119380340288,25.502542619769248
1760596090.0774593,16.81303765511694,0.2936554713860563,0.8900414964595533,0.21306342122692362,37.80157402693601,44.54255170578742,20.13636472426243
1760596090.0874412,16.967500387104938,0.32314693103198555,0.9357763100285977,0.2273293320092786,41.93027039451804,48.268080922533294,14.598130328900492
1760596090.0975335,17.06915490071329,0.3469370239846104,0.9736054517007487,0.2461502309136774,45.684920762047476,52.171119300250794,9.003698662893163
1760596090.1074874,17.117185119770355,0.361157321082503,0.9999713234888338,0.2690206376075955,48.913470525874374,55.79566631328664,3.493445522250944
1760596090.1174555,17.11191974023352,0.3631962679691337,1.0122721669100956,0.2948159456930913,51.46694634086204,58.57288311763184,-1.7673518331693858
1760596090.127495,17.05546231107629,0.3521515550685488,1.0092835984776314,0.32181435257676333,53.20953654623552,59.87547059749462,-6.59320511430357
1760596090.1374886,16.952237569757116,0.3290737070228085,0.991441050856107,0.34786547732499934,54.030385779581785,59.08601253722404,-10.789704077126293
1760596090.1474452,16.80932238128159,0.29695839208135594,0.9609512543521856,0.3706431784111244,53.85656251384749,55.67340617574827,-14.171617519185567
1760596090.1574538,16.636443305931184,0.2604718513229776,0.9217157348021021,0.38789767093811445,52.66644921491463,49.26992088805633,-16.586388591082883
1760596090.1674576,16.44556169027321,0.22542931220933757,0.8790580434127724,0.3976504144248777,50.50229041992466,39.74064811650164,-17.939950251677192
1760596090.177466,16.25002788732759,0.19808122257264452,0.8392585195936532,0.39832770577587023,47.4798949045805,27.2373128128298,-18.22049877803284
1760596090.187463,16.0633592393627,0.18428954312002466,0.8089215843987914,0.3888602218713717,43.792844484074415,12.229415339365593,-17.515333257474204
1760596090.1974423,15.897768800401996,0.18869321440200737,0.7942249372145515,0.368770668294873,39.70842505482385,-4.492881367130415,-16.01635733069796
1760596090.207435,15.762628763345608,0.2139649106472037,0.8001176967761743,0.3382512208906762,35.55315459311859,-21.847897572213483,-14.01138244545464
1760596090.2174532,15.663079838744869,0.26024826897421266,0.8295468278970708,0.29821660838124187,31.687269912459925,-38.52505635616859,-11.86076577804381
1760596090.2274532,15.598986675132881,0.3248418367606536,0.8828062443586308,0.2503099865988452,28.469634698352017,-53.07954478708107,-9.961719547450627
1760596090.2374618,15.564392561628908,0.4021742906221539,0.9571181880167995,0.19683664327475994,26.216835912153375,-64.05444316032417,-8.705178406923359
1760596090.2474487,15.547557652303793,0.4841001661011971,1.0465585228239471,0.14060860665324323,25.162217199382575,-70.12247443767623,-8.43170817329034
1760596090.2575152,15.531590544304072,0.5605303536831917,1.142416231816912,0.08470162268585893,25.421737584332913,-70.23599256005467,-9.393155834898662
1760596090.2675064,15.495616547663806,0.6203871592768561,1.2340295097647997,0.03214816345578974,26.97342018608576,-63.77020642143923,-11.725571356701403
1760596090.277452,15.416375940202304,0.6528349332688557,1.3100665429968366,-0.014391634120824684,29.6555182744373,-50.64177220288796,-15.436711588197738
1760596090.28749,15.270115565731611,0.6486843730431,1.3601230265287836,-0.05292944181244761,33.18542838376196,-31.383871643389586,-20.408723966804033
1760596090.2975032,15.034624344492,0.6018051322486394,1.3764043089498452,-0.08236818326119574,37.19729431712323,-7.160541287324671,-26.41408158709113
1760596090.3074386,14.691258673945415,0.5103216769725191,1.3551757620380775,-0.10260310086477777,41.29206266028457,20.29211696530744,-33.14111755379821
1760596090.3175242,14.226798528839781,0.37734338403469286,1.2976441483023593,-0.11448342426414124,45.09065535800345,48.80177004273094,-40.22488907934923
1760596090.3274715,13.634967928727677,0.2110252757508268,1.210013597214903,-0.11963144148026125,48.28007566988052,75.9649200286909,-47.279451229560614
1760596090.3374653,12.917452379743468,0.023874768118848467,1.1026382641641226,-0.12013910149518431,50.64424586550516,99.40000610096439,-53.92849455712933
1760596090.3474321,12.084264381890994,-0.16862275956158113,0.9884144100697972,-0.11819505783028321,52.07568672677703,117.0155369206062,-59.83226770809238
1760596090.3574781,11.153357727462604,-0.3498430282997375,0.8807424131327589,-0.11572379420607991,52.5691883716147,127.25380104441453,-64.70952287427077
1760596090.3674464,10.149474306197645,-0.5040208676604482,0.7914842792417118,-0.1141214616049051,52.202451958406485,129.27222407431228,-68.35377511270559
1760596090.3774905,9.102311645962937,-0.6180852377227128,0.7293175674499572,-0.11414313441890098,51.1101355950812,123.03425459463875,-70.64342079301606
1760596090.3875408,8.044200840569067,-0.6830649007917907,0.6987585361965747,-0.11594715157511538,49.456957542278,109.29769078948472,-71.54533877738129
1760596090.397506,7.007553586973763,-0.6949087488994549,0.6999504747663886,-0.11925839349438166,47.413570217813295,89.50650997003856,-71.11175892520306
1760596090.4074912,6.022353785842218,-0.6546944652497275,0.7291495503660318,-0.12359135144069215,45.137022431524855,65.6076507070191,-69.47061344073647
1760596090.4175744,5.113935644016779,-0.5683005723056327,0.7797266865908988,-0.12847275239534942,42.756470026350605,39.82329035701953,-66.81025125756547
1760596090.427474,4.30122856385354,-0.44565795649201634,0.8434468193318035,-0.13360766407903532,40.36437504027064,14.411178521884144,-63.36009094781331
1760596090.4374511,3.595583388377375,-0.2996860541914547,0.9117790297919665,-0.13894138689493926,38.0133250467127,-8.558037128033261,-59.36930717549511
1760596090.4474652,3.0002370440175232,-0.14499535859290447,0.9770236504952837,-0.14459715139354853,35.71841034723384,-27.384604004968978,-55.08585946013451
1760596090.457477,2.510425604317071,0.0035624914470906007,1.033107669290865,-0.15071934115873228,33.46466355659788,-40.87099395385149,-50.73799431175823
1760596090.467458,2.114117371952512,0.1323846553432403,1.075987157644794,-0.1572973306478844,31.218414709677564,-48.39486806726309,-46.51978615177216
1760596090.4774477,1.7933028053992426,0.23049038955612336,1.103685120314653,-0.16405293046093927,28.940701434929302,-49.92362597450888,-42.58155008028776
1760596090.4874847,1.5257418807006937,0.2905964727732128,1.1160573574261639,-0.1704388434107319,26.600423403713126,-45.97447632566605,-39.025396188491776
1760596090.4976645,1.2870323292316306,0.3097378634716277,1.1144008036035953,-0.17574284266594364,24.185060575791987,-37.5270082422705,-35.905903514497034
1760596090.507446,1.0528309102462208,0.28935186399200935,1.1010061818106818,-0.17925390613218162,21.70746438019284,-25.8981851857994,-33.23563980305269
1760596090.5174658,0.801040685697132,0.23483964118454104,1.0787292193645046,-0.18043352559851736,19.208098893424694,-12.592585847147935,-30.994790654791505
1760596090.527497,0.5137713026230644,0.1546988138928917,1.0506253187228567,-0.1790421874719203,16.75279324721916,0.8569613974590001,-29.143508631261565
1760596090.5374563,0.17888685528935,0.059369796570749055,1.0196673684753115,-0.17518969351597144,14.426514887251274,13.042110848217312,-27.63499584656542
1760596090.547453,-0.20901788670127924,-0.040039868282689774,0.988548158985056,-0.16930200825696598,12.324036806366369,22.809451776321147,-26.42706626573908
1760596090.5574484,-0.6483209624882772,-0.13298907930848528,0.959557591636315,-0.1620195609051714,10.538740480033589,29.35551192454931,-25.4901582551943
1760596090.567467,-1.1307905783960561,-0.2105507422153211,0.9345190080478063,-0.15405710203151957,9.151103191589845,32.277444437775316,-24.810486288734715
1760596090.577514,-1.6426660817690302,-0.26616771493199315,0.9147671217632997,-0.14606135693796363,8.218536316140094,31.57622396637683,-24.388088942217205
1760596090.5874524,-2.1662720159355344,-0.29606115561335344,0.9011508443812274,-0.13849942534717438,7.768092421541011,27.615360419912317,-24.230690046896196
1760596090.597456,-2.6819707718464567,-0.2992873334047685,0.8940472140583179,-0.13159968144300832,7.793127253769374,21.04364644236139,-24.345216745179474
1760596090.607453,-3.1702232926902187,-0.2774862411632989,0.8933783488044277,-0.12535237366693103,8.254317361681627,12.694345195590447,-24.729229785923152
1760596090.617456,-3.613529134231995,-0.23440189137257159,0.8986315667980102,-0.11956406273047279,9.084610209644454,3.4750815818235994,-25.36431251879173
1760596090.627479,-3.9980577369351575,-0.17527353373240587,0.9088906469124416,-0.11395061415187817,10.196934428232678,-5.737445960241669,-26.212754594597765
1760596090.6374722,-4.314848639828322,-0.10619537471810155,0.9228899358352098,-0.1082477890518342,11.493052464620598,-14.185721127626998,-27.217922230105685
1760596090.6474485,-4.560528128165634,-0.03352313810766241,0.9391008087448296,-0.10231618822292642,12.871933917840394,-21.29376906218961,-28.307822808526776
1760596090.6574442,-4.7375456555172075,0.036621834172779116,0.9558528484774537,-0.0962180644370541,14.236448735589944,-26.69910558251996,-29.400762871498486
1760596090.6674478,-4.853967306016373,0.09872812076060385,0.9714832124096039,-0.09024813051877988,15.497852999223511,-30.254448783322633,-30.41175605014302
1760596090.6774442,-4.922876386900198,0.14815088159277406,0.9845006554774305,-0.08491073915724795,16.578213953907788,-32.003599245010506,-31.258449471964237
1760596090.6874835,-4.961429663799918,0.18127001226133002,0.9937476459906405,-0.08085085733825231,17.411379108501364,-32.13902199471134,-31.865723983047193
1760596090.6974773,-4.989611537368367,0.1955813600563907,0.9985448030726034,-0.078760544804139,17.943237351406438,-30.9502925194286,-32.16864694303448
1760596090.7074797,-5.028727660326568,0.18975352576679277,0.9988047878226823,-0.07928934866209811,18.131885162456523,-28.772555797093563,-32.11394851496526
1760596090.7174983,-5.099692007926061,0.16367230046897532,0.9951048813216296,-0.08298265295650431,17.948020565249234,-25.94259721298184,-31.660519769999834
1760596090.7277348,-5.221190451463823,0.11847518386356165,0.9887053874821469,-0.09025723616218742,17.375543430149772,-22.76741848422222,-30.779533593260666
1760596090.7374997,-5.407845919028231,0.05655585359361171,0.9814940839920571,-0.10140152503662696,16.411989532741742,-19.50697042169585,-29.45467259688348
1760596090.7474597,-5.668555991544402,-0.018499321290858163,0.975831754267436,-0.11656736213532928,15.068150440118414,-16.369675822301463,-27.682668431038604
1760596090.7574515,-6.00521078075534,-0.1020855500438157,0.9742826030471231,-0.13571586621168683,13.366190395936446,-13.51727997660641,-25.47401830535484
1760596090.7674692,-6.412010476874101,-0.18889248428869093,0.9792422111184413,-0.15850359883398735,11.335876496645621,-11.074746790093672,-22.853475306231598
1760596090.7774634,-6.875567257538682,-0.2733486117054226,0.9925137276004559,-0.1841354876682253,9.009132924240149,-9.141221697305262,-19.859800250013723
1760596090.7875,-7.37588288955919,-0.3501482602352602,1.0149093411004149,-0.21124066935694508,6.413794681757329,-7.799023106405941,-16.54432230525584
1760596090.797457,-7.888154386238083,-0.41478271809562217,1.0459566529135842,-0.237832255700325,3.567886256551281,-7.118758394088363,-12.968037030422849
1760596090.807475,-8.385211274077708,-0.46399042505444593,1.0837728939097895,-0.26139759466029394,0.4757807272834436,-7.159798965017624,-9.197227456884033
1760596090.817468,-8.840264043799325,-0.49605370261219467,1.1251460675457448,-0.2791403069626678,-2.872796049210016,-7.966451281974743,-5.297878070970459
1760596090.8274808,-9.229565132972096,-0.5108925251988407,1.1658374325973269,-0.288361677378552,-6.500570449347592,-9.561128004052929,-1.3294026587894243
1760596090.837494,-9.534571779343933,-0.5099380363853254,1.2010894126013318,-0.2869285599779976,-10.437606039106308,-11.936474293585356,2.661600237681344
1760596090.847507,-9.743278800165596,-0.49581019035346935,1.2262807745848963,-0.2737357670643684,-14.714034184961504,-15.048619046157858,6.646687959153955
1760596090.8574884,-9.850557371531545,-0.4718639651569558,1.2376258540171228,-0.24904987630877323,-19.35174741527928,-18.81351049538373,10.619008606225341
1760596090.8674855,-9.857542931809844,-0.44168964808280997,1.2327900901047357,-0.2146349186475297,-24.356351899789047,-23.107722170590616,14.593857128314385
1760596090.8775232,-9.77029035758447,-0.4086487071896946,1.2113052749262827,-0.17360761371913297,-29.710641894142572,-27.77422518723451,18.605703966702247
1760596090.8874998,-9.598012938963672,-0.37550651833543336,1.1747079934892548,-0.13003157145355246,-35.37062982271771,-32.63252353841,22.701670253399882
1760596090.897479,-9.351238839972503,-0.344198131001852,1.1263764476855813,-0.08831616587845036,-41.264803175349506,-37.49151540955415,26.93218263421032
1760596090.9074821,-9.04017290594865,-0.31573878469142297,1.0710911623518493,-0.05252684463655415,-47.29680504729342,-42.16284932255814,31.340214382100463
1760596090.9174614,-8.673466881508336,-0.2902685906808987,1.0143872155269207,-0.025734971293708924,-53.35113941183473,-46.472632400637366,35.95091242569975
1760596090.9274855,-8.25750062339626,-0.2672036404782004,0.9617963371704261,-0.009531787830542903,-59.30087970739165,-50.270085129191514,40.76340130651544
1760596090.9375093,-7.796181418380212,-0.24545872838158983,0.918095253190676,-0.003800931307152662,-65.01595499631425,-53.43283907829769,45.74613297276433
1760596090.9474719,-7.29119425103286,-0.2237114422736256,0.8866801645866854,-0.006794386613618163,-70.37062320501157,-55.8696124470306,50.83641240166079
1760596090.9574685,-6.742591315437032,-0.20068608924792902,0.8691712936452163,-0.015500248271849334,-75.24918639119625,-57.52157179692145,55.94385812947768
1760596090.9674675,-6.149591961099662,-0.17543475160448052,0.8653114130819842,-0.026234719187214074,-79.54955066056526,-58.36363350110312,60.95680137325435
1760596090.9775941,-5.511463970301427,-0.14757598145544912,0.8731632025598948,-0.03533736350459666,-83.18455045044875,-58.40639447862315,65.7502262375958
1760596090.9875069,-4.828364088754746,-0.11743480241193577,0.889549895485243,-0.03980940130859402,-86.08100598910572,-57.69853665828519,70.19391614972618
1760596090.9975019,-4.102028941794651,-0.0860353605426529,0.9106409663298548,-0.03773899323631375,-88.17656576807491,-56.32862373087183,74.15991429908586
1760596091.0077112,-3.3362302697321766,-0.05493423464942996,0.9325671075114416,-0.028425167266022032,-89.41483138966234,-54.42445206252757,77.5290125570711
1760596091.0174913,-2.5369403727189974,-0.025925967076624215,0.9519546293374948,-0.012220132541575657,-89.7400366810731,-52.14789461778523,80.19650307513307
1760596091.0274992,-1.7121893274020026,-0.0006797757546629639,0.9662958852682375,0.009797776398038515,-89.09322285299909,-49.68373957537536,82.07764884797028
1760596091.0375109,-0.871630090456238,0.019625144832091993,0.9741151437880956,0.03617774463008903,-87.41199181135157,-47.22223441349098,83.11318218207978
1760596091.0475016,-0.025859966394085047,0.03459971903227483,0.9749371111342906,0.06537374446249497,-84.63543347111329,-44.936499361068186,83.27473200390088
1760596091.0574667,0.8144229325341166,0.044821824191030736,0.9691028453792194,0.09591669603680344,-80.71478497895816,-42.95737210419224,82.56961066446914
1760596091.0675042,1.639324272956528,0.05184664551297773,0.9574978136178033,0.12650560326250282,-75.6288842543145,-41.3494196468111,81.04404837860247
1760596091.0774925,2.4406000015496794,0.058031223678812326,0.9412618339810965,0.15604872587259705,-69.40184996978425,-40.09252275090562,78.78388615008232
1760596091.087498,3.2123260274375176,0.06618379410168317,0.9215423823782878,0.18366977485536556,-62.119234795368364,-39.07327185991911,75.91194764391938
1760596091.0974994,3.951290938379551,0.07908136354866072,0.8993306627663431,0.2086846763719675,-53.93857759482797,-38.08934881830857,72.58169795916177
1760596091.107481,4.657047182334458,0.09893023335315855,0.8753908465978943,0.23055758253004352,-45.090867766537144,-36.86831852031281,68.96724343599004
1760596091.1175003,5.3316044155067575,0.12686697469284086,0.8502703835557653,0.24885170241799368,-35.87083708356458,-35.1000241262398,65.25020701579744
1760596091.1274824,5.978802855440765,0.1626032038644573,0.8243697819731517,0.2631924930854166,-26.616085847569266,-32.47926065675054,61.60454094027006
1760596091.1374953,6.603455456053338,0.20429990192037636,0.7980490358994692,0.2732538642761067,-17.677462027743566,-28.75303363362226,58.18085320606502
1760596091.1475081,7.210385955547087,0.24871689442027906,0.7717475536480924,0.278765868595931,-9.38515813955517,-23.765173634440064,55.09218025815684
1760596091.157493,7.8035075240103655,0.29162946045405436,0.7460918055730454,0.2795345236181845,-2.0159486807028393,-17.490924426726522,52.40316726163594
1760596091.1675782,8.385079137762913,0.32844890198444415,0.7219622844897882,0.27546718781745744,4.2334904517308285,-10.055432290558343,50.12421417864317
1760596091.1775265,8.95524385204569,0.35493978039880625,0.7004958208658395,0.2666053032010907,9.263862203388207,-1.732443575104737,48.21136756133428
1760596091.187513,9.511901780533476,0.36790609400507596,0.683015091355435,0.25316950606756405,13.079735832710908,7.07762330063383,46.5718317952149
1760596091.1975029,10.050913983036384,0.3657284789976073,0.670897072430197,0.23561619453068128,15.785307549279967,15.888185256723249,45.074239577888925
1760596091.2075093,10.56658466705315,0.34866787354927353,0.6654042581140582,0.2146951805002872,17.57034400421342,24.180844350381733,43.562412785133674
1760596091.217685,11.05233497907355,0.31889308930116755,0.6675041820508609,0.19149124425182532,18.687785669783327,31.466497543882042,41.87121082132682
1760596091.2276049,11.50146329271433,0.28023034578722494,0.6776999318732254,0.1674306064635507,19.42509337747322,37.34448680860135,39.84305276694723
1760596091.2375379,11.907884042545419,0.23767095038296163,0.6958909026591295,0.14423714881744093,20.07211824672118,41.55066565856661,37.3437080602742
1760596091.247565,12.266749720877371,0.1967085897012075,0.7212811184542732,0.12383100502931119,20.888883698845014,43.986470937435044,34.2760045566883
1760596091.2575057,12.574886310760634,0.16260402589380996,0.7523556925163623,0.10816964438907868,22.076895553209585,44.72392213191061,30.590291484041508
1760596091.2674904,12.83100538791274,0.13968480599751862,0.7869528265654488,0.0990379363604098,23.75723124827861,43.985469021274525,26.290822359584464
1760596091.277471,13.035690030649572,0.13077922430456573,0.8224553386688847,0.09780562197187703,25.9577408633731,42.10193999848571,21.437598530326966
1760596091.2874818,13.191182720556464,0.136861457365978,0.8560967777807411,0.10519325226215796,28.610506399736224,39.45557635390878,16.143588492862694
1760596091.2975292,13.301029505600168,0.15695350010466833,0.8853278207798153,0.12111031392870879,31.559615562073105,36.41752480017038,10.5676389997322
1760596091.3074887,13.36965252902409,0.18829266631814337,0.9081501532331,0.14462762812446245,34.57850482479875,33.2897722374779,4.903794330785705
1760596091.3175616,13.401927840439482,0.2267347821888707,0.923330959664887,0.17410481538810169,37.39547522378006,30.260342619765037,-0.6319827703482118
1760596091.327496,13.40283464146208,0.2673295197998122,0.9304624150401254,0.20742761697644524,39.725188385017326,27.37808967645208,-5.816629664873594
1760596091.3374968,13.377218975334632,0.3049840305129799,0.9298907585128281,0.24226133714265766,41.30300079458269,24.550229863092486,-10.43541168084196
1760596091.3474896,13.329686596786,0.3351280859391777,0.9225717423459564,0.27623483077957467,41.91831724970622,21.56233184765409,-14.297268445725734
1760596091.3575764,13.264611969872135,0.3543034585583715,0.9099078867011687,0.3070341336485553,41.44315116502791,18.117233851873102,-17.24959278503725
1760596091.3674912,13.186225402283341,0.36061424077578136,0.8936046434502217,0.33245749419414133,39.85269599423311,13.886898950509078,-19.191931854335373
1760596091.377504,13.098721849814474,0.353990526976538,0.8755620539625802,0.35050577842139935,37.235548081945055,8.570061185616561,-20.087739186877908
1760596091.3874984,13.006329448729405,0.33623701139752404,0.8578015359666158,0.3595415650287929,33.792064406047345,1.9486562531386935,-19.972730593605785
1760596091.397494,12.91328732989686,0.3108604053206929,0.8424156113255932,0.35848881800397087,29.820264262468797,-6.063003750460681,-18.957930837236333
1760596091.4075336,12.82370801833726,0.28269264494901986,0.8315218804576294,0.34701043092034844,25.6898078909493,-15.381054411220305,-17.22550028671403
1760596091.4175365,12.741333110250467,0.2573478913840297,0.8271998712291616,0.3256054899963468,21.805925032147293,-25.7302752635418,-15.016121207636642
1760596091.4274895,12.66922413369056,0.24056629684458863,0.8313892964908675,0.2955949568786486,18.566651090661978,-36.639676586676806,-12.60808001568768
1760596091.4375079,12.609452504277963,0.23750219113612264,0.8457337555915078,0.25899257398503445,16.31813709485289,-47.45623901343545,-10.289912489538803
1760596091.4474885,12.562851172828184,0.25201095324398587,0.8713700217791058,0.2182769894900617,15.313724342581216,-57.37660172227788,-8.330098612004496
1760596091.4575045,12.528863958195258,0.28598838534800874,0.908687230792178,0.1760943287438247,15.682514242946418,-65.49594696970375,-6.948316193213113
1760596091.4674904,12.505490852778198,0.33882773203687233,0.9570999107676844,0.1349349993376257,17.412168694716776,-70.87294068060943,-6.2928835919776125
1760596091.4775016,12.489298798256721,0.4070774423918354,1.0148832631916125,0.09684409778441201,20.3487557266351,-72.60874987226663,-6.428178459263067
1760596091.4875004,12.475459171352782,0.4843922026602074,1.0791107983096642,0.06322878306991021,24.21390261277467,-69.9363942542585,-7.334177650065576
1760596091.4974947,12.45778518582253,0.5618575573719401,1.145723016749507,0.0348017107342075,28.636887767101268,-62.314114625982135,-8.918187153779083
1760596091.5074892,12.42876699114542,0.6287292119253283,1.2097460796739683,0.011649082168975587,33.19733918431377,-49.51376565007891,-11.036756672357473
1760596091.5174832,12.379629627301416,0.673564778821217,1.265669347055436,-0.006632261983168795,37.473351029002586,-31.69334231239161,-13.52404685236013
1760596091.5274885,12.300460314589483,0.6856486072566652,1.307976142170511,-0.020789977102994735,41.089805752501405,-9.442201225501856,-16.221777636221937
1760596091.537513,12.180460234303345,0.6565350230500254,1.3317974173676583,-0.031798300348155804,43.76184093807682,16.21143932354536,-19.00554745451173
1760596091.5474916,12.008368502553619,0.5814804353210056,1.3336179635327559,-0.040771897444810246,45.3284297704545,43.838473183423474,-21.80291839637355
1760596091.5574949,11.773082462914573,0.4605166807860365,1.3119159946941181,-0.048897785744910924,45.771296764999086,71.69584348727872,-24.600149989656686
1760596091.5674992,11.464461368043024,0.2989435988372465,1.2675861184561699,-0.057363843768596476,45.21548876742339,97.86021380106565,-27.4365400074949
1760596091.5775125,11.074255134021513,0.10708786968745208,1.204014868385139,-0.06726435775667268,43.91020874648439,120.39917438716985,-30.387580916919568
1760596091.5875013,10.597056338578993,-0.10071203957850695,1.1267532329280106,-0.07947416726340231,42.19175040366633,137.56315718075868,-33.54014707130573
1760596091.5974946,10.031148026417293,-0.3077849664169848,1.042832101669708,-0.09450036157200514,40.433743160796276,147.97449511526779,-36.96431004489235
1760596091.607495,9.379126042300044,-0.4972052360891901,0.9598523770349494,-0.11234041485012232,38.99238171993221,150.786614138452,-40.68686693604533
1760596091.6175027,8.648211041023778,-0.6538993987165834,0.885024333642828,-0.1323917130985616,38.155090392457296,145.78823172599644,-44.67123860408092
1760596091.6275072,7.850212886829489,-0.7664009989813905,0.8243243680022092,-0.15346011915312682,38.10007673734016,133.434948043157,-48.80726998289311
1760596091.6375034,7.001147759001612,-0.8279673283201939,0.7818925083800846,-0.17389788329295916,38.87202873153656,114.8020891705619,-52.91289533008113
1760596091.647492,6.120529193858775,-0.8369369641321502,0.7597322228323572,-0.191865920741718,40.376560058791604,91.46541125690068,-56.747811327882886
1760596091.6575928,5.2303650366403565,-0.7963815776653265,0.757714575396969,-0.20567415532146455,42.39346509595398,65.32759763533635,-60.0374685113079
1760596091.6675,4.353901597127504,-0.7132333397897404,0.7738408507598958,-0.21412321861128197,44.606652609221584,38.41624733560226,-62.5041547061645
1760596091.6775103,3.5141697525885722,-0.5971247703369845,0.8046847330327228,-0.21676385703350415,46.646761275506215,12.681973312401416,-63.90093259213668
1760596091.687517,2.7324070686560864,-0.4591702332710442,0.8459208487231444,-0.21400789315015753,48.14083743175099,-10.177141219876992,-64.0437791571934
1760596091.6974967,2.0264522976045467,-0.31087204351426645,0.8928531319279137,-0.20705825692157723,48.762244514890206,-28.84560310584516,-62.83747205958445
1760596091.7075012,1.4092290278984667,-0.16326816414432774,0.9408802077447291,-0.19766704641544436,48.273653634145305,-42.465995462983315,-60.291585389629795
1760596091.7175052,0.8874531411276781,-0.02635758904872321,0.9858664026411845,-0.1877736643050386,46.55697164346763,-50.66092421000306,-56.524303667598176
1760596091.727598,0.46071705492146464,0.09125330189803334,1.0244134861642382,-0.17910938231913734,43.62636121724866,-53.51002626245233,-51.75340728718307
1760596091.7375097,0.12111810080587888,0.18261402645810004,1.0540395539885732,-0.17286601255211695,39.62349295687763,-51.494167904784604,-46.27546959675958
1760596091.7476082,-0.14641115401562413,0.24272997807240837,1.0732684614760362,-0.16950774375894587,34.797000749983994,-45.41851904945777,-40.43589709172086
1760596091.757493,-0.36297044579395626,0.2689274553031671,1.0816280265060394,-0.16876228366766488,29.470187390200984,-36.32329376265559,-34.593868991558296
1760596091.7674992,-0.5537680861827912,0.26118933016810053,1.0795592356513226,-0.16977550743901818,24.00216853210986,-25.387790008212587,-29.087208385880633
1760596091.777602,-0.7455613110959195,0.22230867430128698,1.0682532801604219,-0.17137314260322914,18.747904472022118,-13.831637390792109,-24.20222681171782
1760596091.7875423,-0.9637603015936705,0.1577327836764442,1.0494492673317446,-0.17235795536305404,14.02207350971163,-2.817406730454551,-20.15240575121696
1760596091.7975168,-1.2295993424464005,0.07504920040047709,1.0252296059629542,-0.17177856494879254,10.070685196502428,6.639642753869871,-17.067827995105535
1760596091.807522,-1.557801330080885,-0.01683219212371375,0.9978381766104596,-0.16912336326850866,7.052958397285754,13.7472539759712,-14.995210328866822
1760596091.8175046,-1.955085167796167,-0.10865967225717708,0.9695291703901732,-0.1644126372049683,5.034498427830302,17.98960319209166,-13.906681461848388
1760596091.827534,-2.4197128106741714,-0.1918091046850758,0.9424443743668386,-0.15818268573548516,3.9913522286886773,19.1525519126574,-13.714373600230704
1760596091.83752,-2.942093381393684,-0.25909637493840887,0.9185148145492986,-0.151374628652872,3.8232425321672814,17.318305256830136,-14.287603565256836
1760596091.8474996,-3.5062980966430284,-0.3053445758709057,0.8993827752129638,-0.14515401079262402,4.373326654756444,12.831280022887285,-15.469853269279668
1760596091.857505,-4.0922126572008555,-0.32767300390775844,0.8863387024514116,-0.1406946523311976,5.451319296687214,6.240732884546067,-17.09365901517581
1760596091.8675158,-4.677974096339717,-0.32551523363708873,0.880266066380763,-0.13896249790038134,6.856808147229341,-1.7718289801027938,-18.992539448566937
1760596091.8775392,-5.242319629978718,-0.3004014630414775,0.8815891386194594,-0.14053283831820854,8.40000748795328,-10.471410969365909,-21.00993413353737
1760596091.8875136,-5.766525606312001,-0.2555609182978853,0.8902245754875415,-0.14546756350107995,9.91789777060911,-19.145591439327852,-23.005628445593292
1760596091.8975372,-6.235728023215733,-0.195413856225834,0.9055450712181502,-0.15326900588489797,11.284546566892022,-27.170029912610435,-24.86030210745521
1760596091.9075217,-6.63956373155262,-0.12502823809131924,0.9263684475165259,-0.16291478824866076,12.415285805224705,-34.057267818766164,-26.478754066508202
1760596091.91752,-6.972213705730939,-0.049612957118854405,0.950986340110911,-0.1729657467658192,13.265236913812727,-39.48491938397803,-27.792139489982063
1760596091.9275253,-7.232030888328454,0.025893048898686367,0.9772436367074767,-0.18172883529080813,13.823340260408797,-43.30198408069085,-28.75928693628697
1760596091.9376826,-7.420974532552662,0.09709830059094592,1.0026745074704306,-0.18745075579121945,14.103491547635045,-45.514759501252286,-29.366903436778703
1760596091.9476562,-7.544050114654821,0.1602929349723644,1.024693900339745,-0.1885165847968286,14.13458344529157,-46.256403938443846,-29.62829221887389
1760596091.9575913,-7.608885231786761,0.21245718277948933,1.0408349143380957,-0.1836321753302944,13.951170646009231,-45.746240810538,-29.58018332533161
1760596091.9675462,-7.62548153761505,0.2511855654091812,1.0490136136497348,-0.1719808817464026,13.586103050326061,-44.245990787002086,-29.27745955819973
1760596091.9775536,-7.606093213143771,0.27458468524092844,1.047795327245928,-0.1533583965464851,13.065870570959516,-42.019968192064276,-28.785917197019252
1760596091.9875398,-7.5651111971941045,0.28120632788329153,1.0366312131658055,-0.1282898465444633,12.408757286338368,-39.30492586274408,-28.173622281752134
1760596091.9975576,-7.518793254418422,0.27006431933978464,1.0160312591246246,-0.09811403214706095,11.62540105417173,-36.29299944555773,-27.50178042559568
1760596092.0075321,-7.484684259586482,0.24075456138230006,0.9876411029757447,-0.06499719025460599,10.721041824978137,-33.12849135896077,-26.816240684983878
1760596092.017521,-7.480624081017718,0.1936599570333438,0.9541959513864092,-0.0318371800431164,9.698529293440112,-29.916462068915216,-26.140748481528714
1760596092.02754,-7.523335771342018,0.13018434772924498,0.9193346078925614,-0.002039781608540512,8.561003104445406,-26.738783686129132,-25.472829866569718
1760596092.0375433,-7.626706303015011,0.05293171892183388,0.8872700411859227,0.0208282323676362,7.313155131967728,-23.672070749394273,-24.78279125376112
1760596092.0475173,-7.799990274869117,-0.034259506217315466,0.8623325278225544,0.033489119033931584,5.96027273826895,-20.802163443174116,-24.015908377561814
1760596092.0575542,-8.046252181777785,-0.12649239416048078,0.8484287428816117,0.03346767238631211,4.504892640367198,-18.231528364618402,-23.097591804255714
1760596092.067499,-8.36138032308551,-0.21820834533242733,0.8484913591512735,0.019593743402737514,2.941773865427865,-16.078425055161087,-21.941137956681104
1760596092.077553,-8.733933760030975,-0.30374980819214115,0.8640171673313944,-0.0076197430932421215,1.2527605293621187,-14.469021045068553,-20.45744967814921
1760596092.0875344,-9.145934659375632,-0.3779849380387139,0.8947891963953782,-0.04584465300511593,-0.5964398012861802,-13.525058877912446,-18.565733021131066
1760596092.0975554,-9.57453553638824,-0.43687672881654116,0.9388391106350202,-0.09112163347998047,-2.6558032340048014,-13.349987610558777,-16.20375713955681
1760596092.1075246,-9.994324418416465,-0.4778980258026168,0.9926469816439296,-0.13834012288392475,-4.986104252685869,-14.015999045772556,-13.336068520218186
1760596092.117573,-10.379915780751556,-0.5002305381935064,1.051531072534695,-0.1819181718524904,-7.650226621768627,-15.553645770526174,-9.958775209235629
1760596092.1275933,-10.708430313757642,-0.5047292473709778,1.110166833018461,-0.2165545515066485,-10.70251845620265,-17.94502131787143,-6.100135950141631
1760596092.1375895,-10.961499956152927,-0.49367555472970565,1.1631772596617425,-0.2379296005875925,-14.178612997426068,-21.12100316216317,-1.8170003414207476
1760596092.1475475,-11.126538987089797,-0.4703743308227039,1.2057357651070049,-0.24325203112378652,-18.087894312634802,-24.962779248992046,2.812096565141393
1760596092.1575592,-11.197170712461167,-0.4386663807307809,1.234114728013969,-0.23157906183301377,-22.409917059503037,-29.307689753300153,7.695871087885177
1760596092.1675599,-11.172852800706437,-0.4024300247091825,1.246109676802418,-0.20387472207890991,-27.094989289036896,-33.959182870075054,12.739771220057168
1760596092.1775522,-11.057866106762638,-0.3651373105763322,1.2412805982840385,-0.16281136377120617,-32.06819246149335,-38.7002849116683,17.854640598334225
1760596092.187542,-10.859902373916215,-0.32951510990426514,1.220975866401637,-0.11235524587938815,-37.23560227780488,-43.309391182174295,22.963518601274874
1760596092.1976147,-10.588504910709682,-0.2973423221389658,1.1881320163317703,-0.05720365568338037,-42.49145310574654,-47.57656383793975,28.00591733710428
1760596092.2075474,-10.253593522386907,-0.26939447917179643,1.1468708701217152,-0.0021582929054871185,-47.725304687150064,-51.31822707806998,32.93932805642666
1760596092.2175212,-9.86425367797514,-0.24552755731633996,1.101945673913271,0.04847217978257145,-52.82860505796703,-54.38847383099389,37.73810995272634
1760596092.2275538,-9.427902549663651,-0.2248743898569243,1.058115825556077,0.09135341658803366,-57.700133152934605,-56.68608957301119,42.39024062653231
1760596092.2375576,-8.949872974169256,-0.20611175776414023,1.0195454807716788,0.12442990281107388,-62.24970589532321,-58.15743209721956,46.892593114051294
1760596092.2475913,-8.433392219009011,-0.18774912890837,0.9893176498730354,0.14703369317651485,-66.39960338595115,-58.7959772895206,51.24543034184899
1760596092.2575896,-7.879885779109559,-0.16839601704451965,0.9691331694907435,0.15981319687295967,-70.0836458153731,-58.639414743672994,55.44671757636263
1760596092.2675,-7.2895116265197375,-0.14698047128045125,0.9592292276292566,0.16450843420994649,-73.24455822282951,-57.76481700924319,59.48674393953928
1760596092.2775385,-6.66182372151039,-0.12290422454537506,0.9585110815325639,0.1635980877373174,-75.83072648507732,-56.28200080124608,63.34351798913684
1760596092.287542,-5.996467654867273,-0.09612368391758956,0.9648507459069211,0.15985828359829954,-77.79336729614324,-54.32502126291345,66.97948025162789
1760596092.2975137,-5.2938207945391955,-0.0671466020268018,0.975480101589958,0.15590460757267852,-79.08459174063637,-52.04178965106962,70.34016973881157
1760596092.3075287,-4.555502755010765,-0.036941302870223416,0.9874027690657398,0.15380900666022337,-79.65627910465257,-49.58195794275427,73.3554644681395
1760596092.3178551,-3.7846995072227863,-0.0067694181107984435,0.9977656697320896,0.1548692625924256,-79.45957783838311,-47.083433897065575,75.94379989074521
1760596092.3275354,-2.986265874803311,0.022032470316540095,1.0041551322606517,0.15956401605180107,-78.44530906884165,-44.65823787320932,78.01934396191761
1760596092.3375342,-2.1665954808074943,0.04828786822426267,1.0048038701795299,0.16767101208625992,-76.56615721052577,-42.378899044596615,79.50154989558114
1760596092.3475354,-1.3332729391513054,0.07119440460014181,0.9987089970538083,0.17848216803606756,-73.78174925680283,-40.26707473667131,80.32596087246598
1760596092.3575337,-0.49454894972046376,0.09047997287162736,0.9856660450177099,0.19103380623431296,-70.06725793336962,-38.28637349035351,80.45475111283547
1760596092.3675349,0.34129707251672264,0.10647032129446508,0.9662238503302543,0.20429176133344204,-65.42504563046488,-36.34135476859749,79.88534200505218
1760596092.3775227,1.1666241228097762,0.12005056689308735,0.9415664099072554,0.21727430733115377,-59.89744883735272,-34.28425468781109,78.65557296716074
1760596092.3875494,1.9750360890358325,0.13251944695252713,0.913332555181311,0.22912817348551226,-53.57771126615753,-31.930025923006184,76.84434743022325
1760596092.3975255,2.7618422575451023,0.14535046042582203,0.8833910649733064,0.2391768312648025,-46.61582612988222,-29.078891339408905,74.56733330935589
1760596092.4075212,3.524304318170023,0.15989013794430154,0.8535957483251463,0.24694990907551975,-39.216690976294124,-25.54421146418347,71.96799150718086
1760596092.4175336,4.261631672964063,0.1770425173289626,0.8255502052532191,0.25219774915247556,-31.629263459560683,-21.182422297992872,69.20478968660969
1760596092.4275577,4.9747245940957665,0.19700415474130623,0.8004139739790311,0.2548958558240533,-24.127118238271027,-15.921167824003142,66.4359191314859
1760596092.4375474,5.665704947900936,0.21911514720408728,0.7787799690802042,0.25524029798885295,-16.982691207877796,-9.78149332051188,63.80321303088542
1760596092.4475045,6.337309243327737,0.24187424182516545,0.7606462582524196,0.25362687760216246,-10.439090126391847,-2.890211749815026,61.417238187191714
1760596092.457519,6.992241573452769,0.26313411788828406,0.7454913609843306,0.25060393983646534,-4.684104271856109,4.520506801026451,59.3455623025403
1760596092.4675329,7.632588970455693,0.2804541987152917,0.7324422149224626,0.24679654138173615,0.1693372121656354,12.127639750894128,57.60582761212696
1760596092.4775176,8.25938608838892,0.2915514539753287,0.7205041716227835,0.24281179135794764,4.093367712389586,19.54515944225498,56.1644890145551
1760596092.4875364,8.87238261493832,0.2947632735696216,0.7088114058229023,0.23914127026605636,7.1449608300045755,26.362443941787376,54.94114311479148
1760596092.497619,9.470024060584075,0.2894280505829455,0.696856434914384,0.23607519886074335,9.455871927444553,32.18896362410958,53.81761079384074
1760596092.5075128,10.049616179155862,0.27610187448321694,0.6846628642704771,0.23364187968672978,11.214545015597828,36.70011823286534,52.65050535925407
1760596092.5175366,10.607614790295115,0.25656105688262076,0.6728695744938834,0.23158908969465233,12.642517882166864,39.6787171455165,51.285853063521245
1760596092.5275035,11.139970728043654,0.23358304138887107,0.6626989834407291,0.22942708217381533,13.968236524603896,41.04649404165401,49.57428225262582
1760596092.5375373,11.642463921574953,0.21054363093437573,0.6557935868569628,0.2265485983902472,15.401292759551268,40.880427901425755,47.38531330224932
1760596092.5475638,12.110977876187787,0.19090577760454633,0.6539279121869945,0.22242581966013786,17.109902508208883,39.40991770958303,44.619442652760924
1760596092.557525,12.541690229725551,0.17769406169586277,0.6586352423129892,0.21685722348658948,19.20391294722009,36.99318169668662,41.21707636064182
1760596092.5675607,12.93117987046939,0.1730460257956939,0.6708207425676739,0.21020405588014737,21.72482885659487,34.07426850733207,37.163829338018516
1760596092.5775294,13.27647125882969,0.17791220350281228,0.6904498294705905,0.20353033305503423,24.643476282480417,31.125117781607887,32.49208721807224
1760596092.5875304,13.575049352585264,0.19194750316722356,0.7163909543555048,0.1985617423788543,27.86521550639624,28.579614155502085,27.27897912204922
1760596092.5975976,13.824881999842969,0.2136010240105427,0.7464582765425616,0.19742238217105187,31.242170240143345,26.768236782808582,21.641141357262743
1760596092.6075304,14.024480067801703,0.2403761754206778,0.7776569178540014,0.20218653980594908,34.59155308221872,25.862591628132716,15.726938643039839
1760596092.6175652,14.173011144765846,0.2692098975335565,0.8065957739241033,0.2143580261888126,37.71849842162334,25.838691884284874,9.707049045310812
1760596092.6275628,14.270464982915641,0.29691493440495875,0.8300063526644869,0.234419559128221,40.44083210743324,26.466135208515386,3.764333152653437
1760596092.637569,14.317852153640533,0.3206354525887165,0.8452899035239548,0.26157110133597034,42.612392690095845,27.327267149563816,-1.9163685725592983
1760596092.6475272,14.317403778904188,0.33827052954324094,0.8510078865216697,0.2937210484213645,44.14147641951914,27.866340016591046,-7.158325494096948
1760596092.6575434,14.27272977945016,0.3488157100582522,0.8472366239773235,0.32772610342439656,45.00186305828424,27.464256061046687,-11.803121637152847
1760596092.6675546,14.188885801698879,0.3525663152895977,0.8357278936855739,0.3598089472445775,45.23528002132923,25.53051153729814,-15.721319241042533
1760596092.677569,14.072296715621249,0.3511296207466116,0.8198444828422697,0.38604495669691236,44.945505846909626,21.60106774449204,-18.823618626595536
1760596092.6875339,13.930490513975345,0.34721242491227605,0.8042627003912588,0.40281970802525474,44.28528016856177,15.429426396650356,-21.071919413819824
1760596092.6975403,13.771612847840705,0.3441826980545253,0.7944536839275895,0.407200089687805,43.43775250119831,7.05829259723921,-22.488964107015285
1760596092.7075343,13.603719615619266,0.3454425410807944,0.7959802263723958,0.3971979288328209,42.59449182667887,-3.139179805260665,-23.164673477872412
1760596092.7175503,13.43388188080634,0.3536902144273928,0.8136766714346416,0.37192287487544856,41.932267622701396,-14.456633022891207,-23.25706422501236
1760596092.7276537,13.267181268449775,0.37018677932349,0.8508076726152998,0.33163198130795934,41.59101972517505,-25.894373489714646,-22.98591174681244
1760596092.7375515,13.105718459470543,0.394167171454634,0.9083194281185197,0.2776946053420702,41.65561176084573,-36.24140175119704,-22.61812457063397
1760596092.7475348,12.947790863659035,0.4225325713175799,0.9843035196743527,0.2124968217694542,42.14392809127602,-44.19424176340209,-22.445043857880833
1760596092.757531,12.787404740827055,0.4499258451929456,1.073790761133882,0.1393028718797643,43.00346172759897,-48.502453588507535,-22.75336606208959
1760596092.7675433,12.614263766221416,0.46923287761836635,1.1689779517641876,0.06207474181924972,44.117693864292555,-48.126584608421425,-23.792827467821862
1760596092.7775433,12.41432112070832,0.4724826164382195,1.2599545819144384,-0.014766130427015387,45.3223106223303,-42.39105450790364,-25.744866325929564
1760596092.7875674,12.170904568585971,0.4520468317479231,1.3359271466623424,-0.08665827692867419,46.42971352951014,-31.112232534939913,-28.69688371824042
1760596092.7975292,11.866337571413384,0.4019736986817468,1.386829843588617,-0.14931288393224373,47.258529085464644,-14.681326585162688,-32.62626210144866
1760596092.8075264,11.483899376041817,0.3192368445338944,1.405075680986935,-0.1991998247475131,47.663250691090624,5.916241974699253,-37.396993255057815
1760596092.8175411,11.009905849800688,0.20465904298014564,1.3870852601567707,-0.23403978034762885,47.55825312159327,29.157463342480654,-42.76987085708266
