timestamp,angle,linear_acceleration_x,linear_acceleration_y,linear_acceleration_z,angular_velocity_x,angular_velocity_y,angular_velocity_z
1760957964.3343759,-5.586477251381414,-0.17483246923388365,0.9901350236757768,-0.19081620643929856,4.799107999152843,3.3785161748622388,6.236337424192383
1760957964.3445067,-5.6801332143746395,-0.16446439527190415,0.9869034316193694,-0.19221433287740797,5.34896102782914,2.446465717084554,6.77151828635617
1760957964.354389,-5.730858269033672,-0.1470096764086734,0.9830958990381637,-0.19237526398387217,6.270479630600238,0.8732297980268064,7.968117984554423
1760957964.3643327,-5.721989252447205,-0.12354610279048295,0.9792137007402739,-0.1916024092682454,7.454561065323696,-1.206466343685241,9.761138016269099
1760957964.3744357,-5.64102893329563,-0.09576887108684766,0.9757963985196221,-0.19028089606068896,8.768597559566185,-3.605494465842491,12.030630278551474
1760957964.3844767,-5.4807738732628835,-0.06584146058616257,0.9733502156414514,-0.1888376078457502,10.071961010144527,-6.10055608480734,14.612563223353234
1760957964.3943,-5.23993215892993,-0.03618003444619538,0.9722696472733674,-0.18768314887563134,11.23157553161573,-8.452047845782621,17.31481068955885
1760957964.404336,-4.923178913519051,-0.009196779172492259,0.9727668169044448,-0.18714558951978305,12.135505631421431,-10.425782163669808,19.93622894853721
1760957964.414421,-4.54066530407236,0.012967022995903393,0.9748225333180648,-0.18740913657770242,12.702992477728241,-11.814509804449454,22.286405940692838
1760957964.4243097,-4.107053060138159,0.02868511426299922,0.9781695816222646,-0.18847138165475164,12.890007883580513,-12.45709614846962,24.203603631369674
1760957964.434295,-3.640190305807324,0.03703349377998368,0.9823136480454949,-0.1901305736247267,12.690071617177663,-12.25330812122782,25.5687213029057
1760957964.4443161,-3.159576324992524,0.03788850177876031,0.9865913631424482,-0.19200973306131983,12.130714980162011,-11.172528961486865,26.31376549811187
1760957964.4544396,-2.68478033178685,0.031911665973133815,0.9902592823258285,-0.1936176856099261,11.266499295889952,-9.255352447784034,26.42419430690027
1760957964.4642634,-2.233977547037833,0.020414218812881843,0.9926029108264138,-0.19443914322291472,10.169854201636035,-6.607846459027768,25.935413620075792
1760957964.4744332,-1.822741561835321,0.005119313186824074,0.993050452604788,-0.19403825644390074,8.921155366055947,-3.3891898621678687,24.924462279423086
1760957964.4845529,-1.4631871494746462,-0.01213148353299391,0.9912706490778861,-0.19215428598535467,7.59940662008599,0.2057623403689094,23.498421023346935
1760957964.4943383,-1.1635010820798122,-0.029659199235091617,0.9872301339387349,-0.18876669039578967,6.274638378640958,3.966783465242199,21.78127218237144
1760957964.5044842,-0.9278440270498558,-0.04614850845532369,0.9811905852472457,-0.1841129784605306,5.0027241985546915,7.688917360204134,19.90083919175884
1760957964.5143247,-0.7565682703223898,-0.06073244921552114,0.9736442851184007,-0.17865595277801355,3.8228407921413963,11.19095433632825,17.97712646148905
1760957964.524378,-0.6466804809455736,-0.07297074892066469,0.9652100807834536,-0.17301114100127388,2.757370369152384,14.32959724926786,16.112981801989747
1760957964.534354,-0.5924813458856947,-0.08276438961233666,0.9565240272629891,-0.16785243211370518,1.8137512645262732,17.007821828677397,14.387623866362349
1760957964.5443854,-0.5863216473995405,-0.09025283756587478,0.9481536610750815,-0.16381287739325373,0.9876446380311473,19.17680035495542,12.853268121789997
1760957964.554469,-0.6194144482137898,-0.09572296350429466,0.9405499740694923,-0.1613935059655034,0.26678219671842085,20.831712383185877,11.534843379885944
1760957964.5644388,-0.6826334672959659,-0.09953729949903184,0.9340377375556836,-0.16089053151402238,-0.3650481457845144,22.002642063855337,10.432583434313647
1760957964.57441,-0.7672185970390971,-0.1020760158563406,0.9288370809834383,-0.16235062170931155,-0.9242993758943345,22.742411683332268,9.527067264752977
1760957964.5843277,-0.8653115775450549,-0.10368371383140883,0.9251054118813068,-0.16556247017550832,-1.4245799884115442,23.113531902462302,8.786060106175437
1760957964.5943837,-0.9702613402214793,-0.10461511905267257,0.9229862333730149,-0.17008881859924457,-1.8744900202657702,23.176412967292833,8.172318349321253
1760957964.604308,-1.076669893313697,-0.1049809085567023,0.9226500231510449,-0.17533638818646738,-2.276661004902772,22.980579533636345,7.651407825668642
1760957964.6145935,-1.1801961577794213,-0.10470467825006027,0.9243143752560466,-0.18065375586070512,-2.6282022604356614,22.55994182732632,7.198544319889289
1760957964.6244483,-1.2771883297277733,-0.10350831672613747,0.9282374712203885,-0.18544124393225808,-2.9225829786198383,21.93235938061693,6.803485425402736
1760957964.634348,-1.3642542383635408,-0.10093866076198835,0.934688415096469,-0.1892532740264333,-3.152735418561585,21.102990847388185,6.472631039960609
1760957964.6445239,-1.4378854457184818,-0.09643471462983529,0.943905638009938,-0.19187228731137024,-3.314904668964826,20.07040522259911,6.2278026186044215
1760957964.654695,-1.4942254404310682,-0.08942196330622,0.9560569632956877,-0.19333530132245527,-3.4125554501326625,18.8341861978348,6.101676376248876
1760957964.6642966,-1.5290332910055513,-0.07941660161685751,0.9712110240778216,-0.19390177112568613,-3.459542958736333,17.402759636726802,6.130439732848336
1760957964.6745343,-1.5378594794118394,-0.06612674338694262,0.9893215461722247,-0.19396486832720208,-3.481832814769113,15.800328259405815,6.3447650121855155
1760957964.6844118,-1.516423304789863,-0.04954160291047314,1.0102179253332073,-0.19392351527716134,-3.5173357276058517,14.071996434651728,6.760523667199602
1760957964.6948926,-1.4611511804774702,-0.029996849683320066,1.033592326470806,-0.19404370111077454,-3.61382393607282,12.286338059014941,7.370751631004115
1760957964.704313,-1.369796874117345,-0.008198104575062997,1.058978126140508,-0.19434100258079537,-3.825261022202305,10.53481707952687,8.140241260506023
1760957964.7142453,-1.2420301540600773,0.014815177428775823,1.085725129767086,-0.19451133071899981,-4.207075737311613,8.927686876088773,9.003817438132232
1760957964.7246144,-1.0798702114404783,0.03777123362134132,1.1129860544314158,-0.19392591303183082,-4.810938972600419,7.586332935364735,9.868883848836731
1760957964.7347565,-0.8878646145736427,0.05932046885029013,1.1397285780742399,-0.19169318154034806,-5.67956077009977,6.632494405984844,10.622229579275576
1760957964.7443569,-0.6729644238708221,0.07821543633890847,1.1647781278656166,-0.18677795879407247,-6.8419971922588445,6.175359379801216,11.140426771866279
1760957964.7543259,-0.44410340898878614,0.09348199611431642,1.1868861206176977,-0.17815847498344972,-8.30994303636091,6.298080705461522,11.302529689169681
1760957964.764348,-0.21153999632945703,0.10454811403880615,1.2048133437169548,-0.16499466225503714,-10.075441707152834,7.045673650723865,11.003327947946973
1760957964.7742958,0.013942416119800124,0.11130413389955153,1.2174198437409356,-0.14677852494966623,-12.110348676485437,8.416390479541851,10.16522057105189
1760957964.7843893,0.2218611905728607,0.11408124764959306,1.223757523964501,-0.12344152633312652,-14.367744359258184,10.35839561468957,8.746922764366348
1760957964.794419,0.40276958006464525,0.11355070750178238,1.223164064003257,-0.09540443813521597,-16.78530822735367,12.772831830829057,6.747688036704373
1760957964.8042796,0.5488031180602971,0.11056255984390724,1.2153531674018854,-0.06356752568092802,-19.290438273801154,15.523240301740708,4.206451268632464
1760957964.8143396,0.6539764870981095,0.1059582317935038,1.2004876144287455,-0.029248056715243297,-21.806634333560922,18.45000253548643,1.1961451190718981
1760957964.8245685,0.7142213670232825,0.10040245863232415,1.1792139893500861,0.005924014199393606,-24.260387581549985,21.387359737348596,-2.185745768568686
1760957964.8344035,0.727208400473638,0.09427827085142848,1.1526395189219185,0.0401410374330558,-26.58761056363869,24.179986686731528,-5.828719839849746
1760957964.8443298,0.6920334236345109,0.08766910254828582,1.1222460623734802,0.07157315676308197,-28.738621779660495,26.69627012061694,-9.620958878127638
1760957964.8544457,0.608858539756498,0.08042260825729887,1.089756606256171,0.09853485289853497,-30.680932499138112,28.836342401960945,-13.459438169531161
1760957964.8643646,0.47858520350893546,0.07226759510811066,1.0569817526290601,0.1196516078936453,-32.399496939816366,30.534254489520425,-17.257183943834153
1760957964.8745189,0.30261218607600265,0.06294845378870577,1.0256710103922537,0.1340104498180373,-33.894506516751306,31.754993336235184,-20.94703080791095
1760957964.8847148,0.0827078394797051,0.05234758935240204,0.9973828528009713,0.1412714597978469,-35.17709904059056,32.48798608217502,-24.481795788818015
1760957964.894382,-0.1789938050973189,0.04057564948706412,0.9733796012916248,0.14171534601694294,-36.26350689348107,32.739124169749594,-27.831226711871928
1760957964.9044104,-0.4798832854873342,0.028015440725051518,0.954551824370758,0.13620916177365866,-37.168275154040224,32.523222355780575,-30.97642699295358
1760957964.9144325,-0.8166836062605517,0.015310033255554379,0.9413770520945985,0.1260872887628148,-37.89732511697466,31.85836616116963,-33.90276109063716
1760957964.9243467,-1.185226180667814,0.003293234267986839,0.933914663572646,0.11296363845390099,-38.441815587649494,30.763005188674075,-36.59249186192839
1760957964.9343698,-1.5802568729005781,-0.007128139298218899,0.9318343898325385,0.09850838825251805,-38.77388272396658,29.256076364077952,-39.01849938766109
1760957964.9445844,-1.995334990333826,-0.015119531285444734,0.9344729472671499,0.08423284115376878,-38.84532439611907,27.35992900640276,-41.140303570103775
1760957964.954367,-2.4228779065797963,-0.020063851689151084,0.9409113057397847,0.07132434378733019,-38.59005900336088,25.105319974367177,-42.903273449873566
1760957964.9642713,-2.854385320158865,-0.021679374757551387,0.9500629401877599,0.060558996307390124,-37.93068843577043,22.537232755367803,-44.24142577423848
1760957964.9742591,-3.2808530297062783,-0.02009101601080056,0.9607630081358193,0.052298987200716664,-36.78877205349999,19.71985641034579,-45.0836621058453
1760957964.9844203,-3.693358516109962,-0.01584743772673189,0.971851460493064,0.04656254392860495,-35.09762898917739,16.73892515087614,-45.36273074291366
1760957964.9942787,-4.083770545261058,-0.009885781924857603,0.9822470293971088,0.04314240590756059,-32.8158487612506,13.699911759963094,-45.02570448558844
1760957965.0043404,-4.4455042786557435,-0.003448522541829904,0.9910094255229405,0.04174224338143913,-29.93938099838652,10.721313971754453,-44.044420249084496
1760957965.0143218,-4.774217183231213,0.0020438704972279695,0.9973847567830832,0.04209826753067024,-26.51014486317372,7.923360971451339,-42.42420632501801
1760957965.0243077,-5.068328372589275,0.005156813364501437,1.0008303644979557,0.04405779478139904,-22.619491590669593,5.4136681344750395,-40.209385839780516
1760957965.0342615,-5.329254141585096,0.004623644648825418,1.001021897434442,0.04759920157038956,-18.405503347601083,3.2723974961020565,-37.48449940155773
1760957965.044211,-5.56129003581907,-0.00048308356943596234,0.9978512766760125,0.05279480687472812,-14.043977572355535,1.540073861967481,-34.370870426645325
1760957965.0542405,-5.771131669945362,-0.010623929293480635,0.9914236747642996,0.0597341568039155,-9.733935724346145,0.21114718938210983,-31.0189174362605
1760957965.0643966,-5.967099306068318,-0.025737063565924683,0.9820562438757434,0.06843542946348659,-5.6794212459522555,-0.7644555732936066,-27.597335279922717
1760957965.0743566,-6.158193543966605,-0.04527006477080053,0.9702757043101186,0.07877329650089747,-2.070010439425899,-1.4711285458322545,-24.28075099678459
1760957965.0845447,-6.353142263199678,-0.06829368084951926,0.9568083423838827,0.09044230310995406,0.9372796935423117,-2.010038617782531,-21.237590849625544
1760957965.094487,-6.559594208726626,-0.0936717643120945,0.9425533227507179,0.10296173827853979,3.2321903274984334,-2.477324462629032,-18.619654917153994
1760957965.1044009,-6.783575273178138,-0.12024774999131738,0.928527617491981,0.1157181295255271,4.759633849075797,-2.942266278867674,-16.554373675449725
1760957965.1143477,-7.029261577294167,-0.14700515883074658,0.9157723401676262,0.12803640496283034,5.521340592017552,-3.429878927156391,-15.140079267133693
1760957965.1245399,-7.299058030931175,-0.17316976791541824,0.9052210943767995,0.13926802354362644,5.570839133490118,-3.9116949518287174,-14.444029282439343
1760957965.1344912,-7.5939199037251885,-0.1982406033012918,0.8975487525082048,0.1488829896527361,5.002941830415167,-4.307060062784538,-14.502489902452952
1760957965.144362,-7.913824873589548,-0.22195681365412176,0.8930342742012418,0.15655239911840033,3.9397186904909165,-4.495371924317059,-15.32197793631764
1760957965.154347,-8.258290686646294,-0.24422063308663716,0.8914752678490969,0.16220673368930144,2.5152849000170074,-4.337723460429329,-16.880783356789703
1760957965.1647112,-8.626834122408136,-0.2650019601230173,0.8921827928736041,0.1660519182579117,0.8616373589796101,-3.7046608926436946,-19.130111141159436
1760957965.1745076,-9.019281144766067,-0.2842504158460828,0.8940660568476241,0.1685253245122202,-0.9025372729811892,-2.505453810229516,-21.994550467703153
1760957965.1843529,-9.43587016096299,-0.30183793565298916,0.8957939604853136,0.17018390566884728,-2.6786231051130795,-0.7136415762141978,-25.3720371138171
1760957965.1943305,-9.877137425802248,-0.3175467906356509,0.8959993892207853,0.17153685410631844,-4.389668524371878,1.6160704739500726,-29.133907724495035
1760957965.2044513,-10.343621080011372,-0.33110275268310513,0.893480858359928,0.17285849682028556,-5.977069101850305,4.343110860246526,-33.12593243429279
1760957965.214821,-10.835452182076962,-0.3422369189888758,0.8873635441346469,0.17403338168829174,-7.393616788500119,7.249806695607101,-37.17128151153727
1760957965.2243054,-11.351912988987017,-0.35075177655843665,0.8772043193141434,0.17448631918653756,-8.59495697342295,10.062244941727164,-41.07618958870077
1760957965.2343655,-11.8910397958487,-0.3565690082469902,0.8630441087251222,0.1732326509435093,-9.531834940998158,12.479610811372451,-44.638625830325715
1760957965.2443004,-12.449334957475449,-0.35974390689597785,0.845412614985483,0.16905303155196644,-10.145323473319477,14.207139055767518,-47.65965308230245
1760957965.2545085,-13.021632846722044,-0.3604427775486796,0.8252831198731067,0.16076302034360038,-10.366485374741092,14.987760012218228,-49.956530473968066
1760957965.2642896,-13.601141077707403,-0.35889518197654346,0.8039731441784888,0.1475209559188808,-10.120845672544538,14.628387582816066,-51.376137081553715
1760957965.2743828,-14.179656541544954,-0.35534580182623215,0.7829942353058003,0.1291043632919561,-9.336998902034544,13.018106425940005,-51.80706386047436
1760957965.2845004,-14.74793804043149,-0.35003041356648773,0.7638663945594273,0.10608890749699314,-7.957928023034054,10.136880691432003,-51.18877573251802
1760957965.2944746,-15.296200933486164,-0.3431830544916571,0.7479240296190002,0.0798846527378517,-5.953197581402521,6.05465754696874,-49.516580524690795
1760957965.3044627,-15.814681679433276,-0.3350577860005363,0.7361466189149327,0.05261655779858374,-3.330003251562595,0.9218782330239793,-46.841690885003025
1760957965.3144162,-16.294204956210688,-0.3259368779844315,0.7290459035995243,0.0268694317518019,-0.14105103816000084,-5.046552070524359,-43.266297200490264
1760957965.3244603,-16.7266811121795,-0.31610595844290923,0.726632048217527,0.005342374130820658,3.5125409950372584,-11.59095616194078,-38.93416318343609
1760957965.3344748,-17.10547297336033,-0.3057982465918978,0.7284665224628748,-0.009529765796381626,7.484574654290144,-18.426975100512628,-34.01777761977715
1760957965.3442914,-17.425597781688566,-0.29513042040448995,0.7337932598112129,-0.015928444481565354,11.593694555342989,-25.263111054680426,-28.703543668941574
1760957965.3543515,-17.683764581916588,-0.28406017322665655,0.741724062147092,-0.012923353443428643,15.639142582655023,-31.813876527193695,-23.17679557204345
1760957965.364308,-17.878278705983018,-0.27238645440890075,0.7514414894967787,-0.0006231715487497332,19.420491391049364,-37.80829848868432,-17.60848462324977
1760957965.3744497,-18.008864423680492,-0.2597952198980261,0.7623774697008022,0.019817011538951136,22.75870242669846,-42.99504324614057,-12.145088019279342
1760957965.384399,-18.07646143107246,-0.24593859988993563,0.7743325562346512,0.04633100208929157,25.515525393755567,-47.14635767504939,-6.902686594613862
1760957965.3944027,-18.083042696131905,-0.23053013462621608,0.7875170610279632,0.0761967431753484,27.608436280430237,-50.06316829708319,-1.9653776750859084
1760957965.4043968,-18.031484094003527,-0.2134399265602958,0.8025135324199167,0.10637170097701497,29.01892097985755,-51.58310615663191,2.612539367271045
1760957965.4144213,-17.925493839382252,-0.19477483185210887,0.8201728119528738,0.13386049545002762,29.79282194432733,-51.592096627725425,6.801657379504849
1760957965.424372,-17.769585717573463,-0.17492864433812214,0.8414610521255376,0.1560686096936138,30.032526684796373,-50.0387016172288,10.591088885512459
1760957965.4344811,-17.569059106470466,-0.15458891522209206,0.867275365867479,0.17110418045183645,29.881826821982678,-46.948971438989915,13.981859708792225
1760957965.4445424,-17.329935633159657,-0.13469268009275562,0.8982450499314036,0.17799852898050042,29.505163965734578,-42.438553248919874,16.981121707025967
1760957965.4545343,-17.058801296288856,-0.1163318300895218,0.9345363832209986,0.17682183199293733,29.063637673936572,-36.71851378536769,19.597902192493283
1760957965.4643607,-16.762516974621736,-0.10061882615367396,0.9756838545195031,0.1686752062828817,28.690650105952045,-30.09185635329627,21.840655740655283
1760957965.4744573,-16.44778950221649,-0.08853303200700172,1.0204799502472026,0.15554879962896026,28.470488623313635,-22.93894147632413,23.71645479499979
1760957965.4847772,-16.120635014383637,-0.08077250915986256,1.066965301960774,0.14004826590350716,28.423391773806415,-15.691771156752468,25.231408361013727
1760957965.4943461,-15.785806038475672,-0.07763217052167258,1.1125599524929817,0.12500760745276,28.50039268947249,-8.799094933206659,26.391895983273777
1760957965.5044467,-15.446281477410833,-0.07891997612346159,1.1543521417473024,0.1130259876088469,28.5902219584324,-2.686064129804721,27.206389433572426
1760957965.51435,-15.10292439133583,-0.08391668604086065,1.1895122151507003,0.10599219663750058,28.53875042733071,2.286835224188672,27.68786164044643
1760957965.5244806,-14.75439421850849,-0.09138832266686486,1.2157441849026362,0.10468728479950708,28.17905207476296,5.860786297471118,27.856852269775214
1760957965.5344079,-14.39736462610728,-0.09967271636470686,1.231655756824813,0.10856681603206018,27.367558286321636,7.907408754152197,27.745011916115814
1760957965.5444243,-14.027055540450894,-0.10686854852661902,1.2369414493521913,0.11580218274296993,26.019582172382833,8.445912781229973,27.39840319364542
1760957965.554302,-13.638043279591402,-0.11113618963032577,1.2323315772744736,0.12360228509905807,24.136485194560333,7.645908384553687,26.879263915868407
1760957965.5643601,-13.225265252238444,-0.11106773727965893,1.2193367476066277,0.12875951422011275,21.81757019869627,5.813703825131503,26.264753470088884
1760957965.5744317,-12.78508674213518,-0.10602666171493637,1.1998793155858882,0.1282977043985509,19.252571720813833,3.36097235640368,25.641729916924355
1760957965.5845861,-12.31625997687114,-0.09634270760091196,1.1759281775767245,0.1200720522586965,16.69487286173549,0.7568691435681026,25.097784492098373
1760957965.5944195,-11.820601696918793,-0.08329494053679908,1.1492362423537548,0.10319087685504282,14.420224382902175,-1.5318713702712554,24.71010132407287
1760957965.604341,-11.303256309435863,-0.06889202921981784,1.1212254624959126,0.07818257191069455,12.679408459116642,-3.104589554709397,24.534586251696517
1760957965.6144402,-10.772484789386251,-0.05551306120322038,1.0929918346009189,0.04689239923897064,11.654774587572195,-3.6834734232938318,24.597750177873756
1760957965.6244614,-10.238999496144833,-0.045487880266676974,1.0653550751754022,0.012144421583142904,11.429387598292196,-3.153151339576588,24.89308553313431
1760957965.6344032,-9.714935394338085,-0.04069281781975385,1.0388908946502213,-0.022757945830958186,11.974211716541209,-1.5759217263154788,25.38249418087501
1760957965.644551,-9.212602446993513,-0.04223131561052575,1.0139396933605724,-0.05459114339259348,13.154595446610053,0.8197896557643364,26.002172481868943
1760957965.6543798,-8.743195774007095,-0.050254628491812565,0.9906267070113303,-0.08071902823939452,14.753592224728761,3.675244338737335,26.67159029258285
1760957965.6642778,-8.315643784619448,-0.0639512013944969,0.9689255624698675,-0.09945605984362443,16.507032765352015,6.5550704669377575,27.303912098295523
1760957965.6745386,-7.935750031357377,-0.08170092259152824,0.9487679688452817,-0.11023472328681028,18.143845208994932,9.010022158933392,27.81626727618919
1760957965.684513,-7.605736319904208,-0.10135978703953084,0.9301744408279428,-0.11357212884226144,19.424792679373155,10.639292979881441,28.13851749190061
1760957965.6943905,-7.324229939446311,-0.1206164132139717,0.9133664000881242,-0.11086861530774646,20.17354802879645,11.14365967270129,28.21953541146346
1760957965.7042894,-7.086668815227554,-0.1373499453160274,0.898820015806781,-0.10409558183955338,20.295798087956708,10.36279266728102,28.030499440968278
1760957965.7143722,-6.886039276054731,-0.1499232573841222,0.8872345779512328,-0.09543943311763628,19.78451608698339,8.292861281547548,27.565263425571743
1760957965.7243533,-6.713822869664021,-0.15736509809436683,0.8794096482224323,-0.086964699634642,18.71207384308449,5.083478096817474,26.83835388378297
1760957965.7345243,-6.561015821321329,-0.1594245639808605,0.8760523229521565,-0.08034609362028959,17.211966300069545,1.0156478843433074,25.88147581574018
1760957965.7444596,-6.419095075841474,-0.15651238015111063,0.8775628511969635,-0.07670130327112419,15.454292213075309,-3.5354960333908156,24.739516726847288
1760957965.754481,-6.280829317338236,-0.1495647306763015,0.8838624115979627,-0.07653714536849926,13.61963201564654,-8.147912541528807,23.46689912485603
1760957965.7644405,-6.140859717029338,-0.13986853225719484,0.8943195865328869,-0.07980236277378165,11.87557545309181,-12.403833006837118,22.12476247294807
1760957965.7744586,-5.9959963842231785,-0.12887418658940167,0.907801049726149,-0.08602119853059205,10.35904786266709,-15.938838646497862,20.778965116902995
1760957965.7844987,-5.845196083256305,-0.11800596159923366,0.922831126887282,-0.09446679873828458,9.16606800981676,-18.483251266595786,19.498467874174644
1760957965.794504,-5.689214427494359,-0.10847477908950326,0.9378138338728874,-0.10433003020868725,8.348968163887445,-19.89119880871879,18.353463909878126
1760957965.8044474,-5.5299674107348675,-0.10110582037854879,0.951261145203011,-0.11485075695872334,7.919733409614496,-20.154125893681144,17.412712235683173
1760957965.8143544,-5.3696882295696735,-0.09620495106482094,0.9619808927704194,-0.12539820419191788,7.857269167818597,-19.39734281896125,16.739833230132934
1760957965.8243923,-5.210011561737242,-0.09349231333546619,0.9691976058946042,-0.13550342678674274,8.116263209641657,-17.86024658303445,16.38869255952461
1760957965.8344536,-5.051142284379334,-0.09212394618878782,0.9726004131883974,-0.14485499498445983,8.635792942449909,-15.862810533162572,16.398328007343384
1760957965.8444002,-4.891259481750064,-0.0908063582397786,0.9723277844899667,-0.15327180929550974,9.34662126689841,-13.762571021511008,16.78810599214138
1760957965.8543637,-4.72627031986023,-0.08799101014462947,0.9689062374907534,-0.16066756356422682,10.176869913108058,-11.90747604688141,17.55389680485926
1760957965.864591,-4.549970440095962,-0.0821204629047638,0.9631587801136565,-0.16701884248053414,11.056247923453004,-10.590493953436232,18.666007441441334
1760957965.874473,-4.354600417930195,-0.07188832671716218,0.9560931051908806,-0.17234270656714734,11.91920546531216,-10.011736635367734,20.069408047159683
1760957965.884534,-4.1317250292065975,-0.056472745019597294,0.9487766810551382,-0.1766830173533684,12.707352827664739,-10.252998840834277,21.686466127994688
1760957965.894403,-3.8733145113242675,-0.03570776897906927,0.9422091725646435,-0.18010122989026595,13.371346388368083,-11.268083586363282,23.42202936321722
1760957965.904577,-3.57288026595469,-0.010166483745135053,0.9372080578010384,-0.18266753753325407,13.872292156313518,-12.8902108389689,25.17035597334151
1760957965.9143746,-3.22651204640892,0.018858102523335387,0.934324555053791,-0.1844503635610089,14.182608094476949,-14.855453476946666,26.823152443880552
1760957965.9244332,-2.8336775750424703,0.049474705594177125,0.9338017090773046,-0.18550443742038056,14.286247337790472,-16.838855805090493,28.277875797084114
1760957965.934432,-2.397675625319052,0.07940383380099965,0.9355774594216719,-0.18585926460682595,14.17822081330097,-18.498046770174366,29.44547975818595
1760957965.9443772,-1.9256757889920966,0.10624860600806085,0.9393273138287559,-0.18551068196857923,13.863448450045889,-19.518126434223923,30.256897594166993
1760957965.9543436,-1.4283274730230784,0.12778843007539464,0.944536402669284,-0.18441866097625784,13.355075607656824,-19.651606660824097,30.667727743712636
1760957965.964382,-0.9189715263471883,0.14225353280368513,0.9505886299489995,-0.18251467156529178,12.672477777720202,-18.74818984808889,30.660792494874798
1760957965.9743826,-0.41253472248046275,0.1485415589698326,0.9568598631290304,-0.17972118090249475,11.839217450029974,-16.77089786315577,30.246453362079464
1760957965.9843118,0.07577450211088078,0.1463468860695969,0.9628019136498326,-0.1759833527472266,10.881202843137403,-13.797153914474523,29.460779824913107
1760957965.9942753,0.5318252784258611,0.13618694985733162,0.9680045195948759,-0.17130881823429536,9.825226001489215,-10.005541519715134,28.361860741094482
1760957966.004278,0.9438263517021107,0.11932583439295918,0.9722247224437928,-0.16580713223788388,8.697936631985739,-5.650846792794721,27.024683291334913
1760957966.0143313,1.3033496735174879,0.09761072016756084,0.9753787238825803,-0.15971836174594203,7.525175732526962,-1.0314058358533236,25.535063325256303
1760957966.0246596,1.6060026224603385,0.07324792314544651,0.9775005422721216,-0.15342137896244867,6.331507215953878,3.5464672590899475,23.983112157220084
1760957966.0344205,1.8516775261083571,0.04855049788951296,0.9786809690765869,-0.1474163913290229,5.139789853307239,7.802207638109219,22.456705154700295
1760957966.044378,2.044357792126271,0.025689687975280505,0.9790047021729076,-0.14228138694488202,3.9707241776965114,11.508819855522463,21.03539929310223
1760957966.0545056,2.191514165224252,0.006479230170506377,0.978501857991604,-0.1386070308239909,2.842432379051235,14.511900457958717,19.78521938353033
1760957966.0644991,2.3031733169925253,-0.007785294518903675,0.9771255056270022,-0.13691876703344077,1.7702021658466798,16.738364621243452,18.754670481309045
1760957966.0745666,2.3907747298144892,-0.016419647447700306,0.9747626436080735,-0.1375986654093527,0.7665034084624338,18.194773999217798,17.97224117612045
1760957966.0847611,2.465949043705531,-0.019373144605446056,0.971281195682895,-0.14082185950556614,-0.1587075795165039,18.956395508172115,17.445574156268812
1760957966.0943532,2.5393595531277615,-0.01717966113533499,0.9666066675975796,-0.1465207617788994,-0.9974855526060757,19.14909879690783,17.16240536913919
1760957966.1045241,2.6197522314332664,-0.010837095234280739,0.9608095343609282,-0.15438414533219902,-1.7433516690428124,18.926895332621413,17.093265370549435
1760957966.1145198,2.7133445505838907,-0.0016220993848091204,0.9541758873341922,-0.163891377228006,-2.390876474627783,18.448322447315768,17.19575030039368
1760957966.1244974,2.823630099005876,0.009133583990580866,0.9472380910770218,-0.1743778130344316,-2.9355268220228714,17.854942732668516,17.419922066216486
1760957966.134392,2.951590283164461,0.02025946743113199,0.9407578486932716,-0.18512367401058663,-3.3738554980698248,17.254881622849567,17.714154484954946
1760957966.1443167,3.0962216847727766,0.030908912111999635,0.9356687416892913,-0.1954526852796801,-3.704066092701357,16.713503117716428,18.030574891099754
1760957966.154491,3.2552406399176146,0.04064108430641958,0.9329899815150668,-0.20482066140135088,-3.9269577632489496,16.25211309594974,18.32922247579411
1760957966.1644614,3.4258189281422293,0.04941910797055824,0.9337220214777924,-0.21287331525204262,-4.0472112317345905,15.854253336409176,18.580205284783048
1760957966.1744082,3.60522062554391,0.057536099978477535,0.9387354417429079,-0.21945859668681303,-4.074899221722571,15.478020182357287,18.763482745047966
1760957966.184376,3.7912382782020786,0.06548740462064592,0.9486664759378131,-0.2245893725251513,-4.027021971842178,15.072086071316377,18.866348598791554
1760957966.1942606,3.9823645677384754,0.0738118847965604,0.9638306887568938,-0.2283637713057525,-3.9288220324262384,14.592727939436276,18.879127495270698
1760957966.2045083,4.177684897641583,0.08293053074662762,0.9841604281149697,-0.23086004085378797,-3.814626016665965,14.01912197061461,18.789943156005034
1760957966.2143803,4.3765340262375965,0.09301506504779317,1.0091671112849527,-0.23202847848770403,-3.7279659945381494,13.364438393762896,18.579621976378853
1760957966.2243614,4.578013976886896,0.10391726472457372,1.0379303782784044,-0.23160504823285596,-3.720731644875434,12.68088672466786,18.217835433499726
1760957966.234426,4.780502220235137,0.11517703765664522,1.069120273252682,-0.22907017023535317,-3.851123861719439,12.057796852963468,17.661439821531395
1760957966.2443068,4.981275021410566,0.1261061574362869,1.101059736546649,-0.2236705686491319,-4.180281928356403,11.61294074827066,16.85564503813068
1760957966.2543232,5.176332761332656,0.13592339443082033,1.131830344316171,-0.2145106384010175,-4.767673880358337,11.478386523180431,15.738165727223699
1760957966.2643542,5.360457915679041,0.14390435413050542,1.1594172317667266,-0.20070394904460925,-5.6656374563580725,11.7830277968497,14.245934509396879
1760957966.2745247,5.527482561668456,0.14950976386113274,1.1818823294637593,-0.18155921246157436,-6.913748257007005,12.634432849704197,12.323375144499833
1760957966.2847033,5.670705100731193,0.15246645402473497,1.197548714461108,-0.1567630397174952,-8.533877918861167,14.102777807145227,9.93077366613756
1760957966.2943897,5.783378257347837,0.1527883137554943,1.2051738098892215,-0.12651839670609258,-10.526816262332105,16.209349005745306,7.051104594441376
1760957966.3044677,5.859187389213745,0.15073459949455167,1.204088370191555,-0.0916051745896664,-12.871127724792903,18.921389939187545,3.69387974568168
1760957966.3145936,5.892645250313899,0.1467114514070087,1.1942836538349213,-0.053346302474817545,-15.524509163101898,22.153957938409004,-0.10481910983789097
1760957966.3246083,5.879346813873608,0.14113408570210878,1.1764380918696824,-0.013484074687500012,-18.427409294798895,25.778137399170408,-4.286126442184341
1760957966.334547,5.816057279727045,0.13428226053942227,1.1518808446361917,0.026009866579108927,-21.508208848741805,29.633756563496032,-8.77513271420715
1760957966.3444293,5.700644758758973,0.12619243945540995,1.1224903549418834,0.06315608110759781,-24.68897431411196,33.54399951027222,-13.48902269426016
1760957966.3545299,5.531906005782299,0.11662601894813483,1.0905274258764728,0.09618314808842512,-27.890758437520113,37.32920708520958,-18.344731063067698
1760957966.3645039,5.309356716018399,0.10513128632846136,1.0584124208006647,0.1237059105173705,-31.03762895823985,40.81774386575908,-23.264387780822574
1760957966.3744507,5.033060741656436,0.09118694975846725,1.0284727994844316,0.1448454608888465,-34.058973976783115,43.852868210610794,-28.177434602268836
1760957966.3844776,4.703556537504703,0.07439122219971098,1.0026986029292466,0.15928341806391091,-36.89002254291199,46.295724939849286,-33.019196472770744
1760957966.3945565,4.32191032485573,0.05465001818092008,0.9825414071253521,0.16725310356369233,-39.47084162781869,48.02554781110161,-37.72665485123657
1760957966.404504,3.88989136663211,0.03231979475661325,0.9687798507363835,0.16947401246243937,-41.74428531494229,48.9387092309467,-42.23292732108427
1760957966.4144351,3.4102329527783732,0.00827082582893763,0.9614618394390279,0.16703602903640588,-43.653469970674614,48.948344408885816,-46.46227315321036
1760957966.42433,2.88691947949339,-0.01614854290571912,0.9599270988007043,0.16124204023448907,-45.13938278096973,47.985976130082136,-50.3272467774582
1760957966.434403,2.3254288617125467,-0.0392493586302022,0.9629130525286524,0.1534257191066501,-46.13927852617387,46.00598370772478,-53.72905899002875
1760957966.4442897,1.7328612554728884,-0.05922590290350988,0.9687441197634236,0.14477286658755356,-46.586578502849044,42.99299648256688,-56.56152337689665
1760957966.4543638,1.117898868657586,-0.07443189981742208,0.9755905765815015,0.1361817168381969,-46.41296051397687,38.97142318363932,-58.718337142098605
1760957966.4646196,0.4905653567934538,-0.08365918034338246,0.9817570639540254,0.12819297918686606,-45.55312807822005,34.015415331094886,-60.10294011294442
1760957966.4743848,-0.13821689348734056,-0.08636192095635094,0.9859360940698859,0.12100441450307002,-43.95234351833236,28.256734570731627,-60.63982617413867
1760957966.4845276,-0.7572425209593221,-0.08277706575864231,0.9873596906392766,0.11456321273039717,-41.57622192917246,21.88753383392191,-60.28592363049905
1760957966.4943476,-1.3557560791640997,-0.07391367133463671,0.9858112776149747,0.10870838076018419,-38.42157644775597,15.1553294990843,-59.0404813064169
1760957966.5044994,-1.924226521678276,-0.061413651389016666,0.9815066832175392,0.1033202748990399,-34.526442096908966,8.348600650671823,-56.95182382893422
1760957966.5144331,-2.455077194483225,-0.04731415718685679,0.9748954520815019,0.09843106279170158,-29.977037624268487,1.7732947248610278,-54.119477344058616
1760957966.524849,-2.9432854795332632,-0.03376182383877756,0.9664562035597152,0.09426151272030439,-24.909579077443933,-4.277391470965571,-50.69061822367986
1760957966.5344417,-3.3867783333814763,-0.022737918808104222,0.9565557580411672,0.09117345964883303,-19.505601015909168,-9.555698206014442,-46.85057942670438
1760957966.5444999,-3.786572400898436,-0.015846054854319086,0.9454116231714985,0.08955543746911072,-13.980625990116692,-13.888960429364664,-42.80816430746691
1760957966.5547056,-4.1466363551001,-0.014190519557213335,0.9331537626295354,0.08968108742863638,-8.567362139092735,-17.20058366436153,-38.77756407401094
1760957966.5644004,-4.473485009720353,-0.01834479894295869,0.9199464198108313,0.09158800987581002,-3.495767326607645,-19.51781081873403,-34.959483615144705
1760957966.5745602,-4.775546147624148,-0.02838942395821761,0.9061177380227907,0.09501655499731111,1.0270260474511055,-20.96397996882476,-31.52438563694907
1760957966.5846846,-5.062367430556614,-0.04398926040536619,0.8922497322669916,0.09942860187551571,4.833971492308815,-21.735834810445272,-28.600426569766878
1760957966.5945127,-5.343748868110316,-0.06448154937047308,0.8791948329957757,0.10410422480836726,7.810261307867027,-22.06931810731714,-26.26776762183657
1760957966.6043754,-5.628896050964719,-0.08895662468285202,0.8680048447821586,0.10829559978964674,9.899078666806435,-22.19950056795074,-24.559765759384653
1760957966.6144829,-5.9256908954780005,-0.11632824889957558,0.8597811804372948,0.11140428545317593,11.100714032931416,-22.32140495273794,-23.47036786661494
1760957966.624572,-6.240167555367718,-0.14540108396238402,0.8554757080277283,0.11314034841060124,11.465755249964527,-22.55832692943153,-22.96604513677535
1760957966.6344597,-6.5762590081845484,-0.17494463018262243,0.8556851795279541,0.11362191722668413,11.083798042080343,-22.942945570638102,-22.99991840024778
1760957966.6444635,-6.935845461620685,-0.20377771337341907,0.8604870557912447,0.1133841981261576,10.069609004315435,-23.414341662054987,-23.525398429851833
1760957966.654443,-7.319091988903603,-0.23085800642820434,0.8693576760672187,0.11328658844844265,8.54888430724635,-23.831391938909082,-24.50674773792585
1760957966.6643648,-7.725013334673965,-0.2553605296065451,0.8811940960341121,0.11433071809551379,6.645671909906387,-24.000311633894018,-25.924482596940074
1760957966.674394,-8.1521560371864,-0.2767235292387039,0.8944349547641846,0.1174259423680563,4.473182020999433,-23.71178864497867,-27.77443510670382
1760957966.6844532,-8.599255025905899,-0.2946449130516127,0.9072544926824575,0.12315551246951843,2.1291625767211815,-22.781562810959414,-30.060469675658794
1760957966.6944382,-9.065718052954695,-0.30902756574918294,0.9177941256497318,0.13159782013375754,-0.30367746498629783,-21.087741087664032,-32.78209943053441
1760957966.7045453,-9.551823864642596,-0.3198914172210779,0.9243963920709491,0.14223967623143433,-2.7525375393675295,-18.598723724953764,-35.91931902205503
1760957966.7143805,-10.058583072749741,-0.3272845920197698,0.9258109374833934,0.1539926389260241,-5.1459352082438645,-15.387245772610227,-39.41762781669454
1760957966.7243843,-10.587286951811812,-0.3312272945943657,0.9213478494310147,0.16530441550187808,-7.403728121777379,-11.628403118599106,-43.176347470200085
1760957966.7344205,-11.13883795039771,-0.33170907218721446,0.9109604335247043,0.17435002067372884,-9.428341487608286,-7.582195418626162,-47.042958964790635
1760957966.744445,-11.71300029779963,-0.32873889723633143,0.8952473797661177,0.1792833993026189,-11.099879500024054,-3.5636249302971774,-50.81536791683181
1760957966.7543883,-12.307722429094145,-0.32242759005334803,0.8753716282049306,0.17852182685831236,-12.277378329978605,0.0946880574371288,-54.25282147720401
1760957966.7646863,-12.918666550789256,-0.3130719011372785,0.8529023188762667,0.17102530052687703,-12.807453527116591,3.081479260737255,-57.09476648733064
1760957966.7745936,-13.539041496987382,-0.3012120371656448,0.8296002920188927,0.15652875166164584,-12.54007316837367,5.141782444786629,-59.085497903901874
1760957966.784527,-14.15978188550124,-0.2876446009748491,0.8071813327516836,0.13568764024779129,-11.349522881171161,6.103497293613888,-60.001308086567725
1760957966.7944057,-14.770058669078836,-0.27338348965958903,0.7870954966204646,0.11010402795462691,-9.157303103646294,5.893015832794171,-59.67626052284019
1760957966.8044586,-15.35805284536981,-0.25957070821424294,0.7703557944387234,0.0822108649268104,-5.95298083396901,4.539161934772517,-58.02276850586543
1760957966.8145,-15.91188368421047,-0.24734987868993685,0.7574425121896727,0.05501080550338191,-1.8089400454718663,2.1663357753809307,-55.04380289210461
1760957966.824679,-16.4205610934389,-0.2377257209990771,0.7483017075406515,0.03169291726942165,3.1144594831079044,-1.0209513171351212,-50.83468445532508
1760957966.8344288,-16.87483138557079,-0.23143663813723742,0.7424426257698921,0.015180133099916837,8.575550907668523,-4.7592112444976555,-45.57394476699688
1760957966.8443894,-17.267806677109945,-0.22886220830615844,0.7391175822986307,0.007682525238514174,14.27021362099428,-8.749766268607678,-39.50448260742621
1760957966.8545592,-17.595307242680782,-0.22997763288004597,0.7375472267435157,0.010337996295825826,19.861071739433903,-12.682704100532062,-32.90786367619575
1760957966.864516,-17.855896225526195,-0.23435968097024562,0.7371454702889539,0.02300893987444322,25.013180139741245,-16.25935278650787,-26.075713376155683
1760957966.8744817,-18.05063660644045,-0.24124525925836235,0.7377059080097966,0.044273709684862494,29.430998796846907,-19.212412349749716,-19.282429558988614
1760957966.884578,-18.18264002368943,-0.24964002704515456,0.7395270475867565,0.07161474798045717,32.89109273645802,-21.32339857964101,-12.76283510113848
1760957966.8945384,-18.256498163575888,-0.25846551213873914,0.7434641189703128,0.1017714044703486,35.26562413388366,-22.437250606818594,-6.697168748372001
1760957966.9045787,-18.27768845770397,-0.26672092138367376,0.7508967491403838,0.1311999701351987,36.5331561616652,-22.473845151977564,-1.2044068697096073
1760957966.9144397,-18.252030690614642,-0.2736282570322411,0.7636019795871096,0.15656719529326227,36.77532631616372,-21.435812475934114,3.656365783735325
1760957966.9244168,-18.185246354747324,-0.2787315926855229,0.7835291561572034,0.17519876539233503,36.160208188935094,-19.411617739013746,7.877823680021257
1760957966.9347346,-18.082644626929664,-0.2819313073942571,0.8124873053517137,0.18541364607229363,34.91518432336901,-16.57259968683586,11.491478794790442
1760957966.944425,-17.948932941370888,-0.2834465144280871,0.8517718141571544,0.18669711467119018,33.29352005037409,-13.162789103220831,14.552304965813214
1760957966.954489,-17.78813031091815,-0.2837106425880967,0.9017725048333777,0.17969401215148123,31.539447927116793,-9.480998351736332,17.12332816288493
1760957966.9644961,-17.60354978972327,-0.2832154501453124,0.9616207229895611,0.16603377844728573,29.856530144865154,-5.855848856173948,19.262452375769804
1760957966.9743254,-17.397811195528707,-0.2823271160783196,1.0289495804548041,0.1480244986202697,28.383497564947913,-2.6158517735726456,21.01341974472462
1760957966.984485,-17.172843652216272,-0.2811039008787303,1.0998520954948459,0.12826866820614669,27.180792271109212,-0.05793266586875136,22.402220462269263
1760957966.9943829,-16.929842743023496,-0.2791501404764557,1.1691125510716598,0.10925722271389607,26.22978136514217,1.5816430553978111,23.43949873596461
1760957967.0044947,-16.669168411602367,-0.27554781308300064,1.2307453953082461,0.0929943807859913,25.445135031134186,2.1504694102098396,24.128560641141842
1760957967.01436,-16.39021016187641,-0.26890879343474605,1.2788030142073508,0.080698715147995,24.69913773875895,1.5952600027765822,24.477496331682524
1760957967.024657,-16.091290849355246,-0.25757603116653505,1.3083236122650481,0.07261908802549222,23.854680243612666,-0.03117300612806293,24.51281877708767
1760957967.034334,-15.7697040406139,-0.23996474823987363,1.3162154096031047,0.06799886783363586,22.80154258467798,-2.570438971670445,24.291209380932184
1760957967.0444214,-15.421965867942477,-0.2149856896347091,1.3018538966096769,0.06521310822252907,21.48886941182468,-5.7659797770514745,23.905820933855424
1760957967.0544438,-15.044312781297148,-0.18245174982991832,1.2672289168018345,0.06208074415980011,19.9462540837742,-9.27806499693648,23.484362621784978
1760957967.0646157,-14.633406912011527,-0.14335459236249815,1.2166022594021104,0.056312716200870944,18.287307016711768,-12.708271693560086,23.17787529307093
1760957967.0746443,-14.18714132770315,-0.09991838735699834,1.1557724991797613,0.04600887267275905,16.693168295066368,-15.634976764980728,23.14137328633766
1760957967.0850267,-13.705392122432336,-0.055392421341793986,1.0911357185761084,0.030086093447181255,15.378392982043833,-17.658887231635468,23.50973213562769
1760957967.0945625,-13.190564157531256,-0.013617181952318399,1.0287514174360433,0.00852830223716123,14.546408116134453,-18.453902735007187,24.373594153329815
1760957967.104592,-12.647824944805913,0.02153878201073877,0.9735835520017153,-0.017602540084470188,14.34460997980804,-17.815387403272215,25.760214987692056
1760957967.1145563,-12.084993998983302,0.046745805333994736,0.929018828169553,-0.04638597416303805,14.829209699276523,-15.696701151421248,27.62316624932906
1760957967.1244407,-11.512121711153823,0.05967060359970164,0.8966952895383434,-0.07542246696015863,15.947355898385808,-12.226131658316254,29.843041792090617
1760957967.1344335,-10.94083413362988,0.059252152645270624,0.8766158213996779,-0.10226991926201985,17.539907134278188,-7.699757365571374,32.239229128920364
1760957967.1445765,-10.383535696314187,0.045775498932558556,0.8674771468692875,-0.12483925127331641,19.363781600394915,-2.550245545753038,34.590821100082685
1760957967.1544394,-9.85255545439994,0.02076727409738459,0.8671203760750951,-0.14168200740561934,21.129115687498494,2.704016590857276,36.66325945847316
1760957967.1644404,-9.359302485352902,-0.013239282875810337,0.8730082436192043,-0.15214066039189725,22.544092779339735,7.521707585803656,38.236612593154064
1760957967.1745083,-8.913475421542316,-0.05301951181648771,0.882651784035957,-0.1563617518430962,23.359456275882234,11.40382224037519,39.13155791526376
1760957967.184565,-8.522361479820063,-0.09501136417840284,0.8939339132005811,-0.15518903573024595,23.405351026873745,13.952072497372269,39.229969284803005
1760957967.194735,-8.190263987128713,-0.1356748362930812,0.905302019802435,-0.14996412190567304,22.61497138720624,14.912836346094974,38.488125035052434
1760957967.2046728,-7.918106911607297,-0.17182568561324194,0.9158255813548584,-0.1422729935993029,21.03205837267625,14.201762295621872,36.941599145366574
1760957967.2144222,-7.7032706630996515,-0.20091345250242684,0.9251368812528645,-0.1336871089627662,18.802043780255783,11.907194706097085,34.70173226378473
1760957967.2245438,-7.539708807405334,-0.2212194515932992,0.933288717800534,-0.12554896877710872,16.149120951964836,8.273428580973674,31.944262080492532
1760957967.234551,-7.418375787551539,-0.23196010959253133,0.9405698669621576,-0.11883844210799144,13.343430664642653,3.6670767730138785,28.891350184066198
1760957967.2446578,-7.327958667405947,-0.2332904209943528,0.9473188464741576,-0.11413195464063174,10.66374368774006,-1.4685738453445114,25.78892645443878
1760957967.2544968,-7.255854979587991,-0.2262100777415034,0.9537715676508726,-0.11164221036698237,8.361396180529688,-6.665422292217193,22.881890386161537
1760957967.2645059,-7.189285456040608,-0.21238272121219026,0.9599683654439531,-0.111309563997397,6.6306978242888475,-11.482561870498367,20.390078130532707
1760957967.2745092,-7.116389911838336,-0.19388708248250738,0.9657306876896492,-0.11290998793947107,5.58963289344596,-15.552669628111644,18.487874448038212
1760957967.2845423,-7.027141509999839,-0.17292681383496103,0.9707008323035666,-0.11614887130110119,5.272669960552049,-18.61780390696924,17.289862545374287
1760957967.2944465,-6.9139391477590655,-0.1515334473489044,0.9744245943313452,-0.12072313981471117,5.635296315531091,-20.55089084409994,16.84399962038464
1760957967.3044217,-6.771798482421636,-0.1313026687190162,0.9764507382595365,-0.12635005952862496,6.567990208693648,-21.360822992274336,17.13264028183116
1760957967.3143742,-6.598143467119879,-0.11320428388376465,0.9764244848492191,-0.13277126242940218,7.916188719900553,-21.18095715196961,18.08055887940057
1760957967.3245177,-6.3922791261808705,-0.09749779591299355,0.9741614146252969,-0.1397429656527395,9.502583889599324,-20.242700564033193,19.568187536513115
1760957967.3343892,-6.154683167282902,-0.08376858515302917,0.9696961875043912,-0.14702227463429254,11.148588548037372,-18.837673019991847,21.447739081088177
1760957967.3444293,-5.886278896652637,-0.07107806958716564,0.96330276919322,-0.15435753241251168,12.692658782314476,-17.27346395699348,23.559772893796907
1760957967.3545194,-5.5878441623267685,-0.05820084422528593,0.9554822701728213,-0.1614873515801074,14.004018784916687,-15.82901372135004,25.748054191772347
1760957967.3646057,-5.259676578821121,-0.043907959333705275,0.9469168537064594,-0.1681488399058953,14.991070708624433,-14.715841126293716,27.87116349843985
1760957967.3745763,-4.901582469351605,-0.02724988278221311,0.9383945430690025,-0.17409256673614812,15.604383355564075,-14.050543565179986,29.810100875627707
1760957967.3846161,-4.5131935998742865,-0.0077934608329388476,0.9307163127577605,-0.17910055952223428,15.834673240731254,-13.842297875613175,31.47192970550616
1760957967.394518,-4.0945502055006875,0.014226870796261629,0.9246005407158538,-0.18300348960616358,15.70663997979314,-13.996797411040676,32.79015079945727
1760957967.4044056,-3.64683282541652,0.03787080492963915,0.9206003325149451,-0.18569404010159093,15.26988327347125,-14.335562668134497,33.72288018740765
1760957967.4144678,-3.173091678243953,0.06157488441800848,0.9190462782423999,-0.18713496032602353,14.588365054373448,-14.627250081608286,34.24998416879657
1760957967.4245222,-2.6788175651629973,0.08334309245041194,0.9200210374704034,-0.18736162813191892,13.729929152010273,-14.625826932978661,34.37012547452226
1760957967.4346259,-2.172222105679646,0.10101362314147383,0.9233651684923795,-0.18647981694722093,12.757221268383068,-14.109583987595107,34.098279717122836
1760957967.4445326,-1.6641423686843566,0.11255695060507175,0.9287091260189142,-0.18466024269279172,11.720991401019518,-12.915083581564831,33.463828231073485
1760957967.4545748,-1.167546353249416,0.11635593577150559,0.9355249679008709,-0.18213188636515473,10.656295494038803,-10.96124292162428,32.50896993871311
1760957967.4646833,-0.6966785652685797,0.11142618918578634,0.9431906868029212,-0.1791749604508875,9.581652135650089,-8.26056692878987,31.287026057881594
1760957967.4745483,-0.2659379455940425,0.09755116803675197,0.9510584979089804,-0.17611208339654202,8.500830181309404,-4.916682489887882,29.860258885153367
1760957967.4844983,0.11138221907821853,0.07532339067417178,0.9585169929945045,-0.17329459740255057,7.406665572254113,-1.1094082748103444,28.297028248062706
1760957967.4943793,0.42434375916916134,0.046095607298877135,0.9650378701775905,-0.17108115655668968,6.286123095637094,2.9296749255542616,26.668360855335205
1760957967.5044296,0.6654556523721127,0.011854517827746497,0.9702014101107455,-0.16980732271243637,5.12572910129477,6.947033591476333,25.044208587354913
1760957967.5144575,0.8314845192278677,-0.024963793582812973,0.973700016290457,-0.1697472591204019,3.9165144144286574,10.697813407890537,23.489768503156416
1760957967.5246902,0.9238969082823476,-0.061694240553993605,0.975325106532516,-0.1710716854048813,2.6577357196005815,13.97301950672025,22.06223732861651
1760957967.534702,0.9488884351722592,-0.09567763163639852,0.9749484941913875,-0.17380996374008784,1.358889899949582,16.619842062292065,20.808316072051014
1760957967.5446513,0.9169936351522192,-0.12449221325836457,0.9725126055657887,-0.17782727941525833,0.03987304110114335,18.552990787624218,19.76269082636772
1760957967.554532,0.8423067043388663,-0.14616532547787764,0.9680412616372438,-0.182828091292158,-1.270502371243123,19.756355250248788,18.947588009364274
1760957967.5644996,0.7413810222093649,-0.15934610635545893,0.9616739820182295,-0.18839234027809387,-2.537133843044214,20.27572106484527,18.373335420349555
1760957967.574494,0.6319138844161317,-0.16341671942830854,0.9537155263932585,-0.1940413201150665,-3.721792711634887,20.20441888086301,18.039695537001958
1760957967.5845501,0.5313548910756527,-0.15852036575874198,0.9446837071393922,-0.1993191376816768,-4.786323585665468,19.664518993216824,17.93763422114187
1760957967.5944767,0.45559156404489326,-0.1454936328409476,0.9353360205735585,-0.20386911362488275,-5.6956243635215715,18.78651082095318,18.05116782000189
1760957967.604532,0.41785588191322703,-0.1257088793177619,0.9266602059929894,-0.2074858692308383,-6.4204014163827985,17.69041103773067,18.358967751043558
1760957967.6146078,0.42795967525995116,-0.10085320572099904,0.9198230108165044,-0.21013144873483158,-6.939830152925748,16.47096811347877,18.835462451111994
1760957967.6246338,0.4919131754119188,-0.07268490274013623,0.9160810178268277,-0.2119131248630627,-7.244237249773949,15.18904013241758,19.45125766181321
1760957967.6345148,0.6119215109304441,-0.04281174589959751,0.9166643696336155,-0.21302903181382446,-7.337785816608232,13.870305150815431,20.172811517350095
1760957967.6445286,0.7867003236564768,-0.012529324030966592,0.9226476292137608,-0.2136948440279391,-7.240940365651398,12.511307771936467,20.961456112497544
1760957967.6545186,1.0120159413778516,0.01725709368820334,0.9348213378596151,-0.2140680756252414,-6.9922745193639475,11.091627699432843,21.77203269009416
1760957967.6646113,1.2813467639289158,0.04602472369178782,0.9535735068552487,-0.21418379462078938,-6.649037183976947,9.589890238128014,22.551565210593033
1760957967.6746743,1.5865773892552992,0.07355679363551622,0.9787862784521129,-0.21390910444789857,-6.285898003471338,8.00063296118006,23.23849358460532
1760957967.684521,1.9186600654032884,0.09982477953888882,1.009754924129513,-0.21291919312134563,-5.9914955671141525,6.348844445551392,23.76298272661637
1760957967.6945574,2.2681959427336644,0.12485669232950383,1.0451448758967128,-0.21069721011995549,-5.862764582933893,4.699346325822162,24.04869466159945
1760957967.70447,2.62590024244686,0.1486149287820558,1.0830107501711879,-0.2065616169395583,-5.99739510427648,3.159050501306236,24.016177563234756
1760957967.7145584,2.9829279766676744,0.17090407192191534,1.1209001534926792,-0.19972500989996744,-6.485062096408916,1.8713567239983888,23.587741335177498
1760957967.724512,3.331055170780209,0.19132547793795004,1.1560508669860043,-0.18938531979218967,-7.3982388152892975,1.0033260026562056,22.69340048000582
1760957967.734485,3.662731509516074,0.20928770249019762,1.185667638118833,-0.17484311978485115,-8.783538323856764,0.7274759562511477,21.277197198633118
1760957967.7446365,3.971036953122403,0.22406933629258816,1.207242682938639,-0.15563002217227961,-10.654645845086886,1.2008763438319319,19.303010150509124
1760957967.7544696,4.249584210697945,0.23491841059483937,1.2188684718589398,-0.13162680842570795,-12.987933787469071,2.5446041268479354,16.758876499865657
1760957967.764486,4.492412107114482,0.24116502354015604,1.2194867456425524,-0.10314840937927526,-15.721680740866455,4.82654831375558,13.658970964590544
1760957967.774431,4.693911250375098,0.24232202589231705,1.20902718965592,-0.07097619597117057,-18.75941364479562,8.0500336450176,10.042715768062855
1760957967.7846882,4.848810781924015,0.2381519824647211,1.1884113673453607,-0.03632572684440226,-21.97731136642803,12.149783046821373,5.971008057892123
1760957967.7945974,4.952235070705725,0.22868789154539912,1.1594247769187989,-0.0007496862565534234,-25.234936900213192,16.995497596471992,1.5201529895309867
1760957967.8046958,4.999818574589831,0.21420840011195255,1.124484273603075,0.034011043278616745,-28.387925442375373,22.40207568242145,-3.2253837348219556
1760957967.8147721,4.987852491463969,0.19517936147065845,1.0863453769008682,0.06620530269471718,-31.30079930530402,28.144535652307063,-8.180013976871857
1760957967.824545,4.913432285551391,0.17217885882781267,1.04780071598161,0.094253538694088,-33.85795751256932,33.97524836027126,-13.262525635499214
1760957967.8345435,4.774581633313085,0.14582459056235184,1.0114143051431603,0.11691366483856457,-35.97121772050358,39.6411441083177,-18.399097744484777
1760957967.8446078,4.5703428048593935,0.11672341388604236,0.97931938935067,0.13341632023037228,-37.583077243033024,44.89900743471989,-23.52351833793755
1760957967.8545032,4.300839768654228,0.08546074802820149,0.9530883241864015,0.1435537508305086,-38.665854212599555,49.52763236524105,-28.574977109413208
1760957967.8644762,3.9673312063202353,0.052637244810002586,0.9336687044560922,0.14770114145189672,-39.21762987161394,53.33632295795794,-33.494308147899105
1760957967.8746295,3.5722703287513347,0.018940506903380457,0.9213740854198973,0.14675128445503993,-39.25618398580249,56.16988344214417,-38.21975461347576
1760957967.8845065,3.1193758126217905,-0.014780455279302789,0.9159193746573434,0.14196142113623592,-38.81203280553149,57.91076928807033,-42.68328521940898
1760957967.8944006,2.613698924782556,-0.047477517921686745,0.9164961150938208,0.13473917586607664,-37.92153436749453,58.47939712118383,-46.80835419960613
1760957967.904402,2.061655152031893,-0.07793096754041655,0.9218857604118988,0.12641664574556738,-36.62093752960682,57.83370542073669,-50.50981843256736
1760957967.9145656,1.4709817687875255,-0.10484827401364061,0.9306062470559233,0.11806585008224704,-34.942132702712016,55.96892673087265,-53.69647833997712
1760957967.9248307,0.850588081708907,-0.12701771253553215,0.9410803926550009,0.11039485063077542,-32.91063398729,52.91817558088135,-56.2763865714482
1760957967.9345438,0.21028002299588466,-0.14348586338160824,0.9518081683104018,0.10373927073097573,-30.546042959661243,48.75386230642732,-58.164696895465354
1760957967.9446354,-0.4396397677353629,-0.15372306873456867,0.961520640009084,0.09813716963443059,-27.865008976766347,43.589185684413515,-59.29340394924565
1760957967.954458,-1.0888759362032185,-0.15774375824947176,0.9692916982749664,0.09345463908345177,-24.886470661562534,37.57827451933166,-59.621851111789724
1760957967.9644175,-1.7277110577879649,-0.1561563373297669,0.9745870744042991,0.089520932223442,-21.638579928856867,30.913260980407504,-59.14643189416863
1760957967.974439,-2.3475905061892006,-0.15012782663533875,0.977241423992992,0.08623544524813709,-18.166121471718814,23.816897991325117,-57.90762317251521
1760957967.9846318,-2.941656233969906,-0.14126094012699147,0.9773716464040505,0.0836207449188306,-14.536659886478219,16.530259118903253,-55.992513883469876
1760957967.9945674,-3.5051567865748017,-0.13139585548222127,0.9752515122235776,0.08181257728794725,-10.843424413935727,9.296310444144728,-53.53143888210515
1760957968.0046046,-4.0356649922757635,-0.12236449058228663,0.9711822867617761,0.08099591790800538,-7.203315053371745,2.3413412548589845,-50.68823251963676
1760957968.014524,-4.533055178293713,-0.11573834916078767,0.9653929354845816,0.08131106318806942,-3.7493760743620776,-4.142933502409566,-47.64487269780782
1760957968.0245435,-4.999228058330273,-0.11261700469157693,0.9579929440318481,0.08276164303735023,-0.6183837457039073,-10.013558092675027,-44.582587213838465
1760957968.0344954,-5.437616262465564,-0.11349882950302713,0.9489861220757668,0.08515562200890696,2.064559822312426,-15.18426911481917,-41.662435189706876
1760957968.044411,-5.852544713652816,-0.11825793582053364,0.9383396631601425,0.08810097417693534,4.201709368177613,-19.625795589919804,-39.00866644322769
1760957968.0544503,-6.248546339184193,-0.1262259949215794,0.9260891829626638,0.09106187139728893,5.735707963567694,-23.358646875910924,-36.69774710910082
1760957968.0643847,-6.629739668473763,-0.13635403366335305,0.9124477801423928,0.09346382829747285,6.657458631096929,-26.439955095977805,-34.75495461919341
1760957968.074411,-6.999362174798374,-0.1474166994711705,0.8978819771385268,0.09482335181379398,7.007271833612356,-28.946983823117005,-33.159099921932764
1760957968.0844948,-7.3595260505991416,-0.15822152495778588,0.8831263180451046,0.09487247285754398,6.869001884584315,-30.960338798912947,-31.8544676842549
1760957968.0944536,-7.711225811215123,-0.16779270926579018,0.8691284638337643,0.09364982256079735,6.358200874835617,-32.54967808090836,-30.767745908118815
1760957968.1044242,-8.054584753646349,-0.17550703672214152,0.8569371154378104,0.09153568825496033,5.606339207471885,-33.763956657646446,-29.826814445356412
1760957968.1145475,-8.389286117945426,-0.1811666720755816,0.8475570834196876,0.08921946829197558,4.743655547451236,-34.62718805936569,-28.97797261970018
1760957968.1246004,-8.71510192252817,-0.185000525484608,0.8417985699285879,0.08760369304137261,3.8831926290921355,-35.13961088631332,-28.19857995640023
1760957968.1344333,-9.032415304571622,-0.18759462602992194,0.8401461182126636,0.08766385200051219,3.1081646864773953,-35.283236094622104,-27.50307802726531
1760957968.1446326,-9.342635935628278,-0.18976306998283413,0.8426693319555743,0.09029174620147298,2.46415352570434,-35.030169533189415,-26.941703234705905
1760957968.1544135,-9.64843196654143,-0.1923826236755624,0.8489907712222335,0.09615072061911195,1.956916515751073,-34.351875701486364,-26.59252851168367
1760957968.1644263,-9.953738601679053,-0.196221876816126,0.85831558988229,0.10556582959229352,1.5559198010192303,-33.22761067428061,-26.548470036484627
1760957968.1744628,-10.263541877030116,-0.20179546400657292,0.8695152170661559,0.1184628522097463,1.203080272209938,-31.650553071840026,-26.9014292094792
1760957968.1845918,-10.583467853122446,-0.20926514884921263,0.88124854717012,0.13435912220828478,0.8255641373352791,-29.63068528270926,-27.725864302474893
1760957968.1945095,-10.919230483229214,-0.21839907154525665,0.8921024291344095,0.1523990301724676,0.35088277511757177,-27.194187521409674,-29.063935481083835
1760957968.2047682,-11.276009053293567,-0.228594336035444,0.9007371624996571,0.17142112276660357,-0.27791263480389783,-24.379908143159376,-30.914056187761673
1760957968.2144072,-11.65783921531725,-0.23896443390587654,0.9060258754822494,0.19004406891859704,-1.0892461267054583,-21.23420422570368,-33.224269431859895
1760957968.2249634,-12.067105196358522,-0.2484855123759009,0.9071754280811576,0.20676412499887256,-2.074223163887665,-17.80590109070661,-35.89134984013839
1760957968.2346075,-12.504207871229836,-0.256182162227316,0.9038135187785054,0.2200633442031152,-3.183261692222272,-14.143111500371361,-38.7659005206366
1760957968.2445047,-12.967452971913124,-0.2613190318631515,0.8960259448498376,0.22853133791821253,-4.328437303112252,-10.29312155542104,-41.66300611782712
1760957968.254622,-13.453164302676406,-0.26355762930307985,0.8843315755895037,0.23100033269666487,-5.391031683885441,-6.305613884616997,-44.377300064790695
1760957968.2643273,-13.955991315763802,-0.26304383893506844,0.8695922462679391,0.22668399729920002,-6.2332832480871465,-2.2384395519600253,-46.700680064318725
1760957968.2744937,-14.469356154766015,-0.2604081325028598,0.8528695522958294,0.21530109405683606,-6.713063353299763,1.8356898954694747,-48.4404502997502
1760957968.2845445,-14.985971639052224,-0.25667857060949845,0.8352542075500659,0.1971614414494762,-6.700005369701579,5.823572690966642,-49.43552112063331
1760957968.2945,-15.49835651683061,-0.25312080066519044,0.8177000870459962,0.17319449825964456,-6.091442737773126,9.608739174127582,-49.56858389685014
1760957968.304489,-15.999278635713925,-0.2510298012112589,0.8008942831865304,0.144907503072704,-4.826348403886584,13.052734695295221,-48.7728932003938
1760957968.314541,-16.482072105557386,-0.2515071969145843,0.7851895298752991,0.11426869408977015,-2.8953813019150543,16.000943846737787,-47.03324690053668
1760957968.3248088,-16.940799670360743,-0.2552643412911858,0.7706168361294656,0.0835212395695184,-0.3453349593722857,18.292744049829366,-44.381696458208886
1760957968.3347545,-17.370261515830464,-0.2624899857149951,0.7569829575774822,0.0549453938438008,2.7230935830081635,19.775187995433154,-40.88925358197713
1760957968.34461,-17.765880389597992,-0.2728088649475587,0.7440402557051324,0.030599142907587043,6.164317795427275,20.318916160424163,-36.65530748121327
1760957968.3545244,-18.123514867998487,-0.2853377796553722,0.7316996745904739,0.012077357903616482,9.802706692659834,19.834578640490907,-31.796606301845674
1760957968.3644311,-18.43926403884634,-0.29882632181212126,0.7202457031005264,0.0003311635432340747,13.451447252755454,18.287757917956107,-26.437486603642885
1760957968.3744795,-18.70932537345687,-0.3118546520913064,0.710507707754713,-0.00441988708466139,16.933045681346403,15.710341281195873,-20.702600795732025
1760957968.3846154,-18.92995346398858,-0.3230524009371681,0.7039457055930965,-0.0026686950420766933,20.098784919834035,12.206563750956692,-14.71279508492832
1760957968.394604,-19.097544626664458,-0.3313024681807299,0.7026199391216285,0.004497413144089394,22.84438903392428,7.952485842627075,-8.584158131594544
1760957968.4046767,-19.208847071462326,-0.3359007274686198,0.7090293590523025,0.01558742273421241,25.11940408942363,3.1883472022222668,-2.429699596490427
1760957968.4146302,-19.261273749165433,-0.33665370784801657,0.7258212088647586,0.028935203054041365,26.928515698064142,-1.7960784467443704,3.6373120794328213
1760957968.4245431,-19.25327748283388,-0.3339061212146381,0.7553922066657834,0.042931669119785514,28.324170812655222,-6.682357188962566,9.499590337958853
1760957968.4345477,-19.18473334872206,-0.32849412037967346,0.7994213091033081,0.05623124267465012,29.391249325524658,-11.149132769817179,15.03298704526172
1760957968.4445786,-19.057258774112032,-0.32161946952227294,0.8583930046425396,0.06790788758275058,30.225891678198284,-14.900808453673712,20.105863337896864
1760957968.4545639,-18.87439209548703,-0.314643322417294,0.9311873650099097,0.07753995558754652,30.91177346309274,-17.696688929897316,24.581800763611604
1760957968.464556,-18.64155621397033,-0.3088136568172521,1.0148263326557123,0.08520924873175736,31.498003411281662,-19.377523181658702,28.32641234474592
1760957968.4745743,-18.365761912007137,-0.3049644511131678,1.104467587815693,0.09140870260137723,31.983197401479995,-19.88596637839671,31.218391717382847
1760957968.484534,-18.05505165085058,-0.3032470704128265,1.1937178021499473,0.09686254150195409,32.309872236467136,-19.27746077017119,33.16409259641701
1760957968.494478,-17.717739035800648,-0.30296527605602713,1.2752883951233343,0.10227289384781997,32.37194046620175,-17.71856524702173,34.1139858135095
1760957968.5044506,-17.36154940676581,-0.3025775019413001,1.3419374379396611,0.10802377387087138,32.035828843742316,-15.470852903045278,34.078461592489525
1760957968.514509,-16.992800990049524,-0.2999006370485962,1.3875445115050924,0.11390205089111127,31.17284065051397,-12.860206068885267,33.139828702552656
1760957968.5245306,-16.615773912694447,-0.2925039399958015,1.4080890782769822,0.11892652151063196,29.697277215647023,-10.23381583352982,31.457253866104665
1760957968.5345917,-16.232391355355475,-0.27823126152230687,1.4022961343524365,0.12138406069064293,27.602246966906684,-7.910335232188519,29.26199061449894
1760957968.5445685,-15.842284338426174,-0.2557450103373079,1.371794402623963,0.11913019689982579,24.983975301688325,-6.131660917069832,26.841612132777815
1760957968.5544612,-15.443236690735866,-0.22495777335826897,1.3207676775104025,0.1101211208369322,22.04660477499426,-5.026342892565944,24.513920725840265
1760957968.564506,-15.031926024262967,-0.18722506534314945,1.255209947143334,0.09304077276518005,19.083147712537077,-4.5934128827349685,22.593360741086745
1760957968.57452,-14.604815026390867,-0.14522833886345696,1.1819768172416159,0.06782373619778287,16.433778842949405,-4.711254460452093,21.354530079824997
1760957968.5846195,-14.159028501532182,-0.10256740525096648,1.1078419561669917,0.03589121200460906,14.428621163778553,-5.170088257769644,20.998235843217735
1760957968.5944083,-13.693080037099012,-0.06316602490518738,1.0387208127018943,9.750745694965455e-06,13.326753976138358,-5.720682432149747,21.62528807109755
1760957968.6046054,-13.207367945264775,-0.03063756143216579,0.9791425491039663,-0.036194185434526016,13.26479354177123,-6.128015221838408,23.222072232471355
1760957968.6146994,-12.704415342694082,-0.007750490578826421,0.9319789747360603,-0.06893002172216361,14.226496322144804,-6.2179579295921155,25.66021118808337
1760957968.6246982,-12.1888692062581,0.003910375502792924,0.898404277480141,-0.09496829599217332,16.040042654354874,-5.907552345630292,28.710554599421343
1760957968.6346924,-11.667297094534051,0.004051391381276067,0.878052134332952,-0.11222324926292317,18.40342086365618,-5.214100481486935,32.06954173702069
1760957968.6445649,-11.147828838737524,-0.006432987459786633,0.8693304413934955,-0.12007158584162829,20.932364934476038,-4.243566278458625,35.39407239116659
1760957968.6545184,-10.639684372654944,-0.025715854228151112,0.8698387769552309,-0.11935973077245832,23.22107463377192,-3.163227746660726,38.33990343203467
1760957968.6645808,-10.152613386033186,-0.051373103770994875,0.8768208433748536,-0.1121277562474872,24.90424929413639,-2.1660949037003183,40.59856534458204
1760957968.674465,-9.69625775756043,-0.08072695576129382,0.8875837693986306,-0.10113828572542227,25.70975381294728,-1.4350324174548172,41.92870257166599
1760957968.6846054,-9.279444094988104,-0.11113981483015445,0.8998276587244041,-0.08933027768880503,25.49390238478464,-1.113162261427183,42.179076512389074
1760957968.6945336,-8.909427793820578,-0.14022479198125903,0.9118477466644617,-0.07931529033632813,24.25509019567654,-1.2846831635896234,41.301747528713484
1760957968.704424,-8.591140392138302,-0.16597009059053763,0.9225963580785452,-0.07300413806898627,22.125525216917296,-1.967503682292608,39.35496896354801
1760957968.714583,-8.326526701919402,-0.18679946208846773,0.9316206026597228,-0.071411104984316,19.344396270107126,-3.1167115962150955,36.496115315393965
1760957968.724497,-8.114079558848971,-0.20159807730003346,0.9389162216682256,-0.07464392134741396,16.21841262081339,-4.636330022863457,32.96561600728362
1760957968.7345107,-7.948674685313564,-0.20972291359890904,0.9447476560032919,-0.0820534109985592,13.076939730645767,-6.39616375861953,29.063423901488374
1760957968.74446,-7.821773482904351,-0.2110007241332822,0.9494776978912416,-0.0924891543825747,10.228862669551129,-8.250647776920392,25.120051221812467
1760957968.754558,-7.72200472554028,-0.20570601015189188,0.9534358103024443,-0.10459357753819401,7.927029724381042,-10.057142614999265,21.4646966073708
1760957968.7644591,-7.636069978515407,-0.1945095602255455,0.9568401768079925,-0.11707104156189195,6.3440771314156486,-11.691763551082772,18.39344500319624
1760957968.7746282,-7.549857868175079,-0.17839283909935094,0.9597757063038709,-0.12888666373827876,5.561128775166938,-13.061387172918822,16.140809630531628
1760957968.7846203,-7.449615239807548,-0.15853202285079376,0.9622180650842823,-0.1393727969028724,5.568794661151386,-14.110889987557256,14.857799687282387
1760957968.7944102,-7.323020118125135,-0.13616530948479408,0.9640847965161129,-0.14824263371465782,6.27838182358803,-14.825007378538878,14.599101929384288
1760957968.8045435,-7.16003258257611,-0.11246471300867711,0.9652917473541275,-0.15552780539743322,7.5403621202659075,-15.224610835568624,15.320888842429138
1760957968.8144104,-6.953453349878771,-0.08843510937116951,0.9657969761439482,-0.1614687960318144,9.166834604534484,-15.357810865139813,16.889388421071658
1760957968.824545,-6.6991776426129706,-0.06485741674815992,0.9656230524558843,-0.16639156970808514,10.954860860449882,-15.287084023618652,19.09890885410531
1760957968.8345177,-6.396178333000387,-0.04228208075986215,0.9648584832720445,-0.17059994674381518,12.70802990338203,-15.07441261514486,21.696757948490337
1760957968.8444674,-6.046281214774178,-0.021068401273332916,0.9636456409322746,-0.1743025551027999,14.254307865208913,-14.766955267950621,24.4116695379476
1760957968.8543832,-5.653806635478712,-0.0014567238180495036,0.9621627158378641,-0.17758003794738864,15.459010259081289,-14.385839546791592,26.982096579513573
1760957968.8645701,-5.225145700968689,0.016347022689480163,0.9606019204431632,-0.1803878219232922,16.232457075592855,-13.920233573132165,29.18105749787583
1760957968.8746397,-4.768318025186845,0.03209966748170415,0.9591421789648369,-0.18258489587369328,16.532432169026773,-13.32798389293249,30.835011308496913
1760957968.8845735,-4.292530531266429,0.04548396306087379,0.9579175854376324,-0.1839787405224175,16.361960490938227,-12.542941492980914,31.835299942935674
1760957968.8948114,-3.807735235210342,0.05611629248360439,0.9569899448368011,-0.18437795262807394,15.763205723445095,-11.487832678064294,32.141814753301446
1760957968.9047322,-3.3241760315272755,0.06359308629700518,0.9563365431073558,-0.18364508222228293,14.808531341317112,-10.090416805611861,31.77951877849614
1760957968.9145358,-2.8519208120262274,0.06755839962418717,0.9558595192603602,-0.181742338387971,13.589940094536708,-8.29997268958755,30.82914991592071
1760957968.924627,-2.40039045473768,0.06777142199849094,0.9554147154345298,-0.17876309922620187,12.208141636795999,-6.101066547650277,29.413794372678275
1760957968.9344954,-1.9779119452371374,0.06415697432184989,0.9548514602431547,-0.17494400012873093,10.762359941991903,-3.5221164891242704,27.683106646064548
1760957968.944553,-1.5913310429658862,0.056831060339265584,0.9540528164315186,-0.17065610086798585,9.341724831242503,-0.6373165726258425,25.796875381602955
1760957968.9546528,-1.2457158113760471,0.04610331386753803,0.9529669863203063,-0.16637749822799777,8.018783574157396,2.4382981988662666,23.909480256826413
1760957968.9647408,-0.9441675651152077,0.03246496502285814,0.9516232178184433,-0.16265156702117195,6.845387704213595,5.559786203886473,22.15656800765321
1760957968.9746292,-0.6877385163339147,0.01657159558887553,0.9501298055985152,-0.16003477018136067,5.850981936507579,8.56760002177418,20.6449815233572
1760957968.9846184,-0.4754453325924688,-0.000775663672111742,0.948656999475489,-0.1590375014570231,5.043141757786032,11.305164690677012,19.446609928445664
1760957968.9946313,-0.3043687762952582,-0.018654399158470114,0.9474109729204648,-0.16006209562906817,4.4100545225828025,13.63645554711171,18.596409015841786
1760957969.0044718,-0.16983693429231486,-0.03605827740240289,0.9466042562730569,-0.16334416297390936,3.9244978218673747,15.461346867913015,18.094390918520784
1760957969.014474,-0.06569442777359699,-0.051952424513088166,0.9464245832749079,-0.16890604324467035,3.548748067044092,16.72678857652409,17.910944319626648
1760957969.0244608,0.015343485877456957,-0.06534503910005166,0.9470020904253095,-0.1765326375826718,3.2397964403346626,17.432387065049703,17.994506988748203
1760957969.0346417,0.08126332403562983,-0.07536801951776041,0.9483771635321633,-0.1857779708825575,2.9543009807292284,17.629691020349867,18.28045222116297
1760957969.0445855,0.1402745588784934,-0.0813580684618376,0.9504760969674115,-0.19600497136930164,2.652853453412375,17.415344410627167,18.700078445024083
1760957969.0546284,0.2003096874314821,-0.08293012165407798,0.9531038094214793,-0.20645339600845947,2.3033231317811027,16.919117558273225,19.188738068763083
1760957969.0644908,0.2685402590882409,-0.08003307145618131,0.9559589299296641,-0.21632491752187885,1.8831817885442916,16.2884628208696,19.692330395306524
1760957969.0745027,0.3509535153628351,-0.07297406755743016,0.9586690281851813,-0.2248715512020507,1.3807848017663498,15.671533824081964,20.171589265813818
1760957969.0845888,0.45203727494193596,-0.06239777158866708,0.9608385461946207,-0.23147360077462428,0.7956131659596625,15.200582568606077,20.6038374422732
1760957969.094432,0.5746107229435633,-0.04921567813645338,0.9621030289800071,-0.23569642755121065,0.1375193511769701,14.977434673198031,20.982168354418135
1760957969.1044831,0.7198149732652593,-0.03449526062976564,0.9621879213454406,-0.23732144623338536,-0.574917677384598,15.062450699344039,21.31233215605567
1760957969.11477,0.8872490939128345,-0.019330307547724055,0.9609715449347349,-0.2363533275955295,-1.3167518437474537,15.468047605788733,21.607909300506485
1760957969.124505,1.0752151357448116,-0.004716684983932075,0.958547196336772,-0.2330095004547801,-2.0595014642952028,16.15746297748953,21.884606699362326
1760957969.1345074,1.2810242758975057,0.008546801061307873,0.9552732634263317,-0.2276984870265171,-2.774155146681719,17.04897330040226,22.15465111979733
1760957969.1444013,1.5013175005328725,0.019921859449578663,0.9517978998462394,-0.22099043982066754,-3.4340270529205417,18.02522768891367,22.42221541112677
1760957969.1546721,1.7323682558101143,0.02915872833311836,0.9490465486137589,-0.21357817617223215,-4.017173397517009,18.94677562618953,22.680564475009692
1760957969.1644099,1.9703538765790574,0.03629629491252003,0.948165056221907,-0.20622371771012207,-4.5082054109494445,19.6683494315957,22.911203703691836
1760957969.174449,2.211594869081262,0.041641452035991025,0.9504173955572449,-0.1996866667882501,-4.899518971887456,20.05612759321399,23.084881639580402
1760957969.1844783,2.452759623519023,0.04572927430963322,0.9570436260589487,-0.19463607276798545,-5.192136102560298,20.004127925492355,23.163972241952546
1760957969.1946611,2.6910215920909004,0.049261747805894464,0.9690894235136747,-0.19155378819838909,-5.3964267909285235,19.448054068787737,23.105610258074385
1760957969.2045548,2.924146376816299,0.05302434903905914,0.9872244230703743,-0.1906418346999919,-5.532888212027866,18.375279647313146,22.864970992838717
1760957969.2147233,3.1504847244996808,0.05778527419661644,1.0115739086573237,-0.1917477136599695,-5.632924579853352,16.830109316651896,22.39821729014258
1760957969.2244596,3.368857145798378,0.06418882018439186,1.0415942354238605,-0.19432077927734417,-5.739306675621797,14.913905768660394,21.664813546412955
1760957969.2344682,3.5783367780317303,0.07266037865136556,1.0760212409183054,-0.1974116891082818,-5.9058271206398105,12.780044501515798,20.62908442557463
1760957969.244501,3.7779636655818845,0.08334258688280191,1.112910354155372,-0.19972567642836153,-6.1956772963467985,10.623950262150949,19.26105834975785
1760957969.254382,3.966443830107387,0.09607662677178139,1.1497711218492068,-0.19973640261236372,-6.6782473823744315,8.668738278695097,17.53676956381264
1760957969.2644465,4.141889599568643,0.11043011339317482,1.1837843269036266,-0.19585831985183932,-7.4243394686792135,7.147298737196373,15.438273010947166
1760957969.2747662,4.301643457042616,0.12575997554135349,1.2120799867166137,-0.18666251465395167,-8.500121754493632,6.282058508164075,12.953631894406684
1760957969.284685,4.442205886999382,0.14129190705446512,1.2320470142937163,-0.17110696529819136,-9.960475046531773,6.2640934366081655,10.077071794703599
1760957969.294795,4.559268633509868,0.15619833419908774,1.2416379008485599,-0.14874160600200348,-11.842612076705993,7.2336289892228605,6.809389973699689
1760957969.3046074,4.647841921368183,0.1696607629816577,1.2396273708765464,-0.11984641291528975,-14.160893579334898,9.264098328756505,3.1586030206416784
1760957969.3145025,4.70245579551154,0.18090765775283824,1.225787726491893,-0.08546933199865389,-16.90357333704991,12.351705932055225,-0.8592661590792985
1760957969.3249578,4.717411078190521,0.18922677953371914,1.2009556638782892,-0.04734839572210769,-20.031833605811386,16.41186010126192,-5.219400977482802
1760957969.3345537,4.687056228883639,0.1939609357370536,1.1669804668256065,-0.0077237759529360005,-23.481056116920186,21.282996430668288,-9.8875157881604
1760957969.344583,4.6060725916916505,0.19450407554975124,1.1265574012142066,0.030934620226279925,-27.163927954052436,26.737383090542735,-14.819306477129691
1760957969.3547003,4.469758346548092,0.19031607577591053,1.0829623342623684,0.06624333744583136,-30.97477118762401,32.49763935229207,-19.959918897953184
1760957969.3646297,4.274306533549587,0.18096849971691165,1.0397145760895727,0.09621503314831473,-34.79445393858944,38.25705492701199,-25.24328000558047
1760957969.3748806,4.017073225912213,0.16622207441108108,1.0002040757700423,0.11950781981950895,-38.495382351437435,43.70147553156119,-30.591239779525665
1760957969.384553,3.696829327351206,0.1461226091145456,0.9673253515349475,0.1355664763676157,-41.9462952144549,48.53054680577523,-35.9126988871179
1760957969.3945632,3.313984475482549,0.12108959365227809,0.9431634072793373,0.14462645118203352,-45.016780870227265,52.47645443621972,-41.10315350705518
1760957969.4046555,2.8707641323913724,0.0919660799194137,0.9287751344130297,0.14758148631005194,-47.581569214541005,55.31891016361168,-46.045288858866336
1760957969.4144993,2.3713126687796495,0.06000334474810911,0.924100670462252,0.1457493467831609,-49.52471518466999,56.89587837412099,-50.61131125628385
1760957969.4244938,1.8216903417391777,0.02676751870728748,0.9280224298821407,0.14059604525396432,-50.74378827294252,57.11017811727764,-54.66753662265037
1760957969.4344516,1.2297351026702565,-0.0060271673475529005,0.9385680443051375,0.1334856345403786,-51.154145447314015,55.932417938987925,-58.08134709519629
1760957969.4446201,0.6047732417783797,-0.036736085297425496,0.9532298268819875,0.12550685391299707,-50.693330296866215,53.40068422487787,-60.730123918253256
1760957969.4545844,-0.04281564298224673,-0.06401468516603334,0.9693493372932125,0.11739894152284616,-49.325611593030935,49.617136656999655,-62.511351751542364
1760957969.464553,-0.7021488668840672,-0.08701343616452757,0.984496575678086,0.10957078073045337,-47.046596836243914,44.741360252339966,-63.35285120263009
1760957969.4746914,-1.3624533116836175,-0.10548898805213981,0.9967696373690486,0.10218770927161037,-43.887647169318555,38.980156511438935,-63.221987027349606
1760957969.4847605,-2.0136736000989592,-0.11979758330877135,1.0049601707783358,0.0952888880528269,-39.91945150260871,32.57357009958905,-62.132651941681104
1760957969.4947255,-2.6470061202052073,-0.13076528530713932,1.0085675745702827,0.08889549131252347,-35.253702753738,25.77744001252663,-60.14884097091016
1760957969.5046165,-3.2552986140024425,-0.13946435894747866,1.0076841196242459,0.08307866348172163,-30.04159276477731,18.843597525087283,-57.383783484588605
1760957969.5149398,-3.833274863011594,-0.1469521066716681,1.0028006437921575,0.07797434807615496,-24.468035097555298,11.999758895269778,-53.99399293361992
1760957969.5245028,-4.377571016333006,-0.1540376068936545,0.9945949390655716,0.07375221028961768,-18.741214778441663,5.431805070942124,-50.16827847915361
1760957969.5346978,-4.886600619067317,-0.16113316955399096,0.9837624907822486,0.07056117737800834,-13.078118349430394,-0.7287791974884777,-46.11266319936887
1760957969.5445156,-5.360293961421358,-0.16822455958834873,0.9709296014225132,0.06848060866161976,-7.687819275900016,-6.410083056258443,-42.03305082490447
1760957969.5545454,-5.799775178475247,-0.1749594555822562,0.9566542200264283,0.06750085539818566,-2.7550922586174655,-11.59642809675931,-38.118072121734315
1760957969.5646718,-6.207039837596307,-0.18081591498656158,0.9414839372400551,0.0675417140430416,1.5729449265096531,-16.316825932050442,-34.524597807850064
1760957969.5746038,-6.5846779805770135,-0.18529014037045405,0.9260223010325015,0.06850061805209973,5.195086139132095,-20.627096667885855,-31.367936967064164
1760957969.5847256,-6.935663921716302,-0.18804822107867833,0.9109613791589327,0.07031274713261829,8.058209005762983,-24.5887948059802,-28.71793897604134
1760957969.5944715,-7.263216143458397,-0.18901216336782242,0.8970614754788666,0.07300379788776654,10.153572835629562,-28.248794737061484,-26.601268478610123
1760957969.6044858,-7.570721723882823,-0.18837655191591893,0.8850826925701833,0.07671937410982455,11.508469233538092,-31.623293233444194,-25.00914422829564
1760957969.6145813,-7.861715205522134,-0.18656616492592887,0.8756876891210341,0.08172011574813956,12.175165847945696,-34.689050192382865,-23.90894089054721
1760957969.6247423,-8.1398963676396,-0.18414968845894367,0.869340265136239,0.08833828392081881,12.219397200571516,-37.38314084057284,-23.25740025016553
1760957969.6346684,-8.409165068138309,-0.18172883587148286,0.8662242277726759,0.09689986163854697,11.71051329902079,-39.6107852498144,-23.012933224895043
1760957969.6444457,-8.6736477359973,-0.17982656353645976,0.8662016647176672,0.10762614993182869,10.714839303389857,-41.25941406432762,-23.144709119169203
1760957969.6545346,-8.937691224448795,-0.1787971295614337,0.8688186698104784,0.12053758853345299,9.292993622857159,-42.21628388096084,-23.636918748321854
1760957969.664537,-9.205805474572957,-0.17877358495347617,0.8733547311855712,0.13538479481176163,7.501075780435395,-42.38670116247602,-24.48762641046047
1760957969.6745484,-9.482546002409673,-0.17965976140529025,0.8789051271412227,0.15162444046244236,5.39493994564312,-41.71014327975619,-25.702733563016235
1760957969.6846383,-9.772338396602157,-0.18116645277211726,0.8844833942993513,0.1684433280041109,3.036300991786286,-40.17212649711249,-27.286480794407
1760957969.69451,-10.079255965132768,-0.18288393145450565,0.8891305124188538,0.18481994038922694,0.4992003066296607,-37.810413845460744,-29.230428420248355
1760957969.7047148,-10.406765534032777,-0.18437502108691947,0.8920180466846914,0.19960592874199645,-2.124630274013839,-34.71496466048062,-31.50295015009638
1760957969.714444,-10.757456445734233,-0.18526815844923755,0.8925338640069602,0.2116135065522816,-4.72278426909458,-31.021832203073185,-34.04105677171378
1760957969.7244494,-11.132769515021518,-0.1853323497628634,0.8903411872443381,0.2197049491345613,-7.1625745737253625,-26.901987514167445,-36.74600318440304
1760957969.7344956,-11.532750626748234,-0.18452475776242983,0.8854047842581166,0.22288869773690365,-9.295456450012985,-22.546745263995994,-39.48372673151082
1760957969.7444665,-11.955864908624005,-0.1830096939970169,0.8779812592226641,0.22042553822901223,-10.965634456752309,-18.151951368940686,-42.09068806275537
1760957969.7544403,-12.398912248326372,-0.18114900290796393,0.8685737032185926,0.21193863022278894,-12.022274614635105,-13.903163274517283,-44.38502963788203
1760957969.7645755,-12.85707594739698,-0.17946110217899652,0.8578557558930859,0.19751087672660023,-12.33390432684742,-9.963639570807866,-46.18210143409039
1760957969.7745447,-13.324115896074312,-0.17854771274258807,0.8465760748646028,0.17774887164508665,-11.803028326552864,-6.466196579045913,-47.31249128008324
1760957969.7845023,-13.792694736962513,-0.17899629045904392,0.8354583143728729,0.15379429213086304,-10.379009732042068,-3.50912814286299,-47.640029230593235
1760957969.7944894,-14.25480682943178,-0.18127584267510655,0.8251117280751596,0.12726880638535967,-8.067715022178797,-1.1556383906399847,-47.077039349128185
1760957969.8047078,-14.702266897995058,-0.18564703185523618,0.8159642972559038,0.10014762009780044,-4.936870953782462,0.5642566373176185,-45.59443934144782
1760957969.814469,-15.12720769483985,-0.19210405169953262,0.8082265888345166,0.07456983692627543,-1.1162691536396894,1.6505999686218507,-43.225046699442984
1760957969.8245108,-15.522534812547365,-0.20035982548369524,0.8018916900530835,0.052607351641717225,3.207986564585351,2.1302914846609884,-40.059488808717695
1760957969.8345969,-15.882293526578936,-0.20987968453702258,0.7967729909937135,0.03602332700875415,7.80569873622067,2.0546084424001556,-36.23527863624273
1760957969.844808,-16.201916677401965,-0.21996062339935996,0.7925759199021406,0.02605472183318101,12.420983177853104,1.4976503930098526,-31.920733307260676
1760957969.8545105,-16.47834029753452,-0.22984303888152496,0.7889941960766058,0.02325151852449158,16.795416694699362,0.5552126986506573,-27.296246598855028
1760957969.8647377,-16.709990214455733,-0.23883312026946352,0.7858194181000271,0.02739848008852154,20.693321726598246,-0.6569707601602341,-22.535751668446043
1760957969.8745034,-16.896655896441192,-0.2464117497978258,0.7830545082879112,0.037533756135006306,23.925838823501703,-2.0068775295771397,-17.790962271116634
1760957969.8848433,-17.03927767956832,-0.2523109001490559,0.7810213543955052,0.05206461538008706,26.37030813131836,-3.352743350676117,-13.180290362018647
1760957969.8946643,-17.13968054525446,-0.2565475122738482,0.7804466855638967,0.06896667175697328,27.98200234543331,-4.552841215448734,-8.783423527061572
1760957969.904628,-17.20029015514639,-0.25941328462042895,0.7825008188511571,0.08604028932680959,28.79634251523216,-5.477913283201969,-4.641629189280908
1760957969.9146073,-17.223863009050582,-0.2614245244194159,0.7887596944188631,0.10118774891687567,28.921167337439257,-6.024766818639854,-0.763119688492017
1760957969.9245842,-17.21325426273104,-0.2632401059439435,0.8010671523436347,0.11267132499514114,28.52009121004345,-6.128915188160813,2.867661518719793
1760957969.9345198,-17.171238038857055,-0.26555845389127114,0.8212908749764664,0.11931843196958165,27.789184303627014,-5.773983885876135,6.278261131781772
1760957969.9445698,-17.10038579004058,-0.26900420067943953,0.8509876048877151,0.12065126139595281,26.930015180981204,-4.99594598501095,9.495606746002176
1760957969.9545116,-17.00299621080392,-0.27401203655708256,0.8910164245795694,0.11692815619186435,26.122519949868085,-3.8810069968944974,12.534443346628192
1760957969.9647672,-16.881059330287382,-0.2807150722544691,0.9411589905792036,0.10909159558027745,25.501204499311463,-2.5569862664857843,15.38877930946422
1760957969.9747312,-16.73623345734762,-0.288849941603298,0.9998209835286843,0.09862603403965185,25.137834653779223,-1.1791967045998981,18.028090076107617
1760957969.9847379,-16.56981449057351,-0.2976954556812362,1.0638985632474334,0.08733766933996691,25.033087048075444,0.08711601199052454,20.399401089217843
1760957969.9945817,-16.382678744356745,-0.30606245898229634,1.1288900331950042,0.0770755254367353,25.1187419593683,1.0850962056242426,22.435402982961133
1760957970.0047467,-16.17518713078758,-0.3123513549388504,1.1893022394545578,0.06942025129913243,25.270926943061898,1.6828099452733218,24.0676542173205
1760957970.0149581,-15.947056966343126,-0.3146895544957327,1.2393355411474647,0.06537664115550425,25.33356121639628,1.7863113279710894,25.242910009230606
1760957970.0244648,-15.697235002899932,-0.31114986716184617,1.273744095057587,0.06511790901859035,25.149427961446758,1.3488459420799335,25.939821986723977
1760957970.0344262,-15.42382958890973,-0.30003371698896397,1.2886960269428958,0.06783975496196065,24.594378193204737,0.37683329867746085,26.182801056164724
1760957970.0445628,-15.12416944160831,-0.2801859804722346,1.2824394567454984,0.07178244225260413,23.608535052514863,-1.0666187275177255,26.04986429382536
1760957970.0546896,-14.79504476696859,-0.2512941665026634,1.255627288650778,0.07445978884797645,22.217712017883517,-2.8609829047657422,25.67192627028009
1760957970.0644975,-14.433151529835154,-0.21411350211764846,1.2112430466464663,0.07308940067830243,20.539172885571404,-4.832303721125902,25.222300557572158
1760957970.0746164,-14.035705700932626,-0.17055599328672585,1.1541646025134054,0.06515617378313063,18.768532154108144,-6.764756319675394,24.897008690513644
1760957970.0847275,-13.601134880873266,-0.12359579164657149,1.0904740813938647,0.04898488812089192,17.148635807124123,-8.42176944234653,24.888452528972593
1760957970.094751,-13.129711855311399,-0.07697921025960659,1.0266559370004025,0.024176482255345577,15.92570257260604,-9.576059450831554,25.3565626401302
1760957970.1046472,-12.623989999409211,-0.03477555730983454,0.9688192355254533,-0.00820893838641886,15.301509695905226,-10.044495171105238,26.402293446868995
1760957970.1144834,-12.088943083912989,-0.0008474828236490626,0.9220465236051212,-0.045771366468989945,15.39178957184728,-9.721005300337696,28.048175304966747
1760957970.124514,-11.531789857550194,0.021658126558234635,0.8899292202950603,-0.08516177568166075,16.199778088382654,-8.59995377708528,30.22961035778366
1760957970.1348014,-10.96156440635025,0.03070524101232036,0.874311799105534,-0.12265054346394237,17.61043325020508,-6.783943172812204,32.79881693338409
1760957970.1445076,-10.388539528555512,0.025593170683033083,0.8752388473964144,-0.1547486850775561,19.406283654460008,-4.473374673845143,35.5410404749985
1760957970.154672,-9.823605026437155,0.007002852107228178,0.8910809222249709,-0.17876145781872868,21.301415219449076,-1.9392064753882696,38.200403976208214
1760957970.1644902,-9.277661572407249,-0.023107783228835773,0.9188062080138102,-0.1931817937280816,22.986769985742605,0.515997287505252,40.511212800528135
1760957970.1746135,-8.761047973592742,-0.06172644010770912,0.9543636449742195,-0.19786572503162553,24.178268641942033,2.6013663805018443,42.23000835628296
1760957970.1847262,-8.282999626588436,-0.10510696820278947,0.9931461391585773,-0.1939666584614604,24.659381774909217,4.077573380775639,43.164093405570235
1760957970.194543,-7.851138537690525,-0.14917183103982024,1.030503849057702,-0.1836470123295374,24.311409276628577,4.786747880591373,43.1932682118824
1760957970.2046022,-7.47100677767614,-0.1899629085818787,1.0622714281386736,-0.16963498185630188,23.12738258884901,4.66849414878077,42.282732772831565
1760957970.2150972,-7.145666911702889,-0.22408199865883233,1.085257783447806,-0.15473060873127087,21.20857032794257,3.7609733648434056,40.48627835188193
1760957970.2245965,-6.87540420065967,-0.24905087159350336,1.0976262276725772,-0.1413673268956111,18.745459065719505,2.188578429059612,37.93993541008754
1760957970.2345617,-6.657574441479139,-0.2635280279573889,1.0990796011742214,-0.13130501342336723,15.987349446424115,0.13947565685143692,34.84717271434779
1760957970.24472,-6.486641145040609,-0.2673434408276801,1.090783792007498,-0.12548776633964678,13.206105327991454,-2.1628614113717113,31.45755374130677
1760957970.2545285,-6.354429916787115,-0.26135247989131244,1.0750293864417415,-0.12406086165801529,10.660018961397768,-4.489854345906993,28.04140032964447
1760957970.2646637,-6.250597673160077,-0.24715426148705555,1.054717227556587,-0.12651393803749705,8.563169446778971,-6.635828344017268,24.86338555231958
1760957970.2747986,-6.163278985128896,-0.22674635798381715,1.0328044058330916,-0.1319019925988405,7.064146537454738,-8.440588294178454,22.157982124945878
1760957970.284598,-6.0798427676234095,-0.20218740199069538,1.0118376787329566,-0.13909053395530835,6.235932839731718,-9.804248034623745,20.109317360228335
1760957970.294724,-5.9876776406697685,-0.1753208774838624,0.9936527972311825,-0.146976236806398,6.076615811649631,-10.693037330388972,18.837298164115058
1760957970.3046033,-5.874926493026332,-0.1475907424762091,0.9792624730155216,-0.1546494545341328,6.518936950385627,-11.135877147781484,18.39098171071747
1760957970.3145812,-5.731108173213693,-0.11995924571703505,0.9689102601986296,-0.16148486827882969,7.445774234211965,-11.212551449626087,18.749236971571463
1760957970.324882,-5.547590934690676,-0.09292110639831462,0.9622392918673388,-0.16716363052829786,8.708508911968826,-11.035271113739508,19.827937133933727
1760957970.3346229,-5.317910970883556,-0.0665965377006466,0.9585154773935003,-0.17164064658490302,10.145628438653459,-10.726270023429828,21.49233779069966
1760957970.3447068,-5.037953659080953,-0.04087819713657362,0.956851399839836,-0.17507504233488802,11.599571850201004,-10.39468862097997,23.57293305876686
1760957970.354677,-4.706029669253637,-0.015602874744896973,0.9563929342114634,-0.17774241661195841,12.930508912940109,-10.116232299314959,25.882908859107324
1760957970.364625,-4.322879114050811,0.009283481877248546,0.9564481153258863,-0.1799453647517048,14.026335243396753,-9.918815079156637,28.235313844086054
1760957970.3746705,-3.8916246476673044,0.03359809299679505,0.956552325040873,-0.18193512082295915,14.808620243326079,-9.776575644852649,30.45825797896957
1760957970.3845563,-3.4176747822060154,0.056855640753675295,0.9564747588447577,-0.18385344049204133,15.234585370052661,-9.61335499191235,32.4068377157734
1760957970.3945162,-2.9085607943695537,0.07827689251716835,0.9561793765962033,-0.18570088551495484,15.295465422470249,-9.315152064476424,33.97103109025844
1760957970.4047456,-2.3736817434285435,0.09686839789971868,0.9557588133907637,-0.18733499202953274,15.011850064482498,-8.749533076771012,35.079401912777676
1760957970.4146104,-1.8239349919581416,0.11155577945560627,0.9553606974466061,-0.18849822579161277,14.426821070119662,-7.788781300085454,35.69898049893719
1760957970.4248154,-1.2712229792640601,0.12134386228131379,0.95512245099453,-0.18887095452847194,13.597865404588582,-6.332962212104279,35.83205633784757
1760957970.4347725,-0.7278473527250733,0.12547381913846234,0.9551245816078247,-0.18814033602633976,12.588610913324933,-4.329135540364253,35.510786051179686
1760957970.4447722,-0.20582395427613995,0.12355044914648268,0.9553656199444927,-0.1860736087359121,11.461366550046924,-1.783639282668639,34.790514198070554
1760957970.4547002,0.2838288478821678,0.1156204093717169,0.9557557736407538,-0.18258399908111886,10.27124871833967,1.2344383149836418,33.742595799601034
1760957970.4645593,0.7317643582207936,0.10219204727883965,0.9561227147804904,-0.1777785326319746,9.062367617659893,4.599014940676589,32.44736840185078
1760957970.474617,1.1308778914981281,0.08419689012018948,0.956223131004435,-0.17197886656465222,7.866187213477126,8.140927139788571,30.987782728729567
1760957970.484709,1.4767153184154047,0.06290124174792919,0.9557574796340902,-0.16570910820454002,6.701830900824459,11.667678194072936,29.444062052810395
1760957970.49475,1.7676808461585005,0.03978344608342552,0.9543902771020055,-0.159649118991181,5.5778571696356805,14.985898422644185,27.88961477336288
1760957970.5047667,2.0050303473155022,0.016396353113696187,0.9517808519080048,-0.15455787654063466,4.494926712454855,17.923158918635668,26.388281954115637
1760957970.5146763,2.192661537126109,-0.005766003457837996,0.9476280022795686,-0.15117754419351115,3.448815726423824,20.346104822549343,24.99286706326095
1760957970.524662,2.3367320013889703,-0.025382370768409903,0.9417275903733925,-0.1501330703493132,2.433338907270763,22.172653173286836,23.74476115918528
1760957970.534723,2.445149077471223,-0.04138856537713175,0.934037293676676,-0.15184337660033662,1.442876360224689,23.377046589276684,22.67435442265219
1760957970.5448396,2.526982921016187,-0.05302625630061526,0.9247388716406433,-0.1564582893484927,0.4743397970994354,23.987663155850502,21.80185714779799
1760957970.5547516,2.5918568836682327,-0.059854939115638786,0.9142855028349242,-0.16383049821893902,-0.4714422865979474,24.078487781946524,21.138175457463646
1760957970.5647914,2.6493670843731536,-0.06173117135274092,0.9034206368928621,-0.1735251586909297,-1.3888478264542843,23.75591353148439,20.685586809452808
1760957970.574887,2.708573794406474,-0.0587650354992571,0.8931570411621094,-0.1848636839703093,-2.267053222025812,23.14295311473974,20.438085917080357
1760957970.5847611,2.777589737534985,-0.051268439591010115,0.8847115426329525,-0.19699453948988183,-3.0902106021977933,22.362978186055535,20.381375671259644
1760957970.5947623,2.8632672815228557,-0.03971063312536931,0.8794016196015886,-0.2089820939815352,-3.838484697263307,21.524869964208396,20.492553410709483
1760957970.6046166,2.9709656892372296,-0.024690671121491484,0.8785211334173916,-0.21990322262386763,-4.490230672487359,20.7111246056036,20.73962210920515
1760957970.614675,3.104371162511156,-0.006924747097042718,0.8832185432338178,-0.22893937402186693,-5.025388112726517,19.970119329534317,21.08106490550747
1760957970.6247497,3.2653514407357216,0.012765533283099702,0.8943966245983296,-0.2354502270616536,-5.4298196656743904,19.3133899678669,21.46583272001918
1760957970.6346884,3.453848812808141,0.03348140537666751,0.9126384064792443,-0.23901664023655506,-5.699981938572526,18.718303399433776,21.834137388089506
1760957970.6446903,3.667839569609734,0.05430270184502197,0.9381491178321131,-0.2394464683362194,-5.847098580291896,18.135899148740855,22.119363647800675
1760957970.6548567,3.9034023339660373,0.07437100998788254,0.970699805149972,-0.23674447194087325,-5.899957644336001,17.50301636141332,22.25121115524672
1760957970.6647246,4.15493410991952,0.09298950682394422,1.0095665553112156,-0.23105363487834193,-5.905591998521737,16.757256419779356,22.15988908957486
1760957970.6745224,4.415530480593816,0.10972073219815925,1.053471875861108,-0.22257897816329206,-5.927433491186342,15.852951160465228,21.780877738324847
1760957970.6845555,4.677512039486443,0.1244597602642413,1.1005456695906588,-0.21150790720812918,-6.041024183471563,14.776130116379655,21.059537844508384
1760957970.694714,4.933042315363114,0.13746154831656243,1.14833243621398,-0.19794428300394085,-6.327893443314577,13.556474035435278,19.95477483950292
1760957970.7047925,5.1747512803426705,0.14930691534660928,1.1938768903818262,-0.18187550982752396,-6.868582917088528,12.274371515662391,18.44108669183337
1760957970.7145574,5.396261294223891,0.16080068303026682,1.233913885977448,-0.16318960072518188,-7.735889734716888,11.061480177936037,16.50862167153621
1760957970.7246377,5.592518229182568,0.17280822649340002,1.2651650325718449,-0.14174887005442285,-8.989198045065972,10.09371398922923,14.161286944477647
1760957970.7348492,5.759863957677047,0.1860523837782678,1.2847111877300152,-0.1175089045903972,-10.670380503231922,9.576406966521416,11.413389192312925
1760957970.744739,5.895840380881174,0.20090688907759124,1.2903827847471052,-0.0906526580516493,-12.801309586683248,9.722514575712012,8.285636350129753
1760957970.7548842,5.998773336212757,0.2172287920166367,1.2810991338518067,-0.061699327037145514,-15.382655668023595,10.725951044896583,4.801465544288987
1760957970.7646701,6.067230694762379,0.23426782831561224,1.2570934243464607,-0.031550660898364655,-18.393477114738157,12.733280308828409,0.9845272199539995
1760957970.7746453,6.099473474781354,0.25067806440567303,1.2199771422448262,-0.001451420279114637,-21.79118361811706,15.817718800621362,-3.142191155835335
1760957970.7849157,6.093019853988644,0.26464088173557415,1.172621696322848,0.027139093963090694,-25.511732341506026,19.959534309077842,-7.555527025616073
1760957970.7944996,6.0444215921187165,0.27409101664588315,1.1188635213524996,0.05274591375517669,-29.470238075885657,25.036281096577003,-12.229840841037118
1760957970.8047795,5.949314209698929,0.27701932008034713,1.063069084783321,0.07411035282129902,-33.5623418989397,30.824926065262858,-17.133668410560496
1760957970.8149676,5.802751603497093,0.2718078542589514,1.0096234173152627,0.09040561804876539,-37.66659738429689,37.016068929633214,-22.225777986722896
1760957970.8247185,5.599781869390166,0.25753923477831536,0.9624223385983085,0.1013850441722125,-41.64789977920131,43.23857196868658,-27.451078040705447
1760957970.8346393,5.336177280356429,0.23422093103114705,0.9244467950403239,0.1074234863024705,-45.3617867876687,49.09141759705989,-32.73687146470263
1760957970.844729,5.009208154652991,0.20288064650411905,0.8974775511217563,0.10943621638368976,-48.659388891746964,54.17882012348951,-37.990076852081344
1760957970.8547392,4.618347895175771,0.1655136490621055,0.8819797656511724,0.10868945169584811,-51.39287651822801,58.14464238235203,-43.09618172852163
1760957970.8646986,4.165807002515908,0.12488514823749194,0.8771612053589707,0.1065435877621618,-53.42132924313152,60.70282300174798,-47.920742767579945
1760957970.874681,3.656810899304284,0.08420669645367003,0.8811885086648247,0.10418758530135384,-54.61696502136086,61.661404869409544,-52.314096645994056
1760957970.8845992,3.09955961790809,0.04672068030477161,0.8915285771019381,0.1024271668670029,-54.87166119416868,60.93851573197803,-56.11956854282732
1760957970.8945777,2.5048399537135664,0.015246141937239943,0.9053631174831289,0.10157817698622587,-54.10374583236155,58.56917869639682,-59.18492368396021
1760957970.9046035,1.8853035680696286,-0.008242252944709436,0.9200082283401868,0.10148980252389912,-52.265082211660946,54.702240967695836,-61.3761928450471
1760957970.914606,1.2544730566120605,-0.02292428986820968,0.9332674417230004,0.10168689891550008,-49.348348017946705,49.587198269882435,-62.59242524765573
1760957970.9246526,0.6255830158878558,-0.0292703302592592,0.9436603338777367,0.10158822819483351,-45.39402801196114,43.551406889532984,-62.77951839642075
1760957970.9346232,0.010395084739233767,-0.02897312953750217,0.9504957158315243,0.10073825424621996,-40.49608308471012,36.96915865915504,-61.941158056572874
1760957970.944722,-0.5818617144837923,-0.024684435877151738,0.9537913797380622,0.098989012985212,-34.80477417006097,30.225256529292142,-60.14509010409105
1760957970.9545515,-1.145283660082033,-0.019601236817733812,0.954075362271837,0.0965851611368819,-28.524982198710603,23.676852951406147,-57.523379418225886
1760957970.964606,-1.677707120328513,-0.01697293810636107,0.9521300287186516,0.09413423641264351,-21.908743062548012,17.618120883445545,-54.26594127340487
1760957970.9747634,-2.1806832659689848,-0.019614227765369377,0.9487506883366934,0.09247586942725061,-15.24159372516713,12.252536022109066,-50.60744818323414
1760957970.9847069,-2.6590122346711045,-0.029505540360898738,0.9445780968178759,0.09248856473261427,-8.8235215337722,7.676944797270377,-46.8086845363427
1760957970.994575,-3.1199035484324718,-0.04754380878520602,0.9400325692782573,0.09488495612461097,-2.9465146592482494,3.8801453653763502,-43.1343967836249
1760957971.004733,-3.57189105844336,-0.07347511501754961,0.9353398194087498,0.10004515516856835,2.128464246171646,0.7566020087785487,-39.830400594268255
1760957971.0145588,-4.023671271491011,-0.10600480002005644,0.930610449955035,0.10792555399921842,6.192111596680416,-1.8665353313429647,-37.10290624643562
1760957971.024456,-4.483041155726913,-0.14304811813794965,0.925926768624538,0.11806112904356375,9.102561086424112,-4.193301662262736,-35.10265555951457
1760957971.0345848,-4.95608398939444,-0.18206436500609097,0.9214028212011066,0.12965666671257484,10.794708132547292,-6.419638174341471,-33.915681078058164
1760957971.0447102,-5.4466991221885035,-0.22041272033504447,0.9172053847082042,0.14174069723106547,11.282399807001347,-8.697610593147708,-33.561510792042895
1760957971.0545251,-5.956506656980363,-0.2556743095239471,0.9135404869562711,0.1533409354901822,10.653643733963825,-11.109139771301326,-33.998606398732065
1760957971.064618,-6.485092707494546,-0.2858968916899374,0.9106152002496176,0.163636752420271,9.059740292485957,-13.65341280993795,-35.135839919395764
1760957971.0747545,-7.030506547204777,-0.30973609761097204,0.9085830370028904,0.1720536085410684,6.699918246245479,-16.24951019438601,-36.84797508329248
1760957971.0846455,-7.589888499980772,-0.3264910076673333,0.9074814405633347,0.17828276019265898,3.803559190757377,-18.75301142665135,-38.99256303941976
1760957971.0945191,-8.160102457826143,-0.3360558571211318,0.9071734114887775,0.18223145133863,0.6122594235487326,-20.98306334629897,-41.42554004960936
1760957971.1045234,-8.738266743876446,-0.33882335229447497,0.9073083651188198,0.18392846916562325,-2.636298645061668,-22.75499588339871,-44.01319502872235
1760957971.1146472,-9.322112160721014,-0.33557353737658363,0.9073168638631413,0.1834211127419354,-5.721336599132822,-23.913117678293133,-46.638987076414246
1760957971.12447,-9.91013435362608,-0.3273686098894118,0.9064495474499962,0.1806987725068171,-8.448304578511467,-24.35868334896501,-49.20477237136703
1760957971.1347256,-10.501539434099946,-0.315455825706219,0.9038625294855384,0.17566779511318759,-10.65473296450383,-24.06898906578911,-51.627138057531816
1760957971.1447122,-11.096004130906534,-0.3011667924917767,0.8987405807641571,0.16818726222437072,-12.213267885013623,-23.104929153474686,-53.83051435812705
1760957971.1546257,-11.69328834236546,-0.28580099447751794,0.8904390634197955,0.15815919672111423,-13.032703690574767,-21.605987700157794,-55.73934365476603
1760957971.1646872,-12.292754721852075,-0.27049658332453824,0.8786202825303523,0.14565156946586397,-13.057738206300623,-19.773431855427116,-57.27171238413033
1760957971.1747303,-12.89286862235906,-0.25611303806249835,0.8633601849802138,0.1310208956890749,-12.26798130295337,-17.844268912042963,-58.336517929163314
1760957971.1849244,-13.490767459109362,-0.24316217995858203,0.845203654582558,0.11499612724419975,-10.676581361180546,-16.060056319464763,-58.83556485801194
1760957971.194744,-14.0819923777876,-0.2318147230595131,0.8251505343569175,0.09868971370244721,-8.328751199810478,-14.6355160341919,-58.671073187684684
1760957971.2047312,-14.660459546899814,-0.22198156845108435,0.8045644311946382,0.08351688630721191,-5.300415298338488,-13.73177191547115,-57.757988451406035
1760957971.2149382,-15.21871240030227,-0.21343914302799927,0.7850133255382785,0.07102792920674648,-1.697049950366496,-13.437900123540043,-56.03929250701613
1760957971.2249007,-15.748446953382366,-0.20595511736957867,0.7680682052795387,0.06268213630264664,2.3475455241800236,-13.762728201271441,-53.50147262266229
1760957971.2345119,-16.24125246062056,-0.19938045905390642,0.7550958193539283,0.05960763903515464,6.6733247856053595,-14.636955965807285,-50.18678506793542
1760957971.244513,-16.689471040552814,-0.193695358795682,0.7470816015501051,0.06239521463969915,11.09818499906942,-15.924122359741794,-46.199200304984
1760957971.2544646,-17.08705879425084,-0.18901499860543694,0.7445097606548529,0.0709675829015767,15.425585118246026,-17.43795468107079,-41.70189967149114
1760957971.2645612,-17.430327854620963,-0.1855690041522585,0.7473126021652311,0.08455064072470425,19.456207530573145,-18.963311642410282,-36.9056446470113
1760957971.2746196,-17.71846132003182,-0.18366687736119044,0.7548854956765116,0.10175320648037181,23.003010137954906,-20.278223698442197,-32.048942708971175
1760957971.284605,-17.953718347507703,-0.18365482750979675,0.7661529762369457,0.12074179020563687,25.90774796519197,-21.17520572230321,-27.372414544658973
1760957971.2948563,-18.141281758898216,-0.18586175027281554,0.7796694263480868,0.13947973110690393,28.056324899375518,-21.48068161884681,-23.090888207258487
1760957971.3046386,-18.28874127291454,-0.19052907418831339,0.7937455950727214,0.1559882911261039,29.390410718140537,-21.07167083858001,-19.367269693779235
1760957971.314691,-18.405247984351085,-0.1977257555777426,0.8066043947563024,0.1685857546225895,29.913540324045357,-19.88875014962969,-16.292007996176125
1760957971.3245897,-18.500418538608827,-0.20726538350405932,0.8165747114375874,0.17607177232393206,29.691038322270124,-17.943957619766348,-13.871068689969484
1760957971.334602,-18.58310985324601,-0.2186567924412648,0.822322052236509,0.17784055954489775,28.844122266460676,-15.32216682390286,-12.024063407807446
1760957971.3447053,-18.660221808490242,-0.23111920008523928,0.8230936262106279,0.173917082516323,27.53918142221778,-12.17482785994029,-10.592867088669738
1760957971.3547473,-18.73570525450748,-0.24367601319222001,0.8189367334382911,0.16491562626452214,25.97354105044634,-8.705859381069825,-9.359859119828835
1760957971.3646789,-18.80994432049417,-0.25531868223066995,0.8108439278676979,0.15192827960883443,24.359100858037674,-5.150692506034157,-8.073902949759077
1760957971.374616,-18.879637371410787,-0.2652110222341812,0.8007855825890544,0.1363614221193819,22.905123240169342,-1.750747403325639,-6.481346314744421
1760957971.3846712,-18.93822157614158,-0.2728872423941761,0.7916032371811246,0.11974442688747643,21.8012418555552,1.2733522990666815,-4.358697859815624
1760957971.3946989,-18.976788578140454,-0.27838957924285274,0.7867521921821344,0.10353591850251523,21.2016317566156,3.746052856696549,-1.5432646315233869
1760957971.404701,-18.985349875143324,-0.28230126362843727,0.7899008980673526,0.08895291375493956,21.211313001492332,5.55507802603035,2.0419929656793525
1760957971.4145873,-18.95425272211834,-0.2856556402485272,0.8044187104306139,0.07684694487074581,21.875666520324874,6.660869753545169,6.372725060395046
1760957971.424572,-18.875530515125874,-0.2897329092859105,0.8328101137571912,0.0676458104782178,23.174252453933974,7.095875117348234,11.319029192409364
1760957971.4344957,-18.7439941619213,-0.2957831633543519,0.8761775980071106,0.061369232586059974,25.019824899060442,6.953836110317585,16.65401373113318
1760957971.4445868,-18.55792341605223,-0.30473202873713334,0.933810018989726,0.057713450208251416,27.263053382301397,6.37073096031145,22.07469404092815
1760957971.454605,-18.31928487274781,-0.3169284114972064,1.002990541140622,0.05618595967075156,29.70299689190309,5.500195899474342,27.233271340054277
1760957971.4646645,-18.033470840712784,-0.3319804971532105,1.0790930526477802,0.05625928996136651,32.10294032154385,4.486982435396556,31.775489534636588
1760957971.4746022,-17.708610196442102,-0.34870167683041653,1.1559907577765507,0.05750458330603489,34.2108561908857,3.4423003336337756,35.38175849356163
1760957971.4847925,-17.354546734479047,-0.36516599419876333,1.226745057998227,0.05966474361244425,35.78346850242298,2.424876431255217,37.80619136961678
1760957971.4947217,-16.981616291051534,-0.37886479089668046,1.2844867056839409,0.06263539744519427,36.612545182455165,1.4312680646571665,38.90873528537147
1760957971.5053136,-16.5993826207158,-0.3869606354497125,1.3233532577989755,0.06634273971086731,36.55147388372619,0.398239198984943,38.676215063794814
1760957971.5146706,-16.21550771801025,-0.3866371258621976,1.339320969493352,0.0705425828865515,35.539319845019065,-0.7815295873234545,37.229264240734146
1760957971.524616,-15.834924372874235,-0.3755297911318202,1.3307810668272129,0.07460833427841712,33.61859874111399,-2.2317518266887406,34.81362451103029
1760957971.534643,-15.459439260493065,-0.3521906878686037,1.2987611476731504,0.07740674894418904,30.94238754336855,-4.0576469228163425,31.77604936663208
1760957971.5447786,-15.087824382862937,-0.3164983882135835,1.2467648048434632,0.07735297039152848,27.7667357942873,-6.3117229651540265,28.52698127977355
1760957971.5546606,-14.716364869189386,-0.26989992190424805,1.1802741785659328,0.07267947237872273,24.42606010410196,-8.969261648479993,25.494096181746457
1760957971.5646522,-14.339744001529445,-0.21538708166915,1.1060150188094786,0.0618658512740622,21.292324163309715,-11.92071272819408,23.072368797995967
1760957971.574671,-13.952089087831004,-0.15717242239942358,1.031112311758299,0.04409967068074728,18.722766605462976,-14.983721824790457,21.577132533787523
1760957971.5846708,-13.547995684630523,-0.10011736343798594,0.9622640747484461,0.01961222802328614,17.004644144509598,-17.931982672425733,21.206471569257072
1760957971.5947008,-13.12339336125141,-0.04903709529381292,0.9050378515349574,-0.010229392715188346,16.307594655120745,-20.533519703766085,22.018183006003696
1760957971.6047702,-12.676188270016656,-0.008034560139883587,0.863360094384287,-0.04311034174338593,16.653745645687813,-22.588872782361037,23.924606429699203
1760957971.614734,-12.206678822097267,0.0200063061337525,0.839234025744895,-0.07618314889569462,17.912353109757177,-23.96050739094121,26.706029598874377
1760957971.624683,-11.717766516607877,0.03369234840182014,0.8326934723284457,-0.10659486071999223,19.82044971712389,-24.588032113229577,30.040501772407534
1760957971.6348827,-11.214977158753038,0.03314362749991589,0.8419788992043207,-0.13199224739962118,22.025407198632774,-24.48808946942282,33.54534996654819
1760957971.6449602,-10.70628875076538,0.019801014786455812,0.8639037308786052,-0.15089332791817503,24.1410773654812,-23.74162359762822,36.82417897227886
1760957971.6546288,-10.201749132203126,-0.003915524695315957,0.8943600629547579,-0.16286120437516208,25.807121100974427,-22.47364117029872,39.512946590246656
1760957971.6649053,-9.712865242808903,-0.035015747595288894,0.9288924353072953,-0.16846927835735642,26.741357937740034,-20.831225960631727,41.31962475226788
1760957971.6747239,-9.25175773315777,-0.07033092265314513,0.9632540442396131,-0.16909015173412364,26.777079903910202,-18.964621482872413,42.05349821325074
1760957971.6871777,-8.830101558207168,-0.10682186545049407,0.993864052561151,-0.16656884957937165,25.880588656082292,-17.014220168819975,41.6418495974033
1760957971.6952157,-8.457914752792842,-0.1417705802718919,1.0181113576989602,-0.16285518990977274,24.147921179827527,-15.104037166750414,40.13332933559903
1760957971.7053325,-8.142305986406999,-0.1728615538905176,1.0344889150829384,-0.15967023517647275,21.78310905109454,-13.340371952923762,37.68859904756019
1760957971.7147748,-7.886333179633863,-0.19818812323422447,1.0425768857852789,-0.15826687617886145,19.062891897104148,-11.813275070041314,34.55987965552339
1760957971.724801,-7.688147231792406,-0.21623005882453025,1.042909835813201,-0.15931674282533095,16.294320905293468,-10.598251680148172,31.061868796054842
1760957971.7345436,-7.540587790016134,-0.22583993497639285,1.0367622602212485,-0.1629221159606738,13.772051751665957,-9.756222287942814,27.537138214964585
1760957971.744664,-7.431357577341297,-0.2262569861531898,1.0258810629336512,-0.16872311622048516,11.741401637745764,-9.33081815535549,24.31957882017971
1760957971.7546866,-7.343828775630288,-0.21714910066863274,1.012197130625522,-0.17605616988485412,10.371654376756423,-9.343242116941912,21.69968395186365
1760957971.7647524,-7.258437674967917,-0.19867068816927544,0.9975576473350656,-0.1841215158939144,9.742005569716273,-9.78588406804055,19.895363707948327
1760957971.7749295,-7.154520140003248,-0.17151513539254123,0.9835205155767787,-0.19212952129015562,9.84038562581157,-10.616478261188481,19.031471537260476
1760957971.784804,-7.012355399708515,-0.1369360478600979,0.9712353080120607,-0.19940928746868392,10.573577119387831,-11.754727651713512,19.130263820878024
1760957971.7949202,-6.815143357152031,-0.09671486589705147,0.961410787838998,-0.20547325784356396,11.785807655480033,-13.082960347053051,20.113691746904397
1760957971.8047647,-6.550653647960471,-0.053064339544387794,0.9543500055851202,-0.2100383429505488,13.282416636249142,-14.451615624500569,21.81693672730886
1760957971.81503,-6.212347829448057,-0.008473188266236904,0.9500260421698686,-0.2130096990402562,14.85516605948005,-15.689420137410552,24.011171197902932
1760957971.824609,-5.799869335984477,0.03448908925484071,0.9481732578101618,-0.21443820524292584,16.30612029128459,-16.61729022502387,26.432375870688777
1760957971.834738,-5.318893914887928,0.07338076694625185,0.9483758827992226,-0.2144654272292387,17.467608976026312,-17.064458526028602,28.81236453919484
1760957971.8448133,-4.780414983186059,0.10608284584474693,0.9501435055225901,-0.2132695528416462,18.216518196999818,-16.885080818167737,30.908071027960162
1760957971.85463,-4.199592091599822,0.1309586474462935,0.9529689311496591,-0.21102312293135705,18.481976152284606,-15.973548595960391,32.525645759000675
1760957971.8646832,-3.5943151799667272,0.14696431031218624,0.9563676155256797,-0.20786951724847963,18.246363079883633,-14.27684454458739,33.53689058068917
1760957971.8748293,-2.983638594450651,0.1537044830758476,0.9599002635416705,-0.20392078274317782,17.54039484156239,-11.80250821734349,33.8868203926457
1760957971.8847842,-2.386225831127368,0.15143386808075768,0.963181966135994,-0.19927481199862312,16.43368500246735,-8.621130606177935,33.59241074552062
1760957971.8947368,-1.8189268371570864,0.14100943245903913,0.965882559043282,-0.1940454566450798,15.022578001765616,-4.862776412675584,32.73364900541633
1760957971.9050999,-1.29558946304031,0.12380026104140922,0.967723587880704,-0.18839566454914378,13.417119319917148,-0.7073346282295611,31.43873786618509
1760957971.9147797,-0.8261862968398962,0.10156300481070582,0.9684771534783372,-0.18256228183305281,11.7288096113948,3.6305094867511016,29.865688741275832
1760957971.9248283,-0.41631544292737627,0.07629183962868258,0.9679707098601428,-0.17686253247604494,10.060364595390944,7.920269032745898,28.18263379193763
1760957971.9348373,-0.06710563084535698,0.05005360622135302,0.9660996568055861,-0.17167615567249933,8.49818596056336,11.936580393499769,26.54904097602192
1760957971.9446318,0.224479500254882,0.024821400061942788,0.9628468103902035,-0.16740286167099622,7.10774364555008,15.47964584496152,25.099692490900498
1760957971.954901,0.4649844220553961,0.0023224382153669795,0.9583049547346542,-0.16440132802948487,5.931657230617134,18.392759577986954,23.932835315046557
1760957971.9647503,0.6635393850279641,-0.016083317296454583,0.9526959758193778,-0.16292243756206232,4.990002347441848,20.57484999373423,23.103381869146574
1760957971.974712,0.8307906971772672,-0.02948057294754209,0.9463783397162039,-0.16305365698494417,4.282283528787455,21.986705488587607,22.621473497696677
1760957971.98466,0.9778128674538066,-0.0374265056193765,0.9398352227971795,-0.16469015706545237,3.7905851608141186,22.65053487963939,22.45616719993777
1760957971.9947221,1.1151207237118785,-0.039932538516623796,0.9336393314609664,-0.16754090608965702,3.48354729109775,22.64350658606265,22.543512486131643
1760957972.004593,1.251871553737953,-0.03741003833463456,0.9283964000701633,-0.17116894866401638,3.320888087010462,22.086650228289304,22.7978800532307
1760957972.0145793,1.3953131344100926,-0.030590672584554956,0.9246745901318445,-0.17505900736159846,3.258152693439697,21.130860749998224,23.125107236566254
1760957972.0246968,1.550501714337952,-0.02042936537980359,0.9229292035457969,-0.17870206781534062,3.2512748038521613,19.941766548458897,23.435858799183254
1760957972.034724,1.7202864306814822,-0.007995874552335384,0.9234320251538699,-0.18168348843427976,3.2605037468246856,18.685034152206253,23.65758567961321
1760957972.0446806,1.9055308041708243,0.005637370849710293,0.9262148858945028,-0.18375891510395098,3.253329303875597,17.513370387371776,23.743615345039803
1760957972.054629,2.1055163009954247,0.019499254926439356,0.9310390495838502,-0.1849029430746356,3.2062035546373435,16.556093257469385,23.67823589947547
1760957972.0648136,2.3184503413065825,0.032800397858663434,0.9374040854160984,-0.18531985790065386,3.1050492590527576,15.911729355616778,23.477127720878077
1760957972.074647,2.541988631000112,0.04497593807621174,0.9446076203711831,-0.18541291571764565,2.9446971424126245,15.643731576485148,23.183097317728464
