timestamp,linear_acceleration_x,linear_acceleration_y,linear_acceleration_z,angular_velocity_x,angular_velocity_y,angular_velocity_z
1760514520.5530674,-0.09608047638278001,0.9481000959369007,-0.2505370347730874,-0.31738442164862635,1.0037849250559885,0.2979476831441528
1760514520.5583446,-0.09763129873631714,0.9489602832988818,-0.2513260001413668,-0.30574508292001756,0.911066307181194,0.3063102711134157
1760514520.5679226,-0.09914839027676074,0.9498230318110391,-0.2520644336520025,-0.29438040542412747,0.8203723458777366,0.3164462605294435
1760514520.577845,-0.10059864040846683,0.950651103490582,-0.2527169039714126,-0.2831013823751963,0.7333398583228717,0.329951869201442
1760514520.5873928,-0.1019539843971363,0.9514041114354993,-0.253250180839649,-0.2718464727417385,0.6514621204813221,0.3480299700948782
1760514520.597517,-0.10319042373920544,0.9520416083011788,-0.2536351764293057,-0.2606970356741019,0.5760036006664889,0.371364265745132
1760514520.6075208,-0.1042860694494387,0.9525277065037889,-0.2538501050279511,-0.24983920084983982,0.5079102119003247,0.4000590194067289
1760514520.6175013,-0.10521962828485489,0.9528362546297037,-0.25388401261679194,-0.23949102177941756,0.4477242316153286,0.4336437434242772
1760514520.6273768,-0.10597029014457286,0.952955389803967,-0.25373939062946504,-0.22982254270298766,0.39551805643219823,0.47113469807147185
1760514520.6374645,-0.10651903748480551,0.9528904736982323,-0.25343280923103967,-0.2208920256594627,0.350864644710069,0.5111421556092821
1760514520.6475196,-0.10685070570226105,0.9526646908306575,-0.25299326213012097,-0.21260886533335663,0.31286236421556324,0.5520121373540553
1760514520.65752,-0.10695599169272318,0.9523168766748865,-0.25245863462395046,-0.20472260970789083,0.28022558485823307,0.5919905195943899
1760514520.667418,-0.10683284252026384,0.9518966388368811,-0.25187093690477746,-0.19683512992813254,0.25143974140187403,0.6293939686335446
1760514520.677474,-0.10648696695336478,0.9514576079669467,-0.25127082241196397,-0.18843742884131381,0.2249639316556758,0.6627674994210445
1760514520.6876986,-0.10593156858630119,0.9510503907642355,-0.2506919844161418,-0.17897394926224894,0.19945041434290306,0.6910069086161974
1760514520.6975315,-0.10518680126569861,0.9507169009267453,-0.25015652922862813,-0.16792824004928925,0.17394389959685558,0.7134293324377343
1760514520.7074516,-0.10427958122037853,0.950486936011335,-0.24967287558854884,-0.15491032595032692,0.14802790218060277,0.7297859754008538
1760514520.7174137,-0.10324399270517849,0.9503767466840628,-0.24923744960252395,-0.13972207845772455,0.12189937214764289,0.7402234484149963
1760514520.727449,-0.1021219086106567,0.9503888862260264,-0.24884032387489619,-0.12238745597326994,0.096368907351467,0.7452094057013626
1760514520.7373948,-0.10096315431141696,0.9505130073522269,-0.24847345370078724,-0.10315001485698103,0.07279338530005126,0.7454411256896922
1760514520.7474048,-0.0998246665338255,0.950727748562505,-0.24813890577803266,-0.08244830937682056,0.05294842126845834,0.7417518024558913
1760514520.7577744,-0.09876832696938448,0.9510038421759076,-0.24785405736807672,-0.06087804622225172,0.038845275936927506,0.7350212778332241
1760514520.7677438,-0.09785725616814259,0.9513082113988367,-0.2476515805526651,-0.03914378273196398,0.03249766056913349,0.7260910245296216
1760514520.7773898,-0.09715045657398245,0.9516084585661282,-0.24757390605923907,-0.017998343099869377,0.0356493516596347,0.7156824299045879
1760514520.7874844,-0.09669609157883509,0.9518769304370117,-0.24766391673195676,0.0018330331027501397,0.04947997164533012,0.7043238847108617
1760514520.7973926,-0.09652439780714266,0.9520935414220539,-0.24795493507550187,0.019744358261503486,0.07431271078364254,0.6923014534387728
1760514520.807449,-0.0966418114750058,0.952246834248199,-0.24846315556026252,0.03535003604223428,0.10935742304543654,0.679652724765056
1760514520.8175015,-0.09702788737193398,0.9523333092428412,-0.24918452495619042,0.048577590237947756,0.15253582908867502,0.6662185380365763
1760514520.82751,-0.09763598007715413,0.9523555798892293,-0.2500961848731864,0.05972210278696685,0.20044519685433002,0.6517529018465673
1760514520.8374608,-0.09839779569504291,0.952320136158977,-0.2511608330575967,0.06942897549796212,0.24851269294005177,0.6360731410957747
1760514520.8474724,-0.09923116382976625,0.9522353809031691,-0.2523315120206215,0.07858478291783826,0.2913694528764142,0.6192176736498327
1760514520.8575993,-0.10004984199547363,0.952110344270545,-0.25355471252744793,0.08812530422165281,0.32343347525922644,0.6015733893044933
1760514520.867394,-0.10077383733067487,0.9519542698628947,-0.2547711309921317,0.09880370101844281,0.3396411795050959,0.5839397789226614
1760514520.8774798,-0.10133867439283992,0.9517770580107163,-0.25591531557369324,0.11098450119936806,0.33622024950949037,0.567510421794006
1760514520.8874614,-0.10170230990655832,0.9515902163233345,-0.2569167519556546,0.12453035290148301,0.3113653860070276,0.5537703520193045
1760514520.8974066,-0.10184886002495315,0.9514076552419739,-0.2577047548743955,0.13882676699262483,0.2656767226880923,0.5443264391893647
1760514520.90738,-0.10178872915853224,0.9512456787998196,-0.2582177200109146,0.1529502576958046,0.20225295454722714,0.5407031737552666
1760514520.9174023,-0.10155507859076826,0.9511218772368479,-0.2584148031098161,0.16593898804607682,0.126390397781276,0.5441433489038427
1760514520.9273856,-0.10119704012371984,0.951053081034355,-0.2582863976416739,0.17708914630714734,0.04490884349409673,0.5554485746856697
1760514520.9373984,-0.10077068691574556,0.9510528633154928,-0.2578597914401733,0.1861891353355463,-0.03480988061211368,0.5748791834794246
1760514520.9475954,-0.10032917034622547,0.9511291695603826,-0.2571978838031202,0.19362043031006912,-0.10593107608140052,0.6021128241068957
1760514520.9573958,-0.09991334934962462,0.95128256540581,-0.25639094465258133,0.2002909477195855,-0.16324657825558184,0.636244752483026
1760514520.9674013,-0.09954395010816824,0.9515055046095539,-0.25554328877371313,0.2074125957141203,-0.20403494029339977,0.6758082494619223
1760514520.977386,-0.09921629266933495,0.9517829205346723,-0.25475794740123553,0.2161789869922004,-0.22853790686754574,0.7188025562066994
1760514520.9875708,-0.0988988890616745,0.9520941298790713,-0.2541226639326866,0.22743074837357283,-0.23994934773567836,0.7627320392592328
1760514520.9975963,-0.09853710973893451,0.9524155647069903,-0.25369977413590483,0.24140103148066716,-0.24389396781761324,0.8046739113453761
1760514521.007426,-0.09806213357592344,0.9527236113291901,-0.2535211458367904,0.25760574151491605,-0.24745679126113357,0.8413957230042871
1760514521.0174282,-0.09740389495395092,0.9529970481835468,-0.2535880539049291,0.2748921403942317,-0.2578989617197269,0.8695369624822873
1760514521.027391,-0.09650560566919957,0.9532189859548298,-0.25387515486702006,0.2916108670795287,-0.28125463185097477,0.885854511740249
1760514521.0375931,-0.0953371825712872,0.9533784028308288,-0.25433750549641937,0.3058520045247235,-0.32104126885101203,0.8875141983323491
1760514521.0474727,-0.09390535937786462,0.9534712126073005,-0.2549193978955494,0.31569026434374187,-0.3773210554322745,0.8723958575158651
1760514521.0573964,-0.09225886988170924,0.9535005592927915,-0.2555635029073046,0.3194065874013018,-0.44631202831811945,0.8393722121074785
1760514521.0674496,-0.09048753911373489,0.9534760208751571,-0.25621869855750096,0.3156771850926044,-0.5206606079093014,0.7885237984834
1760514521.077472,-0.08871459755037044,0.9534117265655819,-0.25684524926858104,0.30373310672745923,-0.5903665862018326,0.7212591050430422
1760514521.0874012,-0.08708249088011957,0.9533238743248078,-0.257416600977686,0.2834887188323592,-0.6442261043457244,0.6403158597849721
1760514521.0977097,-0.08573393124866853,0.9532284132893172,-0.2579177475373407,0.25562156799585106,-0.6715574108603592,0.5496255308293415
1760514521.1075308,-0.08479133465666296,0.9531394223131415,-0.25834083368904875,0.2215722229663488,-0.663919620904562,0.45403280215169767
1760514521.117395,-0.08433848626507992,0.953068119117482,-0.25867940896440517,0.18343391571139317,-0.6165362189324204,0.3588791225500204
1760514521.127441,-0.08440805956156228,0.953022048456385,-0.2589233581993768,0.14372348842079138,-0.5291901904193003,0.2694845288366616
1760514521.1375124,-0.08497751795079837,0.9530041620495824,-0.2590565903832803,0.10506125063851351,-0.40645378482503064,0.19058957122177583
1760514521.1473904,-0.08597410357832565,0.9530119370297174,-0.25905877125275184,0.06982209796897347,-0.2572341901824066,0.12583963482437147
1760514521.157391,-0.08728750340245148,0.9530369600496486,-0.25891088853936034,0.039835835806845396,-0.09373313077658954,0.07739720190015038
1760514521.167406,-0.088787029393985,0.9530654549340831,-0.2586028482704463,0.01620151776630453,0.0699917735923811,0.04574865355708184
1760514521.177457,-0.09033933002903952,0.9530801281837101,-0.2581404238846997,-0.000755920301197766,0.21963015239866912,0.029734891793343893
1760514521.187417,-0.09182301814251786,0.9530634131763948,-0.2575492100198712,-0.011400860812142621,0.3421528810355215,0.026790994933893864
1760514521.197669,-0.09313796091436297,0.9530017110034351,-0.25687448207946273,-0.016618007012646117,0.4270810830593967,0.03334268437148196
1760514521.2075891,-0.0942087553701692,0.9528897057301532,-0.25617717078384605,-0.017611184269885238,0.4673583667008247,0.04528607837071771
1760514521.2174952,-0.09498347203962827,0.9527334698716106,-0.2555268697138483,-0.015710417863053317,0.45977179620181874,0.058475940964056373
1760514521.2274458,-0.09542969983939702,0.9525510709824767,-0.25499295468589295,-0.012207170175940084,0.4049428931547973,0.06916386246459111
1760514521.2373993,-0.09553018327101052,0.952369931249728,-0.25463498283360053,-0.008220797043686341,0.30697027546455086,0.07435208810475165
1760514521.2473743,-0.09527999788121778,0.9522212547684152,-0.2544937814045983,-0.0045946086126004045,0.1728403858600902,0.07204873568913886
1760514521.2574105,-0.09468639440699475,0.9521330018153781,-0.25458479999949224,-0.001827220727194212,0.011728441572777512,0.06141852564583693
1760514521.267393,-0.09377136503249069,0.952123520062741,-0.2548950821792413,-5.6200746409550064e-05,-0.1657092809183833,0.04282181372935381
1760514521.2774553,-0.09257595350712644,0.9521976571067805,-0.25538456521812425,0.0008850779418002639,-0.34799113375851565,0.017731722844564164
1760514521.2874315,-0.0911646090480525,0.9523461666270282,-0.25599155601240026,0.001328479879521289,-0.5234017743892914,-0.011477845418765497
1760514521.2977805,-0.08962760982492483,0.9525480803332274,-0.256641486677797,0.0015689444754176983,-0.680551155323113,-0.041867954004963716
1760514521.3075006,-0.08807977297947966,0.9527749728823105,-0.2572576259229583,0.0016509307977122176,-0.8089554048752742,-0.07036745236302923
1760514521.3173969,-0.08665422961754708,0.9529958247182873,-0.25777223717402253,0.0012157066008886737,-0.8996849563785383,-0.09425174155644621
1760514521.3274982,-0.08549092483772423,0.9531813348649909,-0.2581365370895773,-0.0005264124314131855,-0.9460809455303811,-0.11159780259137898
1760514521.3373914,-0.08472075596211064,0.9533069328928259,-0.25832769246404474,-0.004674426601899094,-0.944475441360326,-0.12164112939055968
1760514521.3473883,-0.08444771296850005,0.9533543312409619,-0.258351257490783,-0.012396235670600013,-0.8947913508646563,-0.12497165731516391
1760514521.3574326,-0.08473248583014076,0.9533120236258911,-0.2582382333161158,-0.024643754869535107,-0.8008700486787086,-0.12353002694365255
1760514521.3674219,-0.08558118862912918,0.9531753678732091,-0.25803732011802644,-0.04191075726812351,-0.6703926945457233,-0.12039670453438273
1760514521.3774564,-0.08694190561449959,0.9529467522020528,-0.2578043462971198,-0.06410091527393734,-0.5143233219668568,-0.11939798699957338
1760514521.387434,-0.08870995189768145,0.9526360232994268,-0.25759151243755246,-0.09053280109609288,-0.34589481016277757,-0.12457864273144285
1760514521.3974655,-0.09074072106576762,0.9522609906573821,-0.25743871822873765,-0.12006331879936281,-0.17925986288319806,-0.13960776492026905
1760514521.407452,-0.09286747438572,0.9518475068559353,-0.25736828723965116,-0.15127783137775852,-0.0280069275249878,-0.1671934699341692
1760514521.4174495,-0.09492079742595239,0.9514285095603298,-0.25738340271177756,-0.18268639634814987,0.0962329703297834,-0.20858608720512903
1760514521.427734,-0.09674672646427192,0.9510415981058618,-0.25746977446011987,-0.21288173293587764,0.1848955531436068,-0.26324813969401195
1760514521.4379482,-0.09822149141033973,0.9507251369102695,-0.25759963182455564,-0.24064342532005023,0.23318837762758537,-0.3287577377946032
1760514521.4473832,-0.0992619532318679,0.950513370090407,-0.25773713282225263,-0.26499809098071914,0.24035206225185304,-0.40098463337276125
1760514521.4573991,-0.09983156611576728,0.9504314619047112,-0.25784449131612536,-0.285256781958251,0.20950277639058545,-0.47453553029663526
1760514521.467405,-0.09994183511520564,0.9504915961252582,-0.2578882605353046,-0.30104728117713303,0.14711919402056317,-0.5434155325985905
1760514521.4774091,-0.09964907678982375,0.9506910851425849,-0.25784508454471966,-0.3123451646593656,0.062250473469158206,-0.6018089826654546
1760514521.48739,-0.09904636202358248,0.9510128468207222,-0.2577058752096106,-0.3194926321474202,-0.034478296935702195,-0.6448584479366631
1760514521.49738,-0.09825108673360258,0.9514279021007684,-0.257477204929934,-0.3231871247331281,-0.13198611261761875,-0.6693222563425675
1760514521.5073862,-0.09738949542006951,0.9518990594892686,-0.2571792252570255,-0.3244261459098242,-0.2198938770640963,-0.6740160388506073
1760514521.5174115,-0.09658032757677387,0.9523848132363597,-0.2568405622105633,-0.3244072019563591,-0.2896118589913525,-0.6599822613407247
1760514521.527389,-0.09592027448792981,0.9528427500581323,-0.25649172068609716,-0.3243956210801763,-0.33522720351790486,-0.6303729386573622
1760514521.5373726,-0.09547382975467293,0.9532324281313606,-0.25615893062370876,-0.32558203543753955,-0.3540572136202018,-0.5900675164903726
1760514521.5473938,-0.09526920039361918,0.9535183841397642,-0.2558599822910995,-0.32895268075738004,-0.3467659840160272,-0.5450775283000213
1760514521.557375,-0.09530044705205551,0.9536739783165521,-0.2556027304433682,-0.33519092411934465,-0.31701586000005044,-0.5018121233193705
1760514521.567399,-0.09553455016537962,0.9536859550043336,-0.2553860692032392,-0.3446215729481902,-0.27072008779658424,-0.46629459066828305
1760514521.5773895,-0.0959211853145082,0.9535584457863734,-0.25520268212284236,-0.3572033472613014,-0.2150427213889197,-0.4434289936160674
1760514521.5873923,-0.096402842123313,0.9533145767171562,-0.25504274476426103,-0.37256976510968365,-0.15732959387001025,-0.4364150130518524
1760514521.597646,-0.09692349481793107,0.952994307063932,-0.2548976633524324,-0.39011342360225215,-0.10414509516525487,-0.44639361804373323
1760514521.6074882,-0.0974350179373267,0.9526483251421248,-0.2547627756816838,-0.4091010149697406,-0.06054523590495034,-0.4723739964771918
1760514521.6175218,-0.09790134776322158,0.9523290884917944,-0.25463806870956485,-0.4287955245254248,-0.029655898403858117,-0.5114470871681522
1760514521.627379,-0.09830059057685986,0.9520809772187228,-0.25452661768062573,-0.44855270823233684,-0.012564122211695714,-0.5592428324391776
1760514521.6374695,-0.09862509618747552,0.9519319708473315,-0.254431295854415,-0.467860133229381,-0.008483267977561316,-0.6105487009514705
1760514521.6473937,-0.09887954083258914,0.9518891968994597,-0.25435085191440254,-0.48630356099099226,-0.01512485002147216,-0.6599852845925452
1760514521.6573837,-0.09907748388598665,0.9519398570002239,-0.2542766228822288,-0.5034724952827077,-0.029196571564169195,-0.7026347129466902
1760514521.6674013,-0.09923729175344848,0.9520573584593904,-0.2541910930673454,-0.5188432732987229,-0.046941206599400535,-0.7345372324651203
1760514521.6773982,-0.0993783788894755,0.9522105601564702,-0.2540691733733912,-0.531693198501132,-0.06463383675066918,-0.7530038139807116
1760514521.6874022,-0.09951842417277454,0.9523728347888443,-0.2538823409206928,-0.5410956216350189,-0.0789705919425082,-0.7567295040503804
1760514521.697389,-0.0996718301290216,0.9525278132568841,-0.25360478759144306,-0.5460213003014386,-0.08731287878245851,-0.7457259153794362
1760514521.7075574,-0.09984939555697382,0.9526701883589337,-0.25321986678489705,-0.5455309049944446,-0.08779044759234135,-0.7211162930843857
1760514521.7175126,-0.10005902250214614,0.9528020858766727,-0.2527248477554662,-0.5390023235564684,-0.0793008804292166,-0.6848497675464318
1760514521.727397,-0.1003071769386233,0.9529271697022339,-0.2521325206171205,-0.5263154910195635,-0.061459923742188324,-0.6393922180733103
1760514521.7374125,-0.10060061029839372,0.9530450700341121,-0.2514692924897179,-0.5079302399250206,-0.03455292347247735,-0.5874416171396235
1760514521.7474017,-0.10094758067774162,0.953148008433468,-0.2507705220195099,-0.4848333962608293,0.00048251228891821703,-0.5316993363476127
1760514521.7573943,-0.10135780571437467,0.9532203886958331,-0.25007455941489215,-0.45837862021475223,0.04204047949995714,-0.47471006749181366
1760514521.7674325,-0.10184079280438699,0.9532412593189379,-0.24941712986331663,-0.43007447239612434,0.08782383616293804,-0.41876603885867214
1760514521.7774146,-0.10240278396121628,0.9531889978441519,-0.24882728097483242,-0.401383133248551,0.13486254205312323,-0.36585899022148005
1760514521.7874131,-0.10304303749595456,0.9530471255008163,-0.24832533492103445,-0.3735769578553371,0.1796265880276565,-0.31765731059776714
1760514521.7974315,-0.10375048021054369,0.9528098644168259,-0.24792261978108668,-0.3476711504071276,0.21826736904520871,-0.2754864658067641
1760514521.8074207,-0.10450183574506178,0.9524860970799595,-0.2476225155723008,-0.32441912769985715,0.24698025477221866,-0.24029784909511512
1760514521.817428,-0.10526203710780632,0.9521007613572824,-0.24742242363124486,-0.30433602022610884,0.26243533002173813,-0.21262209482868866
1760514521.8274066,-0.10598711484677684,0.9516932118634132,-0.24731633352175614,-0.28771577703913187,0.26219350452798096,-0.1925143411638797
1760514521.8374233,-0.1066290682937029,0.9513126191701676,-0.2472975456353154,-0.27462675297086087,0.24502213268400527,-0.1795083757345902
1760514521.8474493,-0.1071417392726324,0.9510110618550515,-0.24736088907782286,-0.2648954169073917,0.21104584367985676,-0.17260254924897217
1760514521.857429,-0.10748659940099699,0.9508354919069564,-0.24750367705377763,-0.2581029216695919,0.1617052995176025,-0.17030107963252386
1760514521.8676536,-0.10763760651055503,0.9508200767932216,-0.24772488082242,-0.2536183716515261,0.09953742326071087,-0.17072788931911015
1760514521.877413,-0.1075845374111673,0.950980406738146,-0.2480226397716457,-0.2506782484474031,0.027824474522231947,-0.17181607247097885
1760514521.8874266,-0.10733415494480866,0.9513106376937349,-0.24839104515763358,-0.24850115425206168,-0.04981986802751302,-0.1715573269624197
1760514521.897427,-0.10690849078618006,0.9517839845976216,-0.24881768119519573,-0.2464103726783171,-0.129852444703602,-0.16827736313395952
1760514521.9074094,-0.1063400773858797,0.9523563556970871,-0.2492832517436299,-0.24393165459624724,-0.20912202021351842,-0.16089065031027378
1760514521.9174287,-0.1056652247069677,0.9529724189770454,-0.24976370802720013,-0.24084199481603372,-0.28506077248550094,-0.1490846894740318
1760514521.9274096,-0.10491750926318785,0.9535730377261933,-0.25023406701571477,-0.23716141104066935,-0.3557262809050205,-0.13339196857816907
1760514521.9374287,-0.1041235575646801,0.9541028995373416,-0.25067228501352307,-0.23309479777626219,-0.41970877738464824,-0.11512576193738593
1760514521.9474099,-0.1033020428884689,0.9545172545010586,-0.25106162220620437,-0.22893925657144562,-0.4759481926232227,-0.09618043495366431
1760514521.9574027,-0.10246550641643955,0.9547868105231383,-0.2513907863828224,-0.2249755182172596,-0.5235222843113235,-0.07872351667906209
1760514521.96741,-0.10162386694479068,0.9549000701596205,-0.25165216562862286,-0.2213647751144413,-0.5614664747863448,-0.06483106213657838
1760514521.9774737,-0.10078833513587662,0.9548629737782626,-0.25183912602782627,-0.21807480820666278,-0.5886695564334322,-0.056134555437095335
1760514521.9875848,-0.09997467719210953,0.9546965260086143,-0.2519435972216258,-0.21485687261430617,-0.6038651684435153,-0.053551255684078106
1760514521.9974353,-0.09920520093418624,0.9544335347819747,-0.2519550994557412,-0.2112839908194958,-0.6057173870660993,-0.05715714234809454
1760514522.0074143,-0.0985092617405881,0.9541152431492756,-0.251861886319526,-0.2068453030650743,-0.5929852395350139,-0.06623342894725416
1760514522.0174382,-0.0979223359672427,0.9537877969666823,-0.2516539735994828,-0.2010760654982055,-0.5647426194371139,-0.07947913246321975
1760514522.027417,-0.09748381732411691,0.9534979795623201,-0.25132696841324287,-0.19369153528907082,-0.5206218014050971,-0.09534233409959912
1760514522.0374277,-0.09723375092327442,0.9532879176267087,-0.25088539659555875,-0.18468641274104322,-0.46104004221609585,-0.11239326372963111
1760514522.0474486,-0.09720868536794444,0.9531892250393128,-0.25034467913794894,-0.17436450550953295,-0.38736348694997913,-0.1296533335488736
1760514522.057542,-0.09743672871741518,0.9532177137876755,-0.2497315160130979,-0.16328109746585098,-0.3019646381476075,-0.14680810409387907
1760514522.0674334,-0.09793203741614429,0.9533700431682176,-0.2490827304700485,-0.15210938076355723,-0.20814192575165105,-0.16426176542516224
1760514522.0776045,-0.09868954026013758,0.9536234603323519,-0.24844257518157983,-0.14146851902733587,-0.10989495451468018,-0.1830248257930907
1760514522.0877173,-0.0996813952894888,0.9539391587758783,-0.24785842742009856,-0.13176193910931175,-0.01158423303471573,-0.20445740801468348
1760514522.097411,-0.10085686901931244,0.9542688773681907,-0.2473750444801903,-0.12306874743145932,0.08246270304722811,-0.2299155651468218
1760514522.107514,-0.10214658793415318,0.9545634263378,-0.24702814889180863,-0.11511537887349976,0.16832149052703194,-0.26036655777011686
1760514522.1174111,-0.10347063502263958,0.9547812057245983,-0.24683870606309896,-0.1073345414948783,0.2427495416522521,-0.2960478279401436
1760514522.1275353,-0.10474852359391432,0.9548947800785383,-0.246809355218241,-0.09899650092698034,0.3033348961515381,-0.33623945871407374
1760514522.137401,-0.10590845565489439,0.9548941719107507,-0.24692392580086797,-0.08937701530161613,0.348517361418673,-0.3792007874049199
1760514522.1474245,-0.10689372240536488,0.9547863972383289,-0.24715018044066012,-0.07791423885479634,0.37752266173799925,-0.42229239245845607
1760514522.157451,-0.10766535802240342,0.9545916313146395,-0.24744526724272678,-0.06431127497047885,0.3902739648504332,-0.46227021747209635
1760514522.1675735,-0.10820162765047099,0.9543372186569178,-0.2477628782106442,-0.04856134452108528,0.38734171294422287,-0.4957045180113741
1760514522.1774487,-0.10849595337074039,0.9540513255038294,-0.24806072723251307,-0.030898216965092564,0.3699594496843375,-0.5194493349955283
1760514522.1874232,-0.10855502025976962,0.9537579507781898,-0.24830685292856258,-0.011693989296529983,0.3400833888804866,-0.5310760504009859
1760514522.197447,-0.10839804499797075,0.953474212912593,-0.24848364880749818,0.008663639148816632,0.300431308303334,-0.5291923117386991
1760514522.2074192,-0.10805697231430209,0.9532098664203548,-0.24858928801703206,0.02987840717272281,0.2544230382241833,-0.5135941439667873
1760514522.2174168,-0.10757642849771307,0.9529683963728701,-0.24863685650087625,0.051802200970364094,0.2059657920030303,-0.4852370492013861
1760514522.2274182,-0.1070121530510792,0.9527488330259759,-0.24865167363521126,0.0744185668487773,0.15907376996760628,-0.4460503941223586
1760514522.2374363,-0.10642721715331172,0.952547527260866,-0.2486670657451338,0.09775371845129256,0.11736825349094092,-0.3986479093805383
1760514522.24745,-0.10588603627993858,0.9523595507971834,-0.2487187223754179,0.1217431966450608,0.08355619335177987,-0.34599909510305465
1760514522.2574236,-0.10544671559976751,0.9521799229610712,-0.24883809167597137,0.1461009105975792,0.05901497438439028,-0.29112074808189625
1760514522.26741,-0.1051528390740634,0.95200502838603,-0.24904596321732864,0.17023837147650286,0.043603916317117755,-0.2368293003820172
1760514522.2774792,-0.10502646629338866,0.9518342473570308,-0.24934788028024316,0.19326576501211928,0.035775808453690924,-0.18557136691735787
1760514522.287428,-0.10506433280135559,0.9516714315086505,-0.24973279103004983,0.21408071977719265,0.03298648055874207,-0.13932954319917407
1760514522.2974298,-0.10523859331837374,0.9515257954515718,-0.2501753861956236,0.23152536590931522,0.03232004390113285,-0.09958736285148517
1760514522.3074598,-0.1055021566863879,0.9514118900856104,-0.2506413456825539,0.2445748277994394,0.031187095483884795,-0.0673326724249295
1760514522.317464,-0.10579748362641911,0.9513483349380868,-0.25109375426992614,0.25251280193347175,0.027931064824498128,-0.04308158607393147
1760514522.3275995,-0.10606710296241678,0.9513550922404375,-0.25149866963413586,0.2550519057518739,0.022199434781384864,-0.026912286156091196
1760514522.3377516,-0.10626393658777045,0.9514495047303763,-0.25182847950537457,0.2523685773222001,0.014994881766160333,-0.018504773080201854
1760514522.347428,-0.10635955498003039,0.9516418881424207,-0.2520629821876395,0.24504485737907242,0.008400311497758828,-0.017186448813682607
1760514522.3574297,-0.10634870095967772,0.951931781131977,-0.2521892208462143,0.2339379687395032,0.0050482551372541175,-0.021983716008220223
1760514522.3682342,-0.10624899381459213,0.9523059043018828,-0.25220129052266604,0.22002297173066748,0.007456013783778211,-0.031677352695108976
1760514522.377455,-0.10609572574039182,0.9527385162382613,-0.25210064665629567,0.20426284753642587,0.01736247792590319,-0.04485621163470945
1760514522.3874452,-0.10593286673633054,0.9531942105168489,-0.2518965138618792,0.18754808124865427,0.035187468447828316,-0.05996340822575466
1760514522.3974316,-0.10580241201228593,0.9536325082343243,-0.2516055481721412,0.17071662664421244,0.05970487874950463,-0.07533482627750254
1760514522.4074187,-0.1057347216960505,0.9540132526783028,-0.2512502505547762,0.15462712662879202,0.08798767125367594,-0.08924029932486727
1760514522.4174442,-0.10574233538857387,0.9543018919457703,-0.2508564219149751,0.14023118167529894,0.11564862549748971,-0.0999467418314169
1760514522.4274387,-0.1058188073147985,0.9544739448941858,-0.250450490983693,0.1285877909140825,0.13736375183877134,-0.10582261008199892
1760514522.4376266,-0.10594256538461246,0.9545180263077072,-0.2500574337434741,0.12078572294893959,0.147623466101011,-0.10549170558037674
1760514522.4474404,-0.10608420722163159,0.9544368342651717,-0.24969950522515483,0.11777682583603058,0.1416122161699994,-0.09802439456732866
1760514522.4574342,-0.10621468327673508,0.9542457403639707,-0.24939570363613295,0.12016071841114791,0.11607955301344094,-0.08313232571095601
1760514522.4674573,-0.10631182415380339,0.9539691715610603,-0.249161924945186,0.1279862851906399,0.07004809339569412,-0.061316792436984284
1760514522.4775305,-0.10636352563290426,0.9536356401481352,-0.24901171304048283,0.14063836260163368,0.005216439622163225,-0.033918288014442834
1760514522.4875379,-0.10636721222585911,0.9532727596483224,-0.2489571473446619,0.15685563448167122,-0.07404096695520646,-0.003028945481840677
1760514522.4975538,-0.10632652594457305,0.9529036267347838,-0.2490091619639625,0.1748860965418646,-0.1611071347276108,0.028741982625843022
1760514522.5075364,-0.10624715876439514,0.9525454530290003,-0.24917684292776907,0.1927466818189064,-0.24793956826483793,0.058624469808794995
1760514522.5174387,-0.10613397831618862,0.952210457730323,-0.249465762300295,0.2085289605910746,-0.32614724441121246,0.0841095435587346
1760514522.5275388,-0.10599079560016042,0.9519081346464033,-0.24987575065543008,0.2206877415473019,-0.3881531341527882,0.10336137570401004
1760514522.5374184,-0.1058225221207611,0.9516474320502167,-0.2503986160456735,0.22825893414843187,-0.4282551263393812,0.1155417084798112
1760514522.5474176,-0.10563796015107912,0.9514374276573225,-0.2510163570991817,0.23096996620359558,-0.44342373332921425,0.12098152128419064
1760514522.5574555,-0.10545105263089112,0.9512858888436916,-0.2517004574183657,0.2292263910618113,-0.43372615529880265,0.12116024359504525
1760514522.567424,-0.10527936935206583,0.9511963541650297,-0.252412821787818,0.2239809604009225,-0.40232630551938336,0.11848662232565983
1760514522.5774364,-0.10514026379486403,0.9511652690119015,-0.2531087248658274,0.21651441803450897,-0.35506711773449484,0.1159120505618069
1760514522.5874312,-0.10504641316993074,0.9511806628146044,-0.2537416885342755,0.20817574134980008,-0.29969077432357444,0.11643995050718242
1760514522.5975633,-0.1050026043621753,0.9512230410238854,-0.25426951389834307,0.20013778321010042,-0.2447955421738235,0.12261641751122632
1760514522.6074224,-0.10500468159943657,0.9512682507685382,-0.2546601125073614,0.19321958604463121,-0.19866521427901981,0.13609192490064909
1760514522.6174576,-0.10504028307772617,0.9512915418383431,-0.2548957593609802,0.18781045682941355,-0.1681340421654111,0.15732946975604137
1760514522.6276996,-0.10509031985654424,0.9512719274466627,-0.2549750173953303,0.1839058738944982,-0.15765650306271603,0.18550468478046545
1760514522.6374753,-0.1051304704905376,0.9511960663518811,-0.25491246394668104,0.18123518384857978,-0.16872808490363553,0.21860674955591317
1760514522.6474617,-0.1051327877087389,0.9510610379550509,-0.25473691380797997,0.17943426089034709,-0.1997502243012088,0.25371527329058063
1760514522.6574435,-0.10506804779977735,0.9508754901179871,-0.2544887642324776,0.1782045268095402,-0.24635969970963553,0.2874040624444242
1760514522.6674774,-0.10490930921057516,0.9506588235597545,-0.2542165737265958,0.17740930797578272,-0.30216481246332166,0.31620939371135937
1760514522.6775706,-0.10463643913964753,0.9504384783528724,-0.25397258530070654,0.17708499253454443,-0.3597618576009349,0.33709722464289066
1760514522.6876378,-0.10424068265225299,0.9502458970859128,-0.25380704610625654,0.17737623942489025,-0.4118583414038972,0.347869243771607
1760514522.6976047,-0.10372819646434808,0.9501120176664389,-0.25376174605219737,0.17842950579341105,-0.4523133423048307,0.3474594335578596
1760514522.7075787,-0.10312177601028744,0.9500629887533949,-0.2538637176452173,0.18028911343644305,-0.4769233876932068,0.3360877649073616
1760514522.717491,-0.10246032028086244,0.9501163847384165,-0.25412022573308707,0.1828329087759526,-0.4838314237324978,0.31525374092118097
1760514522.7277417,-0.10179578257548257,0.9502779716980934,-0.25451610890239285,0.18576518450321164,-0.47351021332890203,0.2875696020889872
1760514522.7375495,-0.10118771723882308,0.9505393281893937,-0.25501432567774784,0.18866213384420033,-0.44835732984877347,0.2564506274695561
1760514522.747527,-0.10069613080831921,0.9508771016333903,-0.2555601550447391,0.19104831393216337,-0.41201597958807995,0.22569614814712619
1760514522.7574651,-0.10037387209549851,0.9512547661323482,-0.2560888260744055,0.19247618218224,-0.3685821712282361,0.19900858599478147
1760514522.767505,-0.10025993186832742,0.9516271586831588,-0.2565355080512744,0.1925858209497487,-0.321864113480913,0.17950968803989817
1760514522.7774448,-0.10037470926664098,0.9519471615344663,-0.25684587329238934,0.19113619172028407,-0.2748288757788125,0.16932155416346897
1760514522.7876198,-0.10071771397312267,0.9521732128467513,-0.25698511423996123,0.18801585685741984,-0.22931608575809678,0.16927963589817022
1760514522.7975109,-0.1012676145307901,0.9522761425879611,-0.25694346565652854,0.18325079738391764,-0.18603267988860975,0.178831030824657
1760514522.807459,-0.10198423671274123,0.9522440931892321,-0.2567370338528997,0.17702442138383215,-0.14478240587434205,0.1961442402634566
1760514522.8174572,-0.10281204403352759,0.9520847377627527,-0.2564039889782606,0.16971206613538453,-0.1048429451392715,0.21842005057087335
1760514522.8274379,-0.1036846796627996,0.9518244378474016,-0.2559973825135445,0.16191551323954512,-0.06538794747873292,0.24235413039770368
1760514522.8374674,-0.10453031012047798,0.9515044116637299,-0.2555763853380483,0.15446958771763955,-0.025858120690580272,0.2646700677718482
1760514522.8475604,-0.105277803690779,0.9511745155705116,-0.25519761704481997,0.14839039296564144,0.013791427057730734,0.28262703146767604
1760514522.8574631,-0.10586394809526758,0.9508857726639881,-0.25490788513686014,0.14474867134089162,0.05300680616489729,0.2944146037885826
1760514522.867462,-0.10624148331495717,0.9506830286382525,-0.2547392200546153,0.14448069183160286,0.0907139512848207,0.2993761581058042
1760514522.877623,-0.10638664997168068,0.9505989143303532,-0.254706499570066,0.14818128653799398,0.1255224440263779,0.2980411122062323
1760514522.8874621,-0.10630404404606744,0.9506498253609467,-0.2548073593947869,0.15594126036626274,0.15599116518665107,0.2919819541170832
1760514522.897466,-0.10602675334014353,0.950834209102473,-0.2550238220103752,0.16728179350613961,0.18088794549059442,0.28353491488980365
1760514522.9074628,-0.10561106472575783,0.9511331428752434,-0.2553252592487947,0.1812047705681094,0.19939043489141153,0.2754327823024656
1760514522.917471,-0.10512672541175858,0.9515128585434678,-0.2556726572698583,0.19633761652132328,0.21119827728984417,0.27039964037658565
1760514522.9276013,-0.1046449989707632,0.9519285630888603,-0.2560242077172076,0.2111244458243321,0.216546340567589,0.27075612807022115
1760514522.9374642,-0.10422706375299076,0.9523288712223007,-0.25634178060334784,0.2240139922856705,0.21612212461309813,0.27808344487750025
1760514522.9474714,-0.10391472173171708,0.9526605026644862,-0.25659712422341663,0.233616479633664,0.21090048579058862,0.29299327409670445
1760514522.9574635,-0.10372460913544372,0.9528733784592667,-0.2567762486880908,0.2388301230819741,0.20191954011764002,0.3150428632006258
1760514522.9674678,-0.1036467039182308,0.9529264995863956,-0.2568807335038096,0.2389523675111843,0.19003522770606404,0.3428138976833362
1760514522.9774606,-0.10364769946745933,0.952794693829332,-0.2569255720916737,0.23378053366259088,0.17570683549698493,0.3741414242374256
1760514522.9874573,-0.10367919300035056,0.952475398997175,-0.25693425540186887,0.2236801944149409,0.15887480185341285,0.4064441648278236
1760514522.9974513,-0.10368948297287596,0.9519935251917635,-0.2569326109168866,0.20958008219516971,0.13898540984880153,0.4370835379978779
1760514523.0075285,-0.10363648019306947,0.9514019967107434,-0.2569430376182226,0.19285863950997106,0.11518823623948445,0.46367563918555066
1760514523.0174615,-0.10349845594992008,0.9507764879182687,-0.2569802333714749,0.17512035689321706,0.08668421107252158,0.48429924137806046
1760514523.027459,-0.10327965145587042,0.9502047882819881,-0.25704880267938646,0.15790319105312586,0.05314697267302472,0.4975762533831932
1760514523.037449,-0.10300923715927864,0.949772995884892,-0.2571427375672543,0.1423899939851797,0.015097296107933835,0.5026386675287903
1760514523.0474539,-0.10273414764355096,0.9495514740936599,-0.25724672646751906,0.12920244494427643,-0.025898362447425036,0.49902735074043536
1760514523.0574536,-0.10250804961025564,0.9495832589897995,-0.25733926388637485,0.11833325794731091,-0.06729598269639255,0.4865836165012197
1760514523.067482,-0.10237950561617484,0.9498768882742555,-0.2573972663906593,0.10923090204042409,-0.10592332794489356,0.46538921256824556
1760514523.0774622,-0.10238217075335246,0.950404787055558,-0.2574013328366413,0.1010065996419149,-0.13853988085620353,0.4357863513722222
1760514523.0874424,-0.10252890050016583,0.95110748147812,-0.25734035774241587,0.09270122743451017,-0.16247408825761758,0.3984751838002722
1760514523.097462,-0.1028103584734797,0.9519029869040644,-0.2572143338634786,0.08353935264674324,-0.17618206161828479,0.35465302198184373
1760514523.1076498,-0.10319748657655761,0.9526997235135527,-0.2570347574545194,0.0731099088406583,-0.17959091004930752,0.3061383548927113
1760514523.117481,-0.10364642515024998,0.953410454148273,-0.25682266150752,0.06144044489749538,-0.17414314017584479,0.2554197289577026
1760514523.127453,-0.1041043333062913,0.9539644506464889,-0.2566047393073483,0.04896235392620897,-0.16253297288769172,0.2055847527742504
1760514523.137452,-0.10451491257992869,0.954315667921155,-0.2564083535986819,0.036387728163911705,-0.14820113954102138,0.16011229936086258
1760514523.1474638,-0.10482305192682342,0.9544459301965283,-0.2562564850008083,0.024531349605569137,-0.1347083910425797,0.12254377436162388
1760514523.1574643,-0.10497874193257285,0.9543634222380795,-0.2561636980383585,0.014117454819277439,-0.12512320910108096,0.09607924825331014
1760514523.1674688,-0.10494093347654512,0.9540976490516484,-0.25613389642616335,0.005613883346000488,-0.12153601260191695,0.0831640195015423
1760514523.1774588,-0.10468183525727712,0.9536924124070831,-0.2561601627181746,-0.0008668175532487385,-0.12476583699091302,0.08513600013500787
1760514523.187455,-0.10419116996812904,0.9531984020965535,-0.25622655605682204,-0.005575149792008277,-0.13427600236237505,0.10199417330479106
1760514523.197617,-0.10347889838972302,0.9526667532504998,-0.25631145364007435,-0.009044706837044144,-0.1482762604651567,0.1323276385993507
1760514523.2075107,-0.10257490298895328,0.9521443609000334,-0.2563918566203194,-0.011956940499212912,-0.1639647482372908,0.17341926853521875
1760514523.2176588,-0.10152532136831648,0.9516710433884461,-0.25644797956020715,-0.014999585347822727,-0.17785406275856122,0.22151239664213798
1760514523.2274826,-0.1003867526639775,0.9512781017153709,-0.25646731418543633,-0.018764498664202992,-0.18613167675166603,0.2722062762656014
1760514523.237453,-0.09922032855026033,0.9509875922198678,-0.2564472834481177,-0.023709885063963206,-0.185021630735258,0.32092874676615474
1760514523.2474701,-0.09808730187207436,0.9508117336586728,-0.2563958186778772,-0.0301818210264678,-0.1711316383081855,0.3634250993278039
1760514523.2574646,-0.09704674699315566,0.9507522875279496,-0.25632971470828425,-0.03846265016183787,-0.14177758164222276,0.3962023772594111
1760514523.2675095,-0.09615475866628687,0.9508003374291837,-0.2562711529098164,-0.04880135323998432,-0.09527454720926637,0.41687826585932625
1760514523.2774658,-0.09546374583034835,0.950937278181282,-0.25624311046570114,-0.06138986725122925,-0.03117578839769423,0.4244007030237136
1760514523.28747,-0.09502049988008834,0.9511376086305319,-0.2562645158426313,-0.07627651329368977,0.04956599231036401,0.4191233773693663
1760514523.297484,-0.09486263259109075,0.9513732928631864,-0.25634601751827624,-0.09324253222465685,0.1445434617307236,0.402738070493513
1760514523.3076143,-0.09501409022277353,0.9516185388211886,-0.2564870976504153,-0.11169572577823977,0.24996912350455971,0.3780750992666597
1760514523.3174832,-0.0954810508878428,0.9518534916374425,-0.25667501704854195,-0.13064185389867236,0.36088743365165143,0.34879033035018076
1760514523.327493,-0.09624935982788634,0.9520657731174893,-0.2568858023006674,-0.14877232986231165,0.47150832541557025,0.31896597761831713
1760514523.3374755,-0.09728403386466665,0.9522496971881247,-0.25708722987118043,-0.1646634128644054,0.5756214735942762,0.29266473984978914
1760514523.3474731,-0.09853077018798553,0.9524038266253175,-0.2572434995442468,-0.17703852951835172,0.6670363068934331,0.2734894880425771
1760514523.3575954,-0.09991911849050161,0.9525279638378138,-0.25732092394764783,-0.1850224936908597,0.7399942062898147,0.26420669017107046
1760514523.367498,-0.10136691270738518,0.9526206525495603,-0.2572934946372976,-0.18832130837632777,0.789515180235502,0.2664855367145897
1760514523.3776207,-0.10278546109852103,0.9526779429593383,-0.2571469202437427,-0.18728599467830961,0.8116657913205392,0.2807861613567462
1760514523.3875284,-0.10408485430763335,0.9526936823860312,-0.2568800602733068,-0.18285042295874346,0.8037601750405138,0.3064043815981756
1760514523.3974793,-0.10517881072436627,0.9526611070453603,-0.25650359041491216,-0.17636187106249668,0.7645211261134642,0.3416540780589726
1760514523.407493,-0.10598887500543436,0.9525752258108707,-0.256036725886769,-0.1693441759549754,0.6942238674873639,0.3841477721018341
1760514523.417515,-0.10644828699372053,0.9524353997076432,-0.25550333944264547,-0.16324436542946735,0.5948213560403268,0.43112427947876936
1760514523.4274607,-0.1065060212768462,0.952247425944493,-0.25492867938170144,-0.15921293763776345,0.4700198006347252,0.47977019503021406
1760514523.4375422,-0.10613122240187865,0.9520243542275701,-0.2543373832170236,-0.1579553398321404,0.3252538183098123,0.5274895574693662
1760514523.4474683,-0.10531776334998885,0.9517855065128048,-0.25375291635576247,-0.1596711613014119,0.16751280143565644,0.5720925985542785
1760514523.457549,-0.10408816518894344,0.9515537770470183,-0.25319802435352756,-0.16407587566881077,0.004992984352478258,0.611895849652642
1760514523.4676642,-0.10249573918405272,0.9513518583386766,-0.2526953102967176,-0.1704856508627207,-0.15341531228087912,0.6457448054192857
1760514523.4777887,-0.10062370997678023,0.9511982926968436,-0.25226691831330034,-0.17794181314483493,-0.29875997049934677,0.672980976629402
1760514523.4876335,-0.09858039812760669,0.951104295719637,-0.25193275965783885,-0.1853553515565223,-0.42270723939667404,0.6933769607266339
1760514523.4975648,-0.09649031114845891,0.9510722415487698,-0.25170754840553444,-0.19165777118206806,-0.518188406709024,0.7070596511630742
1760514523.5075455,-0.0944821484437197,0.9510963911965875,-0.2515976367531024,-0.19594697115102838,-0.5799399422818006,0.7144361133339646
1760514523.5175667,-0.09267590020354535,0.9511657616534219,-0.2515988977280923,-0.1976133376682311,-0.6048852497262921,0.716129987013565
1760514523.5274746,-0.09117167339839541,0.9512682050996839,-0.25169663183834023,-0.19642532582396585,-0.5923315686501189,0.7129292365090094
1760514523.5375712,-0.09004213655363051,0.95139426903838,-0.25186786569426567,-0.19255202458590706,-0.5439771772716628,0.7057407036506174
