timestamp,angle,linear_acceleration_x,linear_acceleration_y,linear_acceleration_z,angular_velocity_x,angular_velocity_y,angular_velocity_z
1761285819.8383358,-10.101929309560806,0.1724128612856833,0.8943221145928342,-0.27837062141514984,8.724982817613316,12.653286547815071,51.013317203148006
1761285819.8483937,-9.443785957620126,0.11091068269096327,0.8455435373767116,-0.3154932907973336,7.252621841348037,18.781948821220027,51.760703391065626
1761285819.8582454,-8.848653873484741,0.032404801718627134,0.8124499142787344,-0.3455564168346912,6.188927710039869,24.37061119509756,51.87391850709254
1761285819.8683388,-8.331457109718453,-0.05590244745607866,0.793135634156578,-0.367269842178877,5.403207272824035,29.039039414042364,51.231756198080646
1761285819.878279,-7.903698377221683,-0.14635010012385538,0.7851764919745621,-0.3800994261262237,4.795358985075841,32.48072073701049,49.77304238209134
1761285819.8885877,-7.5723297650323556,-0.23160497936043947,0.7860795912399087,-0.3841396553257997,4.307128897023877,34.48437959975727,47.50276719637266
1761285819.8983045,-7.3388391405374165,-0.3053015019915304,0.793588869259754,-0.38000183469973015,3.9215062549083313,34.945542914813174,44.492217876083735
1761285819.9082687,-7.1986678166299605,-0.36249232467731823,0.8058457803069753,-0.3687289212211932,3.6530528300326806,33.86755254793489,40.874374957666625
1761285819.918261,-7.141080135284746,-0.3999069507386059,0.8214298774114465,-0.3517202550024816,3.5332377310816274,31.352840566548437,36.83555100592945
1761285819.9286582,-7.1495849987920295,-0.4160393546253379,0.8393131751847805,-0.3306430366699157,3.594841309487152,27.586509278697143,32.60379785578093
1761285819.9382858,-7.2029520677628165,-0.41109091033694706,0.858760183249826,-0.3073193026279345,3.8586949841909157,22.814942604425184,28.434261175070706
1761285819.9482524,-7.2767748385958635,-0.3867900468261833,0.8792010758501165,-0.2835945709174854,4.324891618483551,17.322255361245183,24.59164128330793
1761285819.9584062,-7.345429438015798,-0.3461078461101206,0.900103441831481,-0.261205225033334,4.969405178777777,11.407066706484976,21.33032455187169
1761285819.9686222,-7.3841924284302936,-0.2928956349459163,0.9208671129367773,-0.24166236410511835,5.745948517307916,5.361621764830936,18.87346436484268
1761285819.9786885,-7.371243132877779,-0.23148317052986597,0.940763104325301,-0.22616450463385443,6.5920051216918525,-0.5452028616432986,17.39299757804734
1761285819.9882934,-7.289302503079167,-0.16628605558674367,0.9589300052190678,-0.21554568230207477,7.4374222406449535,-6.080022530960539,16.992940608851608
1761285819.9983258,-7.126743595912822,-0.10147075603141611,0.9744300696496676,-0.2102607198150969,8.213800596404395,-11.051872360568186,17.698158802392623
1761285820.0083413,-6.87811648747302,-0.0407112102308162,0.986354727257367,-0.21040419198526839,8.8630939164373,-15.314375499175629,19.45020461553317
1761285820.0182695,-6.544124281382742,0.01295415712477807,0.993957601967109,-0.215753501856702,9.34420412481852,-18.764330270092408,22.110944380341902
1761285820.0282528,-6.131142753690728,0.057182119129938126,0.9967853898594236,-0.2258219631492741,9.636799872356915,-21.338391097462907,25.473725738262054
1761285820.0382674,-5.650392471961172,0.09033429888168215,0.9947759404422749,-0.2399080606755277,9.74202894576573,-23.00952836681909,29.280950311593298
1761285820.048251,-5.116862235213111,0.1114716745013067,0.9882993843452312,-0.25713282452632086,9.680221449135114,-23.784404658994948,33.24623079629663
1761285820.058269,-4.548064167701937,0.12035700801779123,0.9781304063750824,-0.27646594799486834,9.486081969255354,-23.701876914287244,37.078874590449075
1761285820.0682638,-3.962688896899978,0.11746788514380309,0.9653546561314086,-0.29674889257117754,9.202212053054678,-22.83188287643055,40.50825135744324
1761285820.079136,-3.3792309838162096,0.10400238252030924,0.9512262354002579,-0.31672657308149227,8.872031905068791,-21.273383453735587,43.30566797129232
1761285820.0882752,-2.8146665029135503,0.08184789920847584,0.9370028549872761,-0.33509737684996965,8.533226001135736,-19.15005030737522,45.301677809610524
1761285820.0982642,-2.2832762980224532,0.05348612167125174,0.9237885579366257,-0.35058567864246226,8.212696157882931,-16.60298243052383,46.39726491099227
1761285820.108287,-1.7957107565872412,0.02182138102752138,0.9124105800900345,-0.36203422146720665,7.92369347730241,-13.78065106613578,46.56802564686716
1761285820.118339,-1.3583797414312928,-0.010059045131457866,0.9033483093921924,-0.368507756024781,7.665393396071618,-10.827181902245387,45.86124429242088
1761285820.1282601,-0.9732229584919638,-0.03916183995381739,0.8967212393264327,-0.3693949650915006,7.424775191242697,-7.870722221883915,44.386519493156854
1761285820.1383035,-0.6378742644177432,-0.06285611716373225,0.8923325995766362,-0.3644932157684707,7.180351776944997,-5.013840506973749,42.30125094716585
1761285820.1482854,-0.3461865450253352,-0.0790879667224708,0.8897579554302271,-0.35406072278180317,6.907102121097307,-2.3275869899379877,39.792762752332905
1761285820.1582603,-0.08904313372034527,-0.08651069356653487,0.8884635700983682,-0.3388240429157574,6.581868028394784,0.14994288885756207,37.05906920255675
1761285820.1682963,0.14464389358396146,-0.08452278853020523,0.8879370167058513,-0.3199353462108097,6.188444905303534,2.4107198529730463,34.290279779635746
1761285820.1782982,0.3668557683094445,-0.07322641673421854,0.887811829555329,-0.2988821802503604,5.721594236719073,4.470655811806209,31.65243990807806
1761285820.188281,0.5894080418701295,-0.0533328793275803,0.887968471754382,-0.27736021883111656,5.189247101157254,6.361857963843777,29.275268525805842
1761285820.1982784,0.8229894428681974,-0.026046317772461483,0.8885953276130497,-0.25712487142454626,4.612311773913032,8.12490795350625,27.244818085140924
1761285820.2082536,1.0763538341943741,0.007047310872241906,0.8901962635934412,-0.23984010193533706,4.021825527377205,9.802383181170836,25.601551556144585
1761285820.2183104,1.355700662068539,0.04407109181344845,0.8935368440385184,-0.22694260216555476,3.4537266917544596,11.43410610098968,24.343700842063424
1761285820.228364,1.6642679563566714,0.08292937753727277,0.8995303723183197,-0.2195357437679759,2.9421387838171746,13.053849796983673,23.435086106394756
1761285820.2383134,2.0021586815552115,0.12137796242924956,0.9090767194774716,-0.21831976839997205,2.5124951400375455,14.686774219274584,22.815946792752317
1761285820.2482693,2.366420001466328,0.15711632199996511,0.9228793722343839,-0.22355586117135043,2.1758973070985266,16.346915538178255,22.41489826543132
1761285820.258358,2.751385834270729,0.18792153732952208,0.9412759319928563,-0.23505816433717605,1.9258192745902736,18.03451790796446,22.159995697194795
1761285820.2684507,3.1492672846182868,0.21182696369411486,0.9641191822823552,-0.25221080596143763,1.7378110108463773,19.733590058348934,21.98711679334081
1761285820.2782938,3.550933420099202,0.22732600998468988,0.990735835492253,-0.27401122894356683,1.5723585204398536,21.410498189903546,21.84444484785703
1761285820.2883294,3.946779348245545,0.23356198904669132,1.0199705337298588,-0.2991406903136553,1.3805725529080823,23.014517227853407,21.692639082158948
1761285820.2982938,4.327549764785329,0.23045699150770932,1.0503023659877833,-0.3260572153772442,1.1119102920860686,24.48103624665837,21.501163563756243
1761285820.3082592,4.684989213120355,0.21873973439305847,1.0800089904038384,-0.3530997153492537,0.7227121269623701,25.73761619306453,21.24203736374983
1761285820.3182685,5.012226704921714,0.1998529130595394,1.1073516676250656,-0.3785891913648735,0.18403939080608597,26.712443742611615,20.882804732664024
1761285820.32832,5.303861526265519,0.17574874170502136,1.1307578319383578,-0.40091601352753653,-0.5127600805126428,27.34406962516963,20.38067974027937
1761285820.3383043,5.555782985890868,0.14860790862026635,1.1489799417686053,-0.41861001651686586,-1.3540735971281561,27.590843928218757,19.679546405747658
1761285820.3482714,5.7648126832618605,0.1205338814900651,1.1612098869008094,-0.4303990150553119,-2.3063758324072103,27.438326074282816,18.71084661801375
1761285820.3584125,5.928289528203585,0.0932786272946501,1.1671317754725907,-0.4352660330388554,-3.32285932019123,26.9032245205082,17.39851211544853
1761285820.3682938,6.043718490997908,0.0680492257700122,1.1669052372745756,-0.4325115242464026,-4.353421641602438,26.033046268096722,15.667196520933915
1761285820.3782678,6.108576169696643,0.0454292618718375,1.1610842704985576,-0.4218148658925196,-5.3563341912124525,24.90144750869962,13.452336482394156
1761285820.3890522,6.1203185815046215,0.025424958634815024,1.1504889526721722,-0.4032770982513685,-6.309469573813656,23.6000952978534,10.710155704780192
1761285820.3982716,6.076581695766474,0.0076181988311293395,1.1360560571579816,-0.3774237638126561,-7.21895116573015,22.22850225588002,7.425682801682592
1761285820.4082491,5.975517288429234,-0.008613314559610324,1.1186982605991296,-0.34515631770719124,-8.123526907064052,20.88360638677553,3.617176093747318
1761285820.4182653,5.816177336603134,-0.023857117343763546,1.0991996843010048,-0.3076581337319955,-9.093744408548693,19.65073049336364,-0.6640218974597347
1761285820.4282663,5.598853601804674,-0.038453981732747416,1.0781683016763468,-0.2662777958382086,-10.225892619155104,18.597041111601886,-5.338333159891507
1761285820.438284,5.325291961283167,-0.052350970441840915,1.0560537309371696,-0.22242055905800615,-11.631447584984466,17.767963630741654,-10.30669637243264
1761285820.4498317,4.998727206895714,-0.0650472147535123,1.0332229863151803,-0.1774748537387048,-13.423298708012709,17.186432904321155,-15.46158065646472
1761285820.4585319,4.623717560861662,-0.07564557717304747,1.0100703296109497,-0.13278584825059253,-15.700355781523214,16.8544828222743,-20.698105453039474
1761285820.468293,4.2057937810961565,-0.08300514001552581,0.9871266882830365,-0.08966871322460244,-18.532320155493274,16.756492623736346,-25.92314155651704
1761285820.4782786,3.750970709019029,-0.08597023901630885,0.9651338167581738,-0.04943843485988217,-21.94647620602153,16.863345265205194,-31.060869653676363
1761285820.4891996,3.2651949540671796,-0.08363544103364129,0.9450576362086429,-0.013426210262779863,-25.91827521126147,17.1367680908466,-36.05421608201833
1761285820.4999566,2.7538160603066393,-0.07559653816335467,0.9280298684975519,0.017044064935059455,-30.367164243653477,17.533214412478284,-40.86253266750652
1761285820.5088947,2.2211652388072185,-0.06213792907717171,0.915223872603302,0.04073331103511818,-35.15852326782753,18.00680480410372,-45.456594877654744
1761285820.5199225,1.6703042892196274,-0.044316750204454705,0.9076867426939497,0.056614847383178436,-40.11177699316612,18.511048692218317,-49.812380429087355
1761285820.5284843,1.102972678394945,-0.023921438042006162,0.9061613195472539,0.06402979115187495,-45.013889021824056,18.99927452869934,-53.90517554062343
1761285820.538868,0.5197234722671273,-0.0033030058550262364,0.9109352010357141,0.06283562246495263,-49.63667765966523,19.42390416952986,-57.705365306295036
1761285820.5488098,-0.07979015041490689,0.014902495117132574,0.9217480749087983,0.05351106047988262,-53.75582950021787,19.73493489022937,-61.17682362118807
1761285820.5594,-0.6964313292052927,0.028123449293482393,0.9377755994642628,0.03718847781058348,-57.16922116671206,19.878255350955662,-64.27819957224544
1761285820.5688796,-1.3311557466273276,0.03422145269934993,0.957691662518928,0.015599884959058468,-59.71228176533527,19.79467838013017,-66.96674937483127
1761285820.5789313,-1.9846015722534305,0.031817799075968725,0.9797958381134989,-0.009060802354376792,-61.26867489437203,19.420691431259016,-69.20385956882721
1761285820.5883236,-2.6567419644235626,0.020519460266451735,1.0021825784392597,-0.0343420941000769,-61.775441344633734,18.691734551908347,-70.96114677063098
1761285820.5994065,-3.346641195907995,0.0010028863100769855,1.022924383827653,-0.057778867062853755,-61.222680783002794,17.548249927131042,-72.2259810187896
1761285820.6082978,-4.052342454298644,-0.025060933523585013,1.0402428396081886,-0.0771435063279185,-59.648626887484895,15.943947712667569,-73.00539593646782
1761285820.6184645,-4.7708971610264115,-0.055228436374215435,1.052648197706321,-0.09067011684206835,-57.131451953319626,13.855000031412986,-73.32759448687865
1761285820.6287653,-5.498525672772411,-0.08661429489703573,1.0590379849770901,-0.09722088043197044,-53.77928476067281,11.288496131652284,-73.24064225077535
1761285820.6383238,-6.2308811613318635,-0.11627408419925167,1.0587545413260628,-0.09637368649473924,-49.719792255584345,8.288555187950653,-72.80842458196369
1761285820.648821,-6.963374402935463,-0.14157559858736438,1.051607642797111,-0.08842495572177018,-45.09040389719045,4.938833029724959,-72.10441507478009
1761285820.658858,-7.691508384164575,-0.16050273586781644,1.0378706437889333,-0.07431481651963207,-40.02999271441782,1.3605267966316557,-71.20412613200865
1761285820.6697214,-8.411169119809124,-0.1718529128367078,1.0182570868572864,-0.05548917005796559,-34.67261872697475,-2.2946923654488938,-70.17722099980747
1761285820.6783946,-9.118823896687154,-0.17531053301932664,0.9938798719124883,-0.03371586249118001,-29.143734082634428,-5.856944672749996,-69.08018704385212
1761285820.6914754,-9.811591105476547,-0.17139981328511877,0.9661890257970055,-0.01087367205443854,-23.55894228315296,-9.155004187931706,-67.95028232987454
1761285820.6988852,-10.487166731999094,-0.16133705598237674,0.9368815070367499,0.011264822017236569,-18.024940533749678,-12.036183343118486,-66.8012571294166
1761285820.7083533,-11.143620303171561,-0.14681494057834504,0.9077805219529861,0.031232307390665716,-12.641747761596198,-14.386670410916336,-65.62118407026732
1761285820.7185733,-11.779104751182194,-0.12975971478481566,0.8806902442303459,0.04802175725990159,-7.504952292957029,-16.14903608953923,-64.37263519552583
1761285820.7283053,-12.391552503652125,-0.1121035331761156,0.8572391335947322,0.061174157953094534,-2.706689051108682,-17.33346991862618,-62.99540504371023
1761285820.7384443,-12.978442607261128,-0.09560531471896633,0.8387283379771016,0.07078487696809575,1.6655989779113518,-18.01988666834909,-61.41194364957997
1761285820.748954,-13.536713897619961,-0.08173601661276514,0.8260020469046316,0.07742842560370224,5.532956018700616,-18.34932571910683,-59.53557296697987
1761285820.7601876,-14.062869576512629,-0.0716251275116348,0.8193551923519974,0.08201552262532277,8.83089191302333,-18.50478014638514,-57.28136431683083
1761285820.772592,-14.55327749690382,-0.06605195156989081,0.8184893317301903,0.08560706952321932,11.516508166734363,-18.68333989569749,-54.57920898757194
1761285820.7814317,-15.004628824072885,-0.06546161904801047,0.8225200615362641,0.08921487095424277,13.575316449744234,-19.062984077089375,-51.38810472751506
1761285820.7888527,-15.414486930971272,-0.0699904129119624,0.830032917542372,0.09361816619782573,15.026262434935285,-19.768339370013802,-47.710069283836845
1761285820.7987888,-15.781845141073562,-0.07949361084524435,0.8391829575969646,0.0992196274629992,15.923811128111387,-20.840183880016642,-43.601528246316086
1761285820.810893,-16.107612901977326,-0.09357777607006548,0.8478349427091891,0.10595714772154409,16.35649541061785,-22.213422555388835,-39.17970765551149
1761285820.818969,-16.39495575849156,-0.11164585136003904,0.8537425238063079,0.11328059055271185,16.441884092124063,-23.707717420505002,-34.62166569219942
1761285820.82895,-16.649421248629785,-0.13296540155349626,0.854763837361868,0.12019602802043582,16.318400215110948,-25.033946075330146,-30.154194742236974
1761285820.839114,-16.87879615987746,-0.15676672816673565,0.8491070201744557,0.12537324191634752,16.13480636848945,-25.81818381075873,-26.03388996557442
1761285820.8488863,-17.09266675730806,-0.18236895717580093,0.8355923482570402,0.12730524885303893,16.03845978063651,-25.642950173146158,-22.518161068128524
1761285820.8584712,-17.301691640035862,-0.20932014765865506,0.8139084283724348,0.12450181209686617,16.163605935626943,-24.10306522095472,-19.82977718529259
1761285820.8683167,-17.51663931626569,-0.23752412158620353,0.7848299985793511,0.11569298985033649,16.621022484675645,-20.870762134838806,-18.119439485154622
1761285820.8783085,-17.747279124934447,-0.2673154863576822,0.7503573046008172,0.10001492206330383,17.490223629245243,-15.762023097996208,-17.432391790939878
1761285820.8883026,-18.0012356289377,-0.29944031610860644,0.7137344922239752,0.07715071488778152,18.81511778396776,-8.794026037670367,-17.685624406258437
1761285820.8983827,-18.282921102607524,-0.334909175190745,0.6793091653853934,0.047407462279036215,20.603418170508373,-0.22289500360365272,-18.661391961306528
1761285820.9082875,-18.592655238881157,-0.37471447969257443,0.652208580105223,0.011726571122884225,22.82927983978104,9.447658096158882,-20.0204993625026
1761285820.9187872,-18.926073305303536,-0.41943966213345246,0.637830517960938,-0.028357053152066235,25.437759290902456,19.492513586711656,-21.33545478517917
1761285820.9286602,-19.273912450296535,-0.46881947188087725,0.6411780809452144,-0.07078188319450562,28.349084543722757,29.02643600715943,-22.139856377792636
1761285820.9388552,-19.622242419193597,-0.5213281439026086,0.6661034452612815,-0.11303730624546166,31.460805635966317,37.094912416319964,-21.987172933413554
1761285820.9487185,-19.953166560680188,-0.5738771294223591,0.714558007525135,-0.15226601164328396,34.647003141813244,42.78411885894882,-20.510144649475215
1761285820.9596477,-20.245966445139405,-0.6217076640924902,0.7859681159970041,-0.18543934940120402,37.75575994631863,45.336643482473384,-17.47169099733919
1761285820.9697757,-20.47860990329982,-0.6585687131891723,0.8768653808470162,-0.2096625203811965,40.608260055521136,44.25863254432869,-12.799398417780589
1761285820.9789836,-20.629497585264264,-0.6772615554616277,0.9808981969227581,-0.22262535466463965,43.003929013374886,39.404576004016384,-6.598099217588641
1761285820.988355,-20.67929195414811,-0.6705842882131166,1.089325325789341,-0.2231312885083829,44.73500691350551,31.027465316613167,0.8616061990160558
1761285820.9985356,-20.61265729484609,-0.6326145112425868,1.1920220685941425,-0.21155873530383842,45.61086479125856,19.784452032200075,9.177207329711644
1761285821.008307,-20.419741968213803,-0.5601442832869447,1.2789069761149974,-0.19008828276116901,45.48836488797574,6.691929516872756,17.865097680519916
1761285821.0183218,-20.097254395574364,-0.4539637879734762,1.3415488646729088,-0.1625820306114132,44.301286199025334,-6.970234276808647,26.420003543836387
1761285821.0283074,-19.64901737583198,-0.3196234311339731,1.3745980746581739,-0.13409905040320266,42.080653955889716,-19.797808032629657,34.37335517502738
1761285821.0390956,-19.08592557542518,-0.16733941270496683,1.3766690948446587,-0.11012976983956291,38.95927994478575,-30.42853574658617,41.34159224885212
1761285821.0483496,-18.425276753748545,-0.010884271856393663,1.3504226701267183,-0.09570310901763095,35.15761555723501,-37.712298137098855,47.057954501952864
1761285821.0584443,-17.68950175823754,0.13440048519978812,1.3018258928790887,-0.09455173262542968,30.953035628687424,-40.85824047361072,51.385149769323775
1761285821.0686734,-16.90438440613474,0.2540333229699437,1.238813502500939,-0.10850832354570453,26.639254986819857,-39.53419745536924,54.31031376305921
1761285821.078305,-16.096934711078454,0.3366785170123386,1.1697286330715397,-0.13725078448794947,22.485110494881184,-33.90174932606707,55.92663232945196
1761285821.0883203,-15.293141478609902,0.375780794252418,1.1019352717614115,-0.17842940422268247,18.701589820855926,-24.582262888066428,56.40715551459163
1761285821.0990698,-14.515863347138076,0.3702769903639557,1.0408850777121368,-0.22811897738726747,15.423110567596723,-12.561992208501298,55.975819950796826
1761285821.1083527,-13.78310792262991,0.32437350462257236,0.9897501817369787,-0.28147236749139803,12.704893439252732,0.9456849590179737,54.87924097816018
1761285821.119175,-13.106896891903027,0.24656447519943211,0.9495704958787676,-0.33342803371141416,10.534249039605552,14.657548048365138,53.361296869858045
1761285821.1298192,-12.49283367013668,0.14815452623537112,0.9197549242835222,-0.37934321298979207,8.850763192555515,27.373642919010233,51.64153345097171
1761285821.1389313,-11.940397071573527,0.04156609140752927,0.898734883122778,-0.4154717190527112,7.569244480337473,38.106128019754514,49.898161505233745
1761285821.148475,-11.443893172069648,-0.06131324113960971,0.8845872518272939,-0.43925892016950147,6.599897098785536,46.16978139844969,48.25663758553729
1761285821.1583257,-10.99391542532921,-0.15053271624665743,0.8755026400952521,-0.44946715004778554,5.862079651634449,51.226928867582124,46.78499299611319
1761285821.168347,-10.579097722412447,-0.21907557247463547,0.8700494636880536,-0.4461630476371529,5.290515507151652,53.28601835413181,45.49675220555216
1761285821.1783524,-10.187907210515023,-0.2633620836387848,0.8672503886697468,-0.43059713592426385,4.8351451383319946,52.658606513425546,44.361324566358
1761285821.1884143,-9.810223130830844,-0.28323904219930585,0.8665273959002125,-0.4049971500302413,4.457265881875742,49.88399456723732,43.32040858134383
1761285821.1984332,-9.438488237872573,-0.2815065125131618,0.8675810240204259,-0.37229186036828066,4.12486157217923,45.634025102384335,42.307692107041326
1761285821.208559,-9.068296062037522,-0.26309748639865294,0.8702574349409937,-0.3357859235057338,3.809273596725836,40.61233729412591,41.26839978197169
1761285821.2186024,-8.698377960617831,-0.2340748214694976,0.8744367938069433,-0.2988156495131424,3.484154080850766,35.462282335072715,40.17523274605889
1761285821.2283142,-8.33005897725169,-0.20062737101385442,0.8799570774563603,-0.2644236269054391,3.126525181958509,30.695508189613314,39.03792589083649
1761285821.2383232,-7.966338601384043,-0.16822501370678397,0.8865730850445436,-0.23509047731677066,2.719068775644975,26.649189137009145,37.90483405456754
1761285821.2486033,-7.610804207486795,-0.14103865078011624,0.8939424162219242,-0.21255247816759207,2.252553435827014,23.474755552041465,36.85641271156778
1761285821.258303,-7.266594266988854,-0.12166584649024548,0.9016279738945322,-0.19771766645155625,1.7274592122688495,21.15577507850764,35.99191028836772
1761285821.2683213,-6.935598230198776,-0.11114355625151487,0.9091088827117928,-0.19067639296407482,1.1542013824700408,19.548298275020272,35.41175728104457
1761285821.2783577,-6.618019606776753,-0.10918604880185097,0.9157969258604858,-0.19079005103764393,0.5517260189220643,18.434183449219454,35.19880422012899
1761285821.2883565,-6.312351218811485,-0.11456160057988543,0.9210609378643152,-0.19683562556606668,-0.05541393356125765,17.57694123114979,35.401649871529415
1761285821.298741,-6.01573107060211,-0.12551485991449648,0.9242639709160971,-0.20718299526050282,-0.6410874060045734,16.770428642862313,36.02286759455274
1761285821.309474,-5.72457662097664,-0.1401499602737839,0.9248165974592242,-0.21998461058390345,-1.1820245192104177,15.872984937406962,37.01409587413847
1761285821.318848,-5.435344608383479,-0.1567090786194032,0.9222463399388329,-0.23336125955819742,-1.6617781197077643,14.82288276664942,38.27884837371459
1761285821.3292673,-5.145241093778801,-0.17370959771281097,0.9162798824699179,-0.24557192824964197,-2.073318858340463,13.634684514938535,39.68268569883272
1761285821.3388827,-4.8527183890457035,-0.18993760103539326,0.9069313026660474,-0.2551599781648832,-2.4196381414900374,12.379611153632213,41.069249993396454
1761285821.3483212,-4.557643380249282,-0.2043304163695023,0.8945853208868807,-0.26107176688344474,-2.7122050009075402,11.155763798230746,42.279754993658614
1761285821.3583217,-4.261097364783869,-0.21580759679614403,0.8800603333358532,-0.2627465136778444,-2.967639042484553,10.055526000520418,43.17299196948844
1761285821.3687768,-3.96485391868793,-0.22312076171946071,0.8646339041463229,-0.2601763645337623,-3.2033555307735995,9.137480586062093,43.6428573618544
1761285821.3783095,-3.6706587952921588,-0.22478640699692995,0.8500149911926687,-0.25393266669119724,-3.4331305130181584,8.408775375450901,43.630834340880924
1761285821.3883433,-3.37948778067782,-0.21914540383646108,0.8382524592588327,-0.24514962194286866,-3.6635311399376125,7.821420173825097,43.131664281344555
1761285821.3983305,-3.090973147693795,-0.20456278773612555,0.831577249364854,-0.23545271744634616,-3.8920004093019442,7.282979176948768,42.191470627094304
1761285821.40835,-2.8031605264785173,-0.17974488130471156,0.8321846228316467,-0.22681995765534393,-4.107113434834119,6.679064468290803,40.89869596577313
1761285821.4183311,-2.5126863157505928,-0.14411248221649153,0.8419726771888009,-0.22137099236506075,-4.291164181355133,5.9024800513102385,39.36925328705297
1761285821.428337,-2.215362989670886,-0.09813849701329483,0.8622642607746338,-0.22109286745954898,-4.424830325160418,4.8823395746614295,37.728149428289235
1761285821.4383402,-1.9070515430930954,-0.04354904338317234,0.8935509747528333,-0.2275292653379984,-4.49324168933619,3.606417074267461,36.09036910540293
1761285821.4483178,-1.5846208317098769,0.016692493926458697,0.935306149864433,-0.24147803157794376,-4.49240297094223,2.131556677372311,34.54387674213051
1761285821.4583542,-1.2467708963829247,0.07865031590395719,0.9859119130216285,-0.26275280764465814,-4.434674483931826,0.5798595698055587,33.137155815414395
1761285821.470028,-0.8945411383502145,0.13789738917081548,1.042729424966682,-0.2900631911700219,-4.351990362878784,-0.8782136844924819,31.872852108283855
1761285821.4789038,-0.5314194907984122,0.19011987453170073,1.1023133224671458,-0.3210526402940051,-4.29577017667437,-2.049736346748346,30.708015548149053
1761285821.488815,-0.1630785375038866,0.23171642494048006,1.160740312696435,-0.35250688385527773,-4.333066616264949,-2.748419608207759,29.560393906601636
1761285821.4989016,0.2031534816635367,0.2602674221406142,1.2139998284498417,-0.3807130643122206,-4.539287420627065,-2.821042309653652,28.319444431168634
1761285821.5083318,0.5589477697719107,0.27478952833889675,1.258389841063819,-0.40191901747569514,-4.988626634433027,-2.1666689470762157,26.860306246053973
1761285821.5189104,0.8956312606965587,0.2757507490343363,1.2908712226767132,-0.41282204881978485,-5.743892064145814,-0.7463615697604815,25.058883006573268
1761285821.5283926,1.2047568759953524,0.26487591721369735,1.3093487877333108,-0.41101259045154204,-6.847540721988645,1.4165301904255316,22.806306978032968
1761285821.5389411,1.4785420853261575,0.2448042786786753,1.312856675373686,-0.39530805975227273,-8.315405214878815,4.2435830323660575,20.02128889873074
1761285821.5483074,1.7101648225654331,0.21866912112890927,1.3016289334311708,-0.3659297304769768,-10.133956985527991,7.613189833531219,16.65916062936923
1761285821.5584445,1.8939304518750093,0.18966531711504184,1.2770400197448395,-0.32449597937608227,-12.261242193119969,11.374301075365931,12.716800713108942
1761285821.5683,2.0253379323284215,0.1606623277340594,1.24141333240962,-0.2738281309402249,-14.63103964281318,15.359792839843923,8.233107576447285
1761285821.5784035,2.1010776902426467,0.13390789973756562,1.1977210045525049,-0.21759114358619375,-17.15941381389052,19.39804289521931,3.285211602662588
1761285821.5890586,2.1189890024582274,0.1108506165916343,1.149225630492302,-0.15981981034897436,-19.752658069381425,23.322057802635783,-2.018879324811668
1761285821.5985792,2.077995351224282,0.09209062921272422,1.099129215255097,-0.10440659821072859,-22.315592480088487,26.97610231235476,-7.5500914682950535
1761285821.6083488,1.9780290898483492,0.07745152144224889,1.0502879758944559,-0.05464008073553924,-24.7592670166043,30.220190241109663,-13.169182472129041
1761285821.6183276,1.8199554064059396,0.0661532359249684,1.0050274820158347,-0.012874766302237687,-27.0073188199516,32.932991262610884,-18.73731229841983
1761285821.6283367,1.6055063554607982,0.057053947730507856,0.9650626577864237,0.01961701590895866,-29.000506548048406,35.013726746635626,-24.125085222589696
1761285821.638465,1.3372320028728504,0.048917685261756445,0.9315033480578064,0.04260459190359208,-30.69921116120845,36.383546526059746,-29.219283992416475
1761285821.6483893,1.0184655834913319,0.040659373532463246,0.9049152669056816,0.05670709112667956,-32.083872917522925,36.986765640761966,-33.9270684272511
1761285821.6583705,0.6532876707542201,0.03152473021811527,0.885407902808497,0.06311718377275978,-33.1534129413391,36.792201109756036,-38.177937134466305
1761285821.6684122,0.24646692440857262,0.02117826720757364,0.872730099673384,0.06331502767472615,-33.92172044130165,35.794643482056564,-41.92407427490952
1761285821.6783342,-0.19664496862664133,0.009693152778498583,0.8663640353771236,0.05883380754653559,-34.41237261192523,34.016220335884924,-45.139737844843054
1761285821.6883461,-0.6702795642288022,-0.0025436898795688726,0.8656140888647947,0.05111070304932235,-34.651977930856255,31.507125852334166,-47.82015986049062
1761285821.698332,-1.1684828466233925,-0.014982958276396917,0.869687112706421,0.04142450994534579,-34.662897708675914,28.34500435286115,-49.98017026472789
1761285821.7083144,-1.685401215996432,-0.027084622510828837,0.8777577693139684,0.03089414105619477,-34.456494444312234,24.632264655694676,-51.65254278226036
1761285821.7187703,-2.2155988701777396,-0.03847336973688835,0.8890115992053265,0.02050005608530216,-34.028294047719505,20.49079555459577,-52.88594578672409
1761285821.728323,-2.7543729463011593,-0.04904735252407988,0.9026620449164121,0.011095895717354686,-33.35636599835409,16.05394952784426,-53.74237673614798
1761285821.7383344,-3.2980277069291857,-0.05901951710280437,0.9179446948800575,0.0033945315476611717,-32.40375302002981,11.45623447860523,-54.29404399899613
1761285821.748516,-3.8440701142966307,-0.06888209699832257,0.9340991929023136,-0.0020681173676822713,-31.124981422571917,6.821807885319119,-54.61978831434915
1761285821.7583249,-4.391296007656354,-0.07929681999905479,0.9503533175793084,-0.004974494735038766,-29.47573796292486,2.253443593715556,-54.80125837915289
1761285821.768347,-4.9397478762322615,-0.09092629131019728,0.9659228913708605,-0.005250745525157972,-27.423970212366168,-2.176027446941454,-54.919127988562586
1761285821.7783298,-5.490541185104343,-0.10423566673572765,0.9800355806829971,-0.003060211015344521,-24.96021023327072,-6.427859641510475,-55.04963344513401
1761285821.7883306,-6.045575153948199,-0.11930533735965473,0.9919783657927623,0.001238441764662086,-22.104986667842603,-10.495724651220009,-55.261617846342894
1761285821.7983494,-6.607162936144191,-0.13569986807434942,1.0011606355240954,0.0071590683047825935,-18.911767997915756,-14.397840974507693,-55.614130854993874
1761285821.8083353,-7.177631103469188,-0.1524318640114257,1.0071800325481162,0.014164675520460222,-15.464814886396166,-18.16373893881455,-56.15450809034434
1761285821.8183599,-7.758945381630749,-0.16804196566098514,1.0098769367872147,0.021735129864540827,-11.872371097222704,-21.817648600018952,-56.916797856050074
1761285821.8284252,-8.352416700825849,-0.1807920731406848,1.0093646219673575,0.02941374648796165,-8.256525893202296,-25.36132108276708,-57.92043755097465
1761285821.8383975,-8.95852908379212,-0.1889441384207592,1.0060245072756293,0.03682902657236057,-4.741625844629227,-28.75944884898024,-59.16918366023313
1761285821.848511,-9.576910756771783,-0.19107696382377617,1.0004604185473958,0.043695622567969924,-1.4432168987403975,-31.93067970038791,-60.650410034955435
1761285821.8583364,-10.206445170664566,-0.18638234870655332,0.9934140474981791,0.04980300227357639,1.5408020895384222,-34.74653934689885,-62.33494704158946
1761285821.8684883,-10.845492944026297,-0.17488169759853245,0.985654401775267,0.05500068789270119,4.135724792941101,-37.03947204598291,-64.1775908679265
1761285821.8783784,-11.492173439260398,-0.157515415561378,0.9778619157240876,0.05918652750287161,6.291930339993299,-38.61980666813002,-66.11826309871074
1761285821.888413,-12.144640765419894,-0.13607918886850032,0.9705293229377248,0.062300840716992385,7.983509917070905,-39.29993209970225,-68.08362119436894
1761285821.8983421,-12.801287845703673,-0.11301041327434688,0.9638970034671654,0.06432600035449214,9.204618024420824,-38.92256109870806,-69.9888321978328
1761285821.9083288,-13.46082575668642,-0.09105873406302514,0.9579325553077758,0.06528882417059484,9.964878612899456,-37.388954179076606,-71.73929168575462
1761285821.9183445,-14.122212292634515,-0.07289965776438982,0.9523542870324535,0.06526192003694743,10.285156994208725,-34.68262021920784,-73.23226304362436
1761285821.9283369,-14.784438505659317,-0.06076316478723745,0.9466882306511764,0.06436010034866035,10.194664148020973,-30.88445632181139,-74.35863344171923
1761285821.9383345,-15.446216743223474,-0.05614640229730517,0.9403414209178265,0.0627298109269828,9.72984876464675,-26.176491032324737,-75.00513534449279
1761285821.9483485,-16.105638889577584,-0.059660331771686864,0.9326731404016925,0.06053268733118781,8.935031274772088,-20.8331114039608,-75.05740897875654
1761285821.958512,-16.759880926967334,-0.07102833620921284,0.9230508174461827,0.05792726395165191,7.864347200435348,-15.20053031411946,-74.40418654340066
1761285821.968402,-17.405016601086178,-0.08921865923442372,0.9108864130032854,0.05505417189330314,6.584311166046597,-9.666902125579789,-72.94271661902434
1761285821.978425,-18.03597374353786,-0.11266339532551706,0.8956591593292432,0.05202898541488802,5.176171474895198,-4.62661478365876,-70.58537537815616
1761285821.9883728,-18.646632773625157,-0.13950465208419677,0.8769376600274085,0.04894339607335994,3.7372091103497,-0.4427502139926485,-67.26724456119835
1761285821.998468,-19.230039991912793,-0.16781784854464277,0.8544162146760431,0.04587189567891712,2.380274821354003,2.58843664894544,-62.95424501906194
1761285822.0100048,-19.77869596476132,-0.19578807812918386,0.827976792776874,0.042880075513195,1.2311381511249304,4.2677582138929395,-57.651186688713004
1761285822.018379,-20.284882902929407,-0.22184427901758552,0.7977802930516641,0.040031572088445246,0.4235491405352621,4.515572547509963,-51.40887422731555
1761285822.0283597,-20.74101064332811,-0.24477185803325704,0.7643789827312993,0.03739160582796908,0.0921690114616423,3.3847009480110626,-44.32924559550868
1761285822.0383594,-21.13998094466508,-0.2638203640961266,0.7288279994153458,0.03502553049866853,0.36366343158895276,1.0624123566292851,-36.56745057779595
1761285822.0483668,-21.475584087591233,-0.2788049122154997,0.6927629009558015,0.03299139960540032,1.3463369373623097,-2.139657204530998,-28.32983377779398
1761285822.0585113,-21.74294070384391,-0.2901806019815299,0.6584092067070477,0.03132612597855624,3.118843170757721,-5.808480289304331,-19.86700418574915
1761285822.0683408,-21.938980928367904,-0.2990568757295766,0.628500973535758,0.030025704717540146,5.718810794393864,-9.465663406191307,-11.46155953700468
1761285822.0785117,-22.06291588920792,-0.3071163736093646,0.6061040753931207,0.02902256550137708,9.132635582084621,-12.615371218943697,-3.4106149167289246
1761285822.0885823,-22.11661485254949,-0.31641042051655655,0.5943579787908575,0.028166923276787114,13.288034680867407,-14.80100623996441,3.995902385259699
1761285822.0983734,-22.104772631341,-0.32902098124455426,0.5961615206800239,0.027220547041698982,18.05103097364574,-15.665079942406043,10.499269528891421
1761285822.108347,-22.034754279254667,-0.34660732627414864,0.6138328509885506,0.025868551091694,23.22872224219624,-15.004437447065827,15.895544014920294
1761285822.1184933,-21.916047480275218,-0.36989330516965213,0.6487748639057579,0.02375002551167486,28.57853254032843,-12.811601840312447,20.05557848151645
1761285822.1283739,-21.759331419761537,-0.39819066014870425,0.7011787462565742,0.02050500961018533,33.8237700596481,-9.293137523043383,22.93861409997164
1761285822.138397,-21.57526276532876,-0.42908135887845317,0.7698004580884891,0.015833138778804712,38.67435385536194,-4.85800504192241,24.59742232144783
1761285822.1483676,-21.373157180058364,-0.4583824821696347,0.8518470487043174,0.009554606527563212,42.85063325274797,-0.07295168900821358,25.174153327994787
1761285822.1584058,-21.159787070107576,-0.48048250829050504,0.9430109696803487,0.0016552997321919603,46.10749272905204,4.412381223938468,24.887289985156514
1761285822.168417,-20.93851374941903,-0.48907076541174427,1.0376889472666384,-0.007709936357266846,48.25574575392436,7.961735411061152,24.011112103000745
1761285822.1783743,-20.708926066625313,-0.47819360689662416,1.1294117340100736,-0.018279848248306658,49.17846105065145,10.055526526515722,22.849758757723958
1761285822.1883602,-20.46707491508473,-0.4434749900699498,1.2114843424189579,-0.029820613458319687,48.841128066898584,10.383376541116343,21.708448842666435
1761285822.1984413,-20.206285969155253,-0.38325348752802746,1.2777881509795326,-0.042302214743372625,47.29564458364026,8.907854235193474,20.864769413204545
1761285822.208364,-19.918421287978987,-0.2993450070317234,1.3236298704621832,-0.056049290257709806,44.67820876576938,5.884922876966113,20.543063739928726
1761285822.2183845,-19.59537116456204,-0.19718318507835628,1.3464584887116897,-0.07177826111121548,41.200403861095225,1.83391645757409,20.894675044013557
1761285822.228418,-19.23051537666373,-0.08523443341546974,1.3462528455685152,-0.09046001056407245,37.132163941718275,-2.539987892242036,21.986141466449055
1761285822.2383752,-18.819907801513235,0.02621246793966956,1.3254490351167638,-0.11302564739105302,32.776100150604584,-6.457098843813015,23.79661403682202
1761285822.2483628,-18.36300265814607,0.12661147046956925,1.2884163489774856,-0.14001989400405934,28.435032636647374,-9.18662966722361,26.224944621812973
1761285822.2597723,-17.86283596114227,0.2067382210120369,1.2406310194428098,-0.17134177545423443,24.377456481897156,-10.158195518554953,29.10596838582428
1761285822.268479,-17.32567884484865,0.2599741661940396,1.1877653034471578,-0.20617004066206276,20.807549560467738,-9.041511665398415,32.234293119031626
1761285822.2783885,-16.760266454848416,0.2830800155323818,1.1348895245313382,-0.24308222635810448,17.84612497822952,-5.782990941777759,35.39246963346951
1761285822.2883642,-16.176760986695808,0.2763629522349866,1.0859136978964885,-0.28029858123500895,15.526460856956161,-0.5977404619987439,38.37919043228376
1761285822.2985485,-15.585627345661054,0.24327292994678223,1.0433176745451718,-0.31595221093645287,13.80501590840672,6.076219701372422,41.03273213753822
1761285822.3085034,-14.996589006995121,0.18958219379595642,1.0081556124424114,-0.34830429680955344,12.583156019570891,13.649389577279104,43.24562458805555
1761285822.3183348,-14.41779442383632,0.12237261171328873,0.9802760790517002,-0.37586704790006153,11.733633997180204,21.463916901753148,44.96847060495088
1761285822.328349,-13.8552700280921,0.04905139327176423,0.9586760270782368,-0.3974449701765899,11.125381022712874,28.875626802539614,46.2034037427301
1761285822.3383443,-13.312682040307237,-0.023454431746971646,0.941905889643769,-0.4121375802775437,10.641900758744093,35.32517840146386,46.989984802676545
1761285822.3483512,-12.791391478347736,-0.08927047256444783,0.9284555866741608,-0.41935063043640125,10.191265609939153,40.39211600695887,47.38767244284586
1761285822.3583586,-12.290766119957118,-0.1439351124437849,0.9170658479246491,-0.41884017582580446,9.70833037273932,43.82862288170962,47.459113756270156
1761285822.3683558,-11.808698673323052,-0.18459545110742312,0.9069231101867887,-0.4107807647907503,9.15151702109886,45.57190015622888,47.25760067435781
1761285822.3783383,-11.342262320556404,-0.21007250676209663,0.8977161124578864,-0.3958244742623189,8.497100883165382,45.73551460642098,46.82056789160726
1761285822.3883998,-10.888414217314747,-0.22080097073050356,0.8895631190499239,-0.3751123984836432,7.733541004904315,44.58139130086296,46.16942505180633
1761285822.398349,-10.444644114513435,-0.21863495692391696,0.882851938933421,-0.3502142986355662,6.857487683524584,42.475841722764414,45.314667521173284
1761285822.4083667,-10.009468925231145,-0.20652104090945353,0.8780528527620745,-0.3229961069586228,5.872081610840038,39.83506245929378,44.26429216209432
1761285822.418355,-9.582698647325982,-0.18806592125118488,0.8755577441641209,-0.29543698547442543,4.787303304250535,37.06734853409213,43.0331325234467
1761285822.4284935,-9.165440643584423,-0.16705406908056727,0.8755748601511796,-0.26942999698863235,3.6215796771952666,34.52013225659451,41.650812439992485
1761285822.438427,-8.759858033223146,-0.1469868366077402,0.8780834555089251,-0.24660135492088117,2.403635223354115,32.439432518588994,40.166509063133994
1761285822.4483685,-8.368742203216781,-0.13071060171404036,0.8828365066857662,-0.22817491008366642,1.1736173008809865,30.94734658775134,38.649461871475225
1761285822.458457,-7.994990383094327,-0.1201805768769224,0.8893939081584151,-0.21489559131038646,-0.017282970212675584,30.040182817636882,37.18499324322016
1761285822.4684083,-7.641093149434634,-0.11637985125120098,0.8971698270040073,-0.20701294355236413,-1.1092278168894436,29.60633086040824,35.86657986007146
1761285822.4785483,-7.308733245212051,-0.11938842151023377,0.9054829790227389,-0.2043168417316783,-2.0383489856239723,29.45969117548823,34.78513942485694
1761285822.488362,-6.998575824699253,-0.12857489315788223,0.9136048039751702,-0.20621245825175433,-2.7434228262088536,29.382019814209,34.017123161942536
1761285822.4983494,-6.710290478155974,-0.14286222099940152,0.9208053673397567,-0.21181951619446718,-3.1740329591741134,29.166271801654286,33.61321800995707
1761285822.5084078,-6.4427899528805135,-0.1610014201099779,0.9263990654968762,-0.22008045285080075,-3.2992176185512636,28.653146468625554,33.589467479789384
1761285822.518359,-6.194610117111853,-0.18178270712318076,0.929792376257067,-0.2298630742383794,-3.1152327682787355,27.75456159885305,33.92240675360931
1761285822.5285523,-5.964308897730827,-0.20413027987121252,0.9305350431882007,-0.24004643928697084,-2.6508850672558912,26.460489142297426,34.54934622773676
1761285822.5385218,-5.750747552115517,-0.22706386557471292,0.9283743390217468,-0.24958476513718902,-1.969007744799314,24.828997887093706,35.374223074101806
1761285822.5483675,-5.55314461722089,-0.2495548145402373,0.9233088662030475,-0.2575522370164334,-1.1631090563598907,22.962775284559402,36.2785530143975
1761285822.5583725,-5.370854592606018,-0.27033974693475926,0.9156343806828443,-0.2631790304526928,-0.3489632700320014,20.978069015497333,37.13613270273123
1761285822.5683143,-5.2029013722233275,-0.2877688211209708,0.9059716538132805,-0.2658921853919371,0.34820804237831227,18.973293034020216,37.829472148770456
1761285822.578346,-5.0473694104213775,-0.29975723047773734,0.89526697590885,-0.26537193440264856,0.8094845009792158,17.004251908019736,38.26561139993462
1761285822.5883765,-4.900806456534537,-0.30388342131581975,0.8847586817605123,-0.26162491255984205,0.9388078211743437,15.071200245256069,38.38902154834159
1761285822.5983613,-4.7578094381616305,-0.29764320766591784,0.875906076269729,-0.25506306457997024,0.6778857871734497,13.120195073354715,38.18965269380864
1761285822.6083505,-4.6109449574774946,-0.2788320018760632,0.8702798242709215,-0.24656489296729917,0.01696121146121884,11.058051840940504,37.70479017318619
1761285822.6184251,-4.4510988259297415,-0.2459930637518488,0.8694171462556308,-0.23748784506403628,-1.0006580182723261,8.77740071093391,37.01414592790761
1761285822.6283705,-4.268261971998601,-0.19884309259954816,0.8746532260542654,-0.2296007206745106,-2.281661468093157,6.186438182837703,36.22848683688669
1761285822.6384115,-4.052658612386228,-0.13857517260419533,0.8869504053354822,-0.22491556630982043,-3.6936978818730593,3.237266513603687,35.47301300818729
1761285822.6483572,-3.7960328279079176,-0.06795181665015029,0.9067524711720437,-0.22541959462794955,-5.083309454228531,-0.052784373948234514,34.8675373209228
1761285822.6583526,-3.4928619889059553,0.008859041817592044,0.9338871595641697,-0.23273617762716575,-6.298578825405251,-3.5909912661058927,34.50613832421481
1761285822.6684144,-3.141280549264247,0.08669328526209727,0.9675290044109673,-0.24777359202278634,-7.2129258873865165,-7.212370112012331,34.439208069634574
1761285822.6783602,-2.7435714176866006,0.15997570539343658,1.0062262193331357,-0.27043983096770335,-7.745584311175263,-10.696119056849312,34.66059908539579
1761285822.6884038,-2.3061831995360365,0.2233766504442759,1.0479925911684445,-0.29949845960837446,-7.87440245740025,-13.793239623194253,35.10191976217644
1761285822.6984835,-1.8393206030781073,0.2724306169732293,1.090461646847571,-0.33261022411853236,-7.638179869416231,-16.26106926046676,35.63507384578743
1761285822.7083523,-1.356207938347777,0.3040239129433103,1.1310919233293653,-0.3665597777468163,-7.128393955057276,-17.898739495056645,36.083050806040845
1761285822.7183971,-0.8721401413600105,0.3166885204868259,1.1674049128720743,-0.39762589372175244,-6.47278956103019,-18.57700313387378,36.237873650626156
1761285822.728385,-0.40342527665117917,0.31067721766350265,1.197234322588628,-0.4220298817540462,-5.814888797850978,-18.256876742966572,35.883591348101525
1761285822.7384474,0.03369589725867469,0.2878326018913678,1.218960144381016,-0.4363919402130693,-5.293734165658872,-16.993862796341233,34.82137392700578
1761285822.748362,0.4240814111203948,0.2512893370567304,1.2316900649710794,-0.43813305550669535,-5.027412872963303,-14.927446335084438,32.893286993184844
1761285822.7584333,0.7546035941048498,0.20506078613360817,1.2353436369470254,-0.4257741940062867,-5.102610216362285,-12.258369104574639,30.001359969472443
1761285822.7684805,1.014881172587206,0.15356374253250488,1.2306056228104263,-0.3991005440174183,-5.570995336845824,-9.218329614604006,26.119209805252304
1761285822.7784953,1.1977630319018564,0.10113626293347905,1.2187473342677397,-0.3591748150696805,-6.451891607516347,-6.037920502963383,21.29466774910531
1761285822.7884614,1.2995131181264474,0.05160579005015029,1.2013562160435192,-0.30820092166387614,-7.73956613544814,-2.9186347505958206,15.643351791560558
1761285822.7983825,1.319677779397919,0.007962507233522308,1.1800443041600548,-0.24925916651311927,-9.412716093689808,-0.013627251820471689,9.334614321470236
1761285822.8084772,1.2606639441232887,-0.02782060439753541,1.1562106270036838,-0.18595469834551007,-11.44349277736545,2.580209032707233,2.5724460377303173
1761285822.8183978,1.1271065316351985,-0.054805493309191156,1.1309098783845817,-0.12203639048635578,-13.803798987023049,4.818932920948806,-4.4255034340841215
1761285822.8283832,0.9251374761844523,-0.07296155990725801,1.1048413329753313,-0.06104580980006806,-16.467548301058894,6.699540248260959,-11.447685829682584
1761285822.8383946,0.6616728530277708,-0.08293861885188299,1.0784344791177916,-0.0060424001635163834,-19.408806855484602,8.243357778458392,-18.304713898799335
1761285822.8483686,0.34380980172960834,-0.0858008694229132,1.0519843393768502,0.040574038758066616,-22.596887830552145,9.479350462745591,-24.840262346794862
1761285822.8583648,-0.021615914961068038,-0.08278065984954323,1.0257852029172034,0.07714865641655202,-25.990231382582255,10.431155359251024,-30.936521465139556
1761285822.8683863,-0.4283036689371866,-0.0750968037995184,1.0002238792967966,0.1027868238974982,-29.53110490025847,11.110244743675052,-36.51492001869997
1761285822.8784127,-0.8706197193664997,-0.06386177616531437,0.9758150085564493,0.11732493649471563,-33.14278006940322,11.51588428860579,-41.53343520009889
1761285822.8885171,-1.343633920603455,-0.05007881441840479,0.9531824223924686,0.12127426084986957,-36.73003182264457,11.640839235351983,-45.98192159311932
1761285822.8983858,-1.84311162160481,-0.0347072114537737,0.9330050811004842,0.11574315573911814,-40.182865742209195,11.480421019605991,-49.8766122115285
1761285822.9084024,-2.365499662056606,-0.018757122724100232,0.9159510838297037,0.10233469458797935,-43.38265834651381,11.041746828401969,-53.2544887937654
1761285822.9183877,-2.9079255599299065,-0.003369105433898487,0.9026195887511584,0.08301646772851264,-46.209576348188975,10.350169557353778,-56.1677901381022
1761285822.9283783,-3.468207789453965,0.01015953974061191,0.8935007512676392,0.059965604162622435,-48.55018381894715,9.450700719765896,-58.67863790841794
1761285822.9384332,-4.044858766649057,0.02042165795286755,0.8889520354919032,0.035399643942101336,-50.3043816944805,8.403661980261827,-60.85365420436179
1761285822.9483743,-4.637055292255546,0.02601685410034391,0.8891806144392915,0.01140815682895443,-51.391097716057004,7.275358167209447,-62.758528260734025
1761285822.9583695,-5.244555141422187,0.02571281099926757,0.8942197418066635,-0.010199991561562373,-51.75237657029943,6.1258218537431155,-64.4527048370996
1761285822.9684,-5.86755070090832,0.018614528478222588,0.9038920476953285,-0.028020685655449663,-51.35569453218274,4.996342582973853,-65.98460618282438
1761285822.978378,-6.506465707193028,0.004306769189380502,0.9177619207504475,-0.04113825374407534,-50.1944645254825,3.8995151683035476,-67.38795972844567
1761285822.9883897,-7.161713971507474,-0.017051977690296524,0.9350890324343859,-0.04915841062096087,-48.28684321104313,2.8140607697864555,-68.67982546203959
1761285822.9983852,-7.8334468362663054,-0.04469064799064629,0.9548023401578873,-0.052183991495244365,-45.67311907143434,1.6858784919524303,-69.86077594742886
1761285823.0084074,-8.52131925396995,-0.07724014986973862,0.9755154409329312,-0.05073571278279277,-42.41212983720274,0.4357935525109517,-70.91738171578523
1761285823.0183709,-9.224304205412661,-0.11279990849166438,0.995598203107086,-0.045631559862228235,-38.577283699506324,-1.0266671416144633,-71.8267403995217
1761285823.028366,-9.940582236530163,-0.1490589568784327,1.01330745192206,-0.037846978902623674,-34.25279031243836,-2.7853195849465973,-72.5623503005025
1761285823.0383823,-10.667526279558205,-0.18347499185598232,1.0269648192540801,-0.028379926073547605,-29.530606710919326,-4.898034836321204,-73.10028833151513
1761285823.0501974,-11.401790097427483,-0.21350856163500612,1.035156525090001,-0.018140369671317543,-24.508380743001737,-7.379527142827351,-73.42451826064219
1761285823.05837,-12.139491899186595,-0.2368960069496804,1.0369206651420173,-0.00787586869448042,-19.28840363611279,-10.189586016960705,-73.53027809057599
1761285823.068409,-12.876467152210736,-0.2519281663564329,1.0318850436503368,0.0018637023908990324,-13.97734399107151,-13.229461171050263,-73.42484917457372
1761285823.0794578,-13.60855216179167,-0.2576896183275141,1.0203251180594328,0.010726120368368543,-8.686361312347072,-16.347923469236587,-73.12550771878864
1761285823.088407,-14.331854603376204,-0.25421157756626706,1.0031273979687259,0.018529668867647658,-3.5310853215659743,-19.35698223454679,-72.65497493626246
1761285823.0983949,-15.042967307057973,-0.24250183866619726,0.9816641942924752,0.025219698874024466,1.369124738110268,-22.055586022862254,-72.03509073678995
1761285823.1084597,-15.739086982884077,-0.22443499523836596,0.9576034913824049,0.03082164755524756,5.893273901966998,-24.258158596459122,-71.27967936609896
1761285823.1184366,-16.41801166371401,-0.2025119632732411,0.9326878207015338,0.035403375586318765,9.92277832363358,-25.82376464954825,-70.38768319562372
1761285823.1283903,-17.078009126798147,-0.17952440393059177,0.908517831109082,0.0390552762182391,13.34784057437154,-26.68121409655471,-69.3376715026147
1761285823.138559,-17.717571019339516,-0.1581798600474867,0.8863710368345535,0.04188783264266548,16.076074906509426,-26.84561264844366,-68.08479432069157
1761285823.1484435,-18.335090609847672,-0.14075150679705706,0.8670756296681802,0.044037820873149565,18.042724368769434,-26.42283540292289,-66.56109930519374
1761285823.1583939,-18.928522036119855,-0.12881092981352452,0.8509469236314328,0.045671152945719,19.22127186274105,-25.600104282392568,-64.67982180745604
1761285823.1683772,-19.49509106731171,-0.123085219198249,0.8377846974769665,0.04697330080135954,19.632870080937654,-24.623038083821374,-62.34380443594925
1761285823.1783931,-20.031127565754296,-0.12345470882237052,0.8269254683735034,0.048124646606460986,19.352868974390454,-23.761785105203007,-59.45763236272773
1761285823.188901,-20.53207580260672,-0.12908103956948963,0.8173426684071377,0.04926486064750481,18.51284748799222,-23.270701580796526,-55.94242045227106
1761285823.1984227,-20.99271196107306,-0.13863404107622193,0.8077866963201582,0.05045540652466379,17.296974413815093,-23.34720608499176,-51.75153691455989
1761285823.2084246,-21.407563548333147,-0.15057447351289605,0.7969549351526064,0.05165120030874628,15.932205602553724,-24.09579290997279,-46.88502227901058
1761285823.2183797,-21.7714892484086,-0.1634474833252983,0.7836804167749646,0.05269100227956305,14.672686549564347,-25.502724720204146,-41.400193165790085
1761285823.228468,-22.08034514934592,-0.176145412434594,0.7671273971580402,0.053312239573702215,13.779596262998844,-27.425737250014684,-35.416021319809076
1761285823.2384176,-22.331638634383115,-0.18810553174073288,0.7469807698064984,0.05319084499099236,13.498319989645061,-29.601327384017054,-29.109438172517336
1761285823.2484388,-22.525059520338417,-0.19941770376922655,0.7236123318793586,0.05200061634342518,14.03515405282628,-31.670043797796918,-22.702754030783346
1761285823.2583878,-22.662784035512363,-0.21082856191998084,0.6982018814278954,0.04947930651619006,15.535790326490277,-33.217874038931924,-16.442803191510894
1761285823.268404,-22.749472629383142,-0.2236398069697096,0.67278833113204,0.04548169748989096,18.067752202345837,-33.82956871068503,-10.57402608004864
1761285823.2783928,-22.791924483969723,-0.2395057282176886,0.6502274199697478,0.039998497063669286,21.608825598232766,-33.147804178424366,-5.30917960235032
1761285823.2884133,-22.79840354539604,-0.26014077699237365,0.6340377084394142,0.0331299612907574,26.043263443184728,-30.93070332107539,-0.8023376120126343
1761285823.2983773,-22.777704827015203,-0.28695748675968374,0.6281244728601931,0.02502375022050526,31.16697478152518,-27.09967511746917,2.871073063724853
1761285823.3083854,-22.738076961950217,-0.32067050826287863,0.6363821388098462,0.01580673925161586,36.70193237739414,-21.770034634952143,5.723413555332727
1761285823.318403,-22.68614870130237,-0.3609192333788281,0.6621908455983071,0.005547390872063687,42.31871255381131,-15.258520035319602,7.851214136102532
1761285823.3283772,-22.626015552655833,-0.4059719816719509,0.7078425446087238,-0.0057257932716827335,47.66467607947011,-8.064501018796511,9.41923511297396
1761285823.3383899,-22.558624118251107,-0.452575114660154,0.7739574441350882,-0.017948729939466012,52.394190232624965,-0.825015079983024,10.635031348121657
1761285823.3484077,-22.48154847767433,-0.4960018761927325,0.858980748676135,-0.030917790360276188,56.196902066062904,5.752711498892546,11.718657916242103
1761285823.3584604,-22.38919451246067,-0.530342069705396,0.9588753640022208,-0.04421125042496614,58.82073396929811,10.974385512316571,12.8729402937211
1761285823.3701673,-22.273407758187417,-0.549056892879433,1.0671368871281317,-0.05719875864768455,60.08798456785505,14.248047495967795,14.25930707337194
1761285823.3784368,-22.12441033318322,-0.545797965679803,1.1752395845288146,-0.06918210084593603,59.90510237104799,15.168889757892535,15.982669540436843
1761285823.3884647,-21.931958471551965,-0.5154430049425661,1.2735635384481128,-0.0796594667245676,58.268239475955916,13.588113706296486,18.086639968818016
1761285823.3984199,-21.686592668159374,-0.4552239254973441,1.3527448346051658,-0.0886361860553183,55.26649693603091,9.654750211539591,20.55811692432859
1761285823.4084458,-21.380843151575377,-0.365728254736234,1.4052400572985828,-0.09685037013303449,51.0826500955013,3.8207034992923323,23.33852126658684
1761285823.418384,-21.01025262456963,-0.25148369562430267,1.4267487259096954,-0.10578136531999886,45.988269703684914,-3.1974334029077474,26.338103627296427
1761285823.4283876,-20.574088398047273,-0.12085123079683285,1.417078926384135,-0.1173812440686908,40.32860228689974,-10.499962031418733,29.44988620244191
1761285823.438473,-20.07564188717707,0.014901229544046947,1.3801507159058768,-0.13358870678539392,34.49399875813354,-17.12012587838863,32.560893673029604
1761285823.4484265,-19.522058747272407,0.1432228985731442,1.3230991265372998,-0.15578629683246822,28.878995788850514,-22.156185762718454,35.56003468801433
1761285823.4584513,-18.923706791324214,0.25223859949763616,1.2547418179122,-0.1843878851845901,23.835318774344575,-24.895260612048727,38.34361756545408
1761285823.4684024,-18.293161646753354,0.33256983453878625,1.1838634125559655,-0.21868579185304418,19.628443511889813,-24.905722888149104,40.820245302622865
1761285823.4784205,-17.643953838754353,0.37861575723459645,1.1177661604931561,-0.256983942413971,16.407379331005156,-22.082742057748508,42.91639180376126
1761285823.488405,-16.98925766488149,0.38908131510892374,1.061381419057848,-0.2969445152509711,14.194153322993245,-16.642759523973517,44.58263464247168
1761285823.4986718,-16.340704750779615,0.36674977263710534,1.0170244488965046,-0.3360169299909454,12.894417700764304,-9.073103113866484,45.799077580856
1761285823.5088315,-15.707478598747356,0.31765261999625594,0.9846944989173956,-0.3718164538085816,12.325470677988172,-0.04990492342300686,46.577732265019634
1761285823.5186124,-15.095799695646207,0.24986993101694005,0.9627173720365585,-0.4023680534376618,12.254347847133927,9.659720526522047,46.95998785019201
1761285823.528509,-14.508851077348897,0.1722096537339417,0.9485034543527943,-0.42620101002980987,12.437351149005393,19.295875009887034,47.008668552789885
1761285823.5386896,-13.94712905747587,0.09298316486427434,0.9392351907882819,-0.4423377650846572,12.653466129121693,28.191708590706266,46.79596322769996
1761285823.5488265,-13.40914269608246,0.01903571716412589,0.9323762846967275,-0.4502449466473893,12.726954501767018,35.8376063088035,46.38994782544336
1761285823.5588517,-12.892337923673185,-0.0448760394890687,0.925974875323091,-0.44980247751919744,12.537922363093957,41.918109212173924,45.84295751519525
1761285823.5684314,-12.394094147248016,-0.0963278010744276,0.918786736895285,-0.441311346735895,12.022643379435374,46.319633152134294,45.18455892354065
1761285823.5789418,-11.91263511190292,-0.1351119383544388,0.910265518182824,-0.4255232816676273,11.167006174766499,49.11077161966766,44.42059239667963
1761285823.58872,-11.447712177714868,-0.16282483352862995,0.9004663321495299,-0.4036540480480268,9.996533483013996,50.500516814361504,43.538206812032925
1761285823.5984159,-11.000955503563555,-0.18225472166911957,0.8899008394663329,-0.37734315638293864,8.565525686649282,50.78255121596262,42.51548757074462
1761285823.60841,-10.575841528600579,-0.1966891073305538,0.8793735262159885,-0.3485415637186036,6.946755736355662,50.275264098081294,41.33346129801968
1761285823.6183927,-10.177284016734212,-0.20926115401426348,0.8698208044428805,-0.3193344199905354,5.222297646104571,49.26705001169523,39.987986314878825
1761285823.6287508,-9.810910705077921,-0.222431915287776,0.8621663956172414,-0.29172721421089054,3.4756536253556995,47.97483516199929,38.4992140589275
1761285823.6383893,-9.482131663770604,-0.23766840443590467,0.8571994475886145,-0.26743442625373254,1.7852450348372424,46.52100924258353,36.91682347881772
1761285823.6492372,-9.195135715722891,-0.2553385422317015,0.8554776280983674,-0.2477086735618604,0.21935025510961056,44.93053033210988,35.319985414712455
1761285823.6584287,-8.951965559490805,-0.274810262157391,0.8572561714128648,-0.23323792039828486,-1.1674440952313805,43.14650278374231,33.81189042056167
1761285823.668443,-8.751817795467753,-0.2947143400019778,0.8624444943532741,-0.22412307599946432,-2.33630277729975,41.05957338035465,32.50953934153253
1761285823.6783946,-8.590687917685717,-0.3133081737989115,0.8705933548847699,-0.2199327400758154,-3.264854199612444,38.54452473389084,31.530225749829746
1761285823.6883903,-8.461431899761658,-0.32886316436532625,0.8809161549903912,-0.2198193494747619,-3.9467781991577713,35.49675796180899,30.97663920277832
1761285823.698606,-8.354250350277326,-0.33999687510868043,0.8923463384440324,-0.22267339118333168,-4.390498808083918,31.861987959859206,30.922736184271688
1761285823.7083945,-8.257530426579152,-0.3458865644956373,0.903628623059841,-0.22728989357601564,-4.617145819174763,27.654217994255745,31.40243552387999
1761285823.7184086,-8.158920452196988,-0.3463305625685118,0.9134366916845367,-0.2325232259464766,-4.657855025537736,22.95954373725715,32.402792163711794
1761285823.72839,-8.046475115457485,-0.3416596326998042,0.9205063264225944,-0.23741124398812957,-4.550417952536156,17.92609407196604,33.86263909978404
1761285823.7384076,-7.909701011047714,-0.33253199583573934,0.9237721456636248,-0.24125697179030986,-4.335316925772892,12.742936217959896,35.676887887519925
1761285823.7484972,-7.740353635578931,-0.31966704541240076,0.9224974741968224,-0.24366418632014142,-4.0513087579189815,7.6126074785050815,37.70589218957236
1761285823.7589166,-7.532885376010911,-0.30358256857886057,0.9163883801407964,-0.24453148234624097,-3.7309299908171436,2.7228178938402445,39.788620227273
1761285823.7684124,-7.284512914143965,-0.28439903196629474,0.9056827401224267,-0.24401670321376,-3.396522301938414,-1.7772923817363555,41.757926976215394
1761285823.7784698,-6.994948298115814,-0.26176217847772304,0.8912033162044419,-0.24248823696010946,-3.057517064344959,-5.79211519313268,43.456017653896176
1761285823.788471,-6.665902125891814,-0.2349118808069577,0.874362003425434,-0.240479041633525,-2.7096792634662767,-9.283458814555495,44.748264029209956
1761285823.7993433,-6.30050305919933,-0.20289340409010795,0.8571027459451251,-0.23865230043279143,-2.336760014837217,-12.26333805581195,45.53384382338403
1761285823.8084385,-5.902776176062848,-0.1648726978444425,0.8417742912603297,-0.23777655786198998,-1.9145967420315597,-14.777807042696972,45.75216946591915
1761285823.8184786,-5.477284182294819,-0.12048808821855732,0.8309312970620245,-0.23869766844390425,-1.4172426960956581,-16.885602839281567,45.38469492872475
1761285823.8284993,-5.028971584651059,-0.07015560170678713,0.8270733487995533,-0.24228973564596706,-0.8243103342903412,-18.636220079439298,44.45235081065471
1761285823.8393393,-4.563183034837078,-0.015250347684905298,0.832345260317511,-0.24937067200074187,-0.12843130360099403,-20.051995104536275,43.00943008961237
1761285823.848502,-4.085774416721154,0.0418891729428578,0.8482356830040368,-0.2605797524928705,0.6584145592807111,-21.117869496374443,41.13509440072812
1761285823.858466,-3.6032110701547237,0.09815131796108872,0.8753200246327787,-0.2762300642925606,1.5009410687742406,-21.78089634378089,38.92372768416782
1761285823.8684103,-3.1225542418454566,0.15001494879033878,0.9130939301567336,-0.2961621392089268,2.3399899322917417,-21.959542215993203,36.4751794881125
1761285823.878405,-2.651272610376439,0.19402823674143108,0.9599332842440178,-0.31963224357720316,3.0959129735288218,-21.560801776918012,33.88563730331255
1761285823.888396,-2.1968740541191982,0.22731409114063697,1.0131968903406225,-0.34526788797861435,3.6757741275776485,-20.501490820146337,31.239574623087865
1761285823.8984087,-1.7664170608365717,0.2479998218563838,1.0694634513693817,-0.37111339514126146,3.9834614451970447,-18.729200350591334,28.60303838117125
1761285823.908426,-1.366007952272769,0.25548108263368136,1.1248732345810146,-0.3947714412655152,3.9311148219124514,-16.23854262899474,26.018513273445116
1761285823.9183927,-1.0004030077938066,0.2504695004280722,1.1755323919478484,-0.41362751518475566,3.4498966811707095,-13.079502054590014,23.501691141025532
1761285823.928424,-0.6728123391976814,0.23482632213265608,1.2179321117195465,-0.425129574284566,2.4981973865613756,-9.35656894055158,21.040555084092396
1761285823.9384198,-0.3849548595701049,0.2112303353180902,1.2493302103130803,-0.4270880118706117,1.0658746809882564,-5.219304201204971,18.59713069300829
1761285823.9483953,-0.13735525560553752,0.1827538046820618,1.2680401689034624,-0.4179596300289487,-0.8260650216227979,-0.8465402608681657,16.11202469600882
1761285823.9584706,0.07018033604565894,0.15242570302561137,1.2735791964432976,-0.39707965702133685,-3.1300407960908125,3.572693484368863,13.51152357455529
1761285823.9684625,0.23801073284530494,0.12285421310245583,1.2666476762625598,-0.36480695949797526,-5.779635199453665,7.8582349668578635,10.716644407680473
1761285823.9784863,0.36614282644491397,0.0959643347594758,1.2489441877245986,-0.3225533471790919,-8.698860387806846,11.854921786175668,7.653187248385986
1761285823.9884489,0.4538551816056392,0.07288206462050181,1.222854145602071,-0.27268206293853897,-11.811126612294284,15.443660001815731,4.261596257449524
1761285823.9984536,0.49953398932311077,0.05396698176885176,1.191076023428318,-0.2182814896176885,-15.046305751090133,18.546401366843824,0.5053592585291937
1761285824.008443,0.5007480297996973,0.03896696519432073,1.1562591902923585,-0.16284190013054275,-18.344845415077348,21.125242936391338,-3.6231848326874174
1761285824.0183985,0.45454087190443326,0.027248600681753776,1.1207180902293032,-0.10988020265476714,-21.658625055323135,23.176958196224653,-8.100397481848676
1761285824.028429,0.3578772084870051,0.018047542377266027,1.0862620024407936,-0.06256644926789541,-24.948953106328098,24.724921489227334,-12.87249571593152
1761285824.0384088,0.2081542711707201,0.010684895225008578,1.0541469100451275,-0.02340453651807635,-28.18261592562034,25.810449856690028,-17.859999311982424
1761285824.0484123,0.003682678978782521,0.004707418940472461,1.0251271138850528,0.005991190342434681,-31.32711692677116,26.485141444291344,-22.964717534079348
1761285824.058416,-0.2559475222071482,-7.144159465973462e-05,0.9995678255044365,0.024998588316634922,-34.34619989333912,26.80508710518162,-28.07831170958179
1761285824.0685663,-0.569675559384196,-0.0036299088476863155,0.9775785616701499,0.03396419311075273,-37.19651236568833,26.827126655766634,-33.09147382064448
1761285824.0784318,-0.9349817840103183,-0.005873976231897227,0.9591365693025948,0.03406718709162587,-39.825929923845585,26.606761172703415,-37.902842902029164
1761285824.0886385,-1.3480971000182835,-0.006812584055379718,0.944182557584036,0.027100352867861773,-42.173725937990184,26.196966231836363,-42.426823785594955
1761285824.0984826,-1.804372224381728,-0.006723808047684521,0.9326819765120832,0.015206699846415442,-44.172511278888045,25.646989025628617,-46.59949554411775
1761285824.1084068,-2.2987433518564333,-0.006264701964182255,0.924651683961985,0.000611203157640995,-45.7517096661862,25.00026819276138,-50.38190280665165
1761285824.11843,-2.8262160265761587,-0.006489280091493889,0.920154661710458,-0.014618944460463025,-46.8422410060355,24.290904826199846,-53.76027510008532
1761285824.1284034,-3.382287840501981,-0.008759983518735092,0.9192663961816234,-0.02876125089002907,-47.38200569964129,23.538626537365214,-56.7431081158908
1761285824.1384268,-3.9632430706767354,-0.014562669539020818,0.9220177841185758,-0.040557137156945505,-47.32167506614044,22.742849339795413,-59.35551793387315
1761285824.1484516,-4.5662761308328115,-0.025257368530236576,0.9283224346798281,-0.04925781287796824,-46.63019916356088,21.877096401946993,-61.63175871547856
1761285824.158435,-5.189431301991269,-0.04181128243945212,0.9379009221510011,-0.05460036592393465,-45.29935939815121,20.885474915261405,-63.60716106765027
1761285824.1684237,-5.83137814002813,-0.06456427205655642,0.9502189336690946,-0.056726212121226666,-43.34666122968047,19.682985601242006,-65.31090659813057
1761285824.1784225,-6.491070044334917,-0.0930716942220926,0.9644574504918909,-0.056061149097896404,-40.81594516055775,18.16109246677606,-66.76095542062347
1761285824.1884165,-7.167353529679924,-0.12605779112909185,0.9795292427564394,-0.0531810916800408,-37.775340231682414,16.19923393290417,-67.9620858581085
1761285824.1984375,-7.858604653602049,-0.16149678571465934,0.9941475515368529,-0.04868872614664603,-34.31259407338308,13.681862335029047,-68.9074376488072
1761285824.2084196,-8.562464760395924,-0.196819020529899,1.0069420420498254,-0.043121726746102,-30.528326519866948,10.519284151317388,-69.58326426271012
1761285824.2184544,-9.275729732642214,-0.22921710848097737,1.0166064585391357,-0.03690287942969224,-26.528245996480166,6.669296893195053,-69.9759196091067
1761285824.2284038,-9.994417532668926,-0.2560061385225185,1.0220543072685608,-0.030330674418672505,-22.41567128721885,2.1557288633112766,-70.07956821231352
1761285824.2384093,-10.714003537486327,-0.2749788345651129,1.0225553183465406,-0.023600969853475914,-18.285664207910052,-2.920194320071268,-69.902842149855
1761285824.2484202,-11.429779575244055,-0.28469617486130655,1.017827334303578,-0.01684758379570224,-14.22166169568725,-8.379021257882643,-69.47275000770078
1761285824.2584147,-12.137267659503376,-0.28466681619335016,1.008065393914704,-0.010189392805299157,-10.294822614504481,-13.97456871076209,-68.83458176963816
1761285824.2683976,-12.832607875880331,-0.2753907275559966,0.9939012807503074,-0.0037713120131465526,-6.565591916050591,-19.417343616644782,-68.04729445600202
1761285824.2784216,-13.512843533559675,-0.25826714560367336,0.9763015148779586,0.0022127510308299994,-3.086431835279051,-24.407174013427905,-67.17479246659431
1761285824.2884493,-14.176044584882408,-0.23538801947910842,0.9564266996226403,0.007522981140804024,0.09558234205899147,-28.67035627628488,-66.27445025697763
1761285824.2984324,-14.821239213678203,-0.20925252108045111,0.9354844248727433,0.011903360285514203,2.9374888638853855,-31.99545406766663,-65.3849316127801
1761285824.3084252,-15.448158776673985,-0.1824468252647373,0.9146062835101618,0.015130187318989186,5.401233549030914,-34.261824673682696,-64.51565065744597
1761285824.3184154,-16.056837596138283,-0.15733802583129713,0.8947675953199046,0.017066073782792134,7.456648077152468,-35.45604357562,-63.6400397670457
1761285824.3284118,-16.6471405678965,-0.13583090465999917,0.8767523732640264,0.01770558097668496,9.086090752441377,-35.673405156442016,-62.69421566421688
1761285824.3384886,-17.218311878106466,-0.11922713392396388,0.8611523887792341,0.017202104797057634,10.289728622158295,-35.10418106765635,-61.58180484293313
1761285824.3484058,-17.768641539000246,-0.1082049479439521,0.8483815610187724,0.015870036153592136,11.090164927842512,-34.006822819447194,-60.18474525246404
1761285824.3584225,-18.295330001092115,-0.10290686465912847,0.8386865416595893,0.014160135623138115,11.535092189654522,-32.67231032468533,-58.378954562176375
1761285824.3684258,-18.79459687045905,-0.10309472047356974,0.8321403200574137,0.012610361358745697,11.696884150118475,-31.38500820538512,-56.0529717694831
1761285824.3784661,-19.262034718313704,-0.10831644990535268,0.8286150970331981,0.011779485807119166,11.668525468309127,-30.385528117323624,-53.12714872792538
1761285824.3884282,-19.6931624956234,-0.11803246523042871,0.8277403744742138,0.012174753049989133,11.55596683799171,-29.840259327881977,-49.57075449100382
1761285824.3984594,-20.084094256108028,-0.1316690153583287,0.8288596883121695,0.01418564125001782,11.467753829777774,-29.820726019019563,-45.414453504630764
1761285824.4086113,-20.43221452752874,-0.14859474494634003,0.8310034414294,0.01803393893549395,11.503427326785353,-30.29424994052747,-40.755983169673016
1761285824.4184031,-20.736745127865643,-0.16804551981817634,0.8328963308506938,0.02374690703595382,11.742575804243007,-31.125991488334574,-35.757455595122096
1761285824.4284186,-20.9990997647411,-0.18904287354396374,0.833016727099135,0.03115522143145019,12.236449074150944,-32.091523030703456,-30.633540795184025
1761285824.4385288,-21.222950526866185,-0.21035828159338635,0.8297214012310958,0.03991093657600796,13.003703569808645,-32.89861975885196,-25.630844645857653
1761285824.4484367,-21.413971100728936,-0.2305677066709004,0.8214409808294643,0.04951502169152092,14.031204033502581,-33.21674301727911,-21.000037450500706
1761285824.4584415,-21.579270713371983,-0.24821937363270793,0.8069395478045438,0.059342052416003835,15.27998896972992,-32.71247239922546,-16.96364415036939
1761285824.46843,-21.726584022542305,-0.2621052133906322,0.7856169937251568,0.06865304849067362,16.695648227590784,-31.088681321784843,-13.683690426203631
1761285824.478576,-21.863326371878607,-0.27158911139850767,0.7578164650661586,0.07659553705550214,18.221542645948333,-28.124486843225174,-11.234266744829489
1761285824.4884586,-21.995650415786088,-0.27691327535650584,0.7250839012986418,0.08220048031115508,19.812612033373245,-23.71213124246034,-9.584130344594088
1761285824.4984334,-22.12764088358907,-0.2793885295838032,0.6903165645020604,0.084396443509572,21.44711917682964,-17.886336238955117,-8.593458478357757
1761285824.5084333,-22.260757421067137,-0.28138169853459233,0.6577375729832565,0.08206894102183562,23.133686900252474,-10.84165199643885,-8.026830040423418
1761285824.5184674,-22.39358688538829,-0.28604351222605884,0.6326473369040491,0.07419065935479684,24.911425029501718,-2.934053027236497,-7.581807112520689
1761285824.5284588,-22.521908322201316,-0.29676910598723344,0.6209304495015798,0.060029098424279254,26.841801725256065,5.3355523129915,-6.929671776402728
1761285824.5389326,-22.639022387019335,-0.3164445248665261,0.6283343277669076,0.03940266341401115,28.99221799584892,13.35634894045403,-5.762513241283357
1761285824.5484936,-22.736268000880152,-0.3465993188422292,0.6595791328414568,0.012917245879674443,31.413008078045646,20.459568330900378,-3.8394147516809953
1761285824.5585408,-22.80364958661201,-0.38664278247503564,0.7174036890432607,-0.017907077825370547,34.1116469354747,25.983748952126227,-1.0242516603574712
1761285824.5684965,-22.830520319627198,-0.43338635852482965,0.8016949034317795,-0.050699068393747805,37.02981650063649,29.347779471342886,2.6913428862084205
1761285824.5784838,-22.806291428412905,-0.4810265171070868,0.9088805280566455,-0.08252252166043496,40.02988528215341,30.12437851057258,7.184104977387474
1761285824.588476,-22.72114811261158,-0.5216808125050401,1.031774062991629,-0.11035147389083509,42.896517655984105,28.105087804027026,12.215615857218642
1761285824.5984569,-22.566746579988646,-0.5464586954028359,1.1600290458320617,-0.13163819759951514,45.35629933396284,23.34700410706509,17.46700413171385
1761285824.6084545,-22.336854855168117,-0.5469373206213187,1.2812722335744344,-0.14484615331765197,47.11406684393163,16.19205806427676,22.58653028956254
1761285824.6187418,-22.02789511242244,-0.5168152833798234,1.382838084970639,-0.14982729226732747,47.90031448672811,7.252213559288251,27.242186447096675
1761285824.6284463,-21.63935124672673,-0.4534359969957106,1.4538401148728313,-0.14795734605655317,47.520820880980665,-2.6416103715008954,31.17011614517146
1761285824.6384249,-21.17401607158643,-0.35882208872903665,1.4871397148430454,-0.14198422993166046,45.89818979233626,-12.52361505794808,34.20997054759569
1761285824.6484497,-20.63805865101581,-0.23988812909945795,1.4806971735103482,-0.13558740408597686,43.095665874273564,-21.401320718415914,36.320566773137706
1761285824.6584234,-20.040889448636012,-0.10765252643387456,1.4378986459215952,-0.13270348546217023,39.31654111727497,-28.37397217043247,37.57330213479764
1761285824.6684356,-19.394793658515233,0.02445753587523334,1.3667458642524504,-0.13675009892927925,34.87750127522501,-32.74350830684009,38.12591711092662
1761285824.6784427,-18.714303573568138,0.14282595119146127,1.2781471826463378,-0.1499412321037791,30.160353227722407,-34.09939390903143,38.183863947679505
1761285824.6884377,-18.015303881019932,0.23584966299610738,1.1837956009622894,-0.17288053115991467,25.551995590932115,-32.36181379243479,37.95901134238401
1761285824.6984382,-17.313917177705157,0.29562123785040734,1.0941769336803056,-0.20453072985327359,21.385508652060913,-27.77559656775369,37.634806523672786
1761285824.7084265,-16.62529024790743,0.31879091306078816,1.0171345078412006,-0.24253360151111206,17.894812134786832,-20.85779709143525,37.34384796246587
1761285824.718445,-15.96246128767297,0.30655717216817463,0.9571956861724004,-0.2837576021254381,15.19153643519565,-12.311455933786037,37.15960878009226
1761285824.728438,-15.335495352047403,0.2639383113695172,0.9156318816997693,-0.32490941674720014,13.26680049017096,-2.9235578900619776,37.10035142629817
1761285824.738487,-14.751018630081838,0.19859024761018748,0.891059487144834,-0.3630568000952288,12.01442297218087,6.53435957924579,37.1410516864952
1761285824.748436,-14.212189859146537,0.11945796724694327,0.8803264620775699,-0.39596017625314106,11.267520605604954,15.388246029444414,37.22864726998852
1761285824.7584727,-13.719060931795568,0.03550245033354896,0.8794478947164074,-0.4221828948683938,10.838529337138647,23.117606558151454,37.29680883816138
1761285824.768446,-13.269223345492916,-0.045334398365917676,0.8844159265631854,-0.44101950344500873,10.553599690325855,29.383290963617746,37.2780233634832
1761285824.7785764,-12.85861471248914,-0.11684423310591287,0.891784781790869,-0.45232320847100516,10.275459372576794,34.029540030610676,37.112356244671915
1761285824.7886624,-12.482360549931645,-0.1749260795380432,0.8990012189753743,-0.4563182992696472,9.912997213635022,37.06554193360078,36.753318126923865
1761285824.798456,-12.135541018575038,-0.2176435468571451,0.9045043996634614,-0.45345825941769624,9.41955396952141,38.63271184232061,36.171652571807925
1761285824.8084629,-11.813794449851528,-0.24501997571450396,0.9076520295373897,-0.4443526777945943,8.78407181919073,38.9638872628727,35.3577257746217
1761285824.8184357,-11.513697329759815,-0.25864443360380784,0.9085400541623779,-0.42975281926466985,8.019537434476307,38.34017599293958,34.32282560467423
1761285824.8284714,-11.232893196461255,-0.26116859261793285,0.9077751795520651,-0.41056660583735655,7.15208351612612,37.05045353934562,33.09933016181736
1761285824.838434,-10.969978891374026,-0.2557726802046103,0.9062426641042051,-0.38787006033009375,6.212578100313129,35.35746130632489,31.739532947507172
1761285824.8485246,-10.724191681911604,-0.24566988765690112,0.9048959061460926,-0.3628897109707385,5.231219336615782,33.47315277333257,30.312933697099016
1761285824.8586435,-10.494969838437685,-0.23370435382505167,0.9045837409343598,-0.3369436486421467,4.234832786675041,31.544538058595,28.901963531099156
1761285824.8684442,-10.281477674649649,-0.22207934888202807,0.9059249225556943,-0.31134391958636504,3.24618385524148,29.649982627846665,27.596327799971075
1761285824.8784294,-10.082189573943596,-0.21223016281583645,0.9092341071585671,-0.2872764967797837,2.284507653015843,27.80484524038927,26.486349283345444
1761285824.8886707,-9.894613355787463,-0.20483235758422794,0.9144985947542152,-0.2656837913839772,1.3665028629849298,25.974517892632154,25.655835886181073
1761285824.898463,-9.715203827540206,-0.19991576348631823,0.921400685048598,-0.24717629039983924,0.5071873338120383,24.092347642299163,25.17506744440179
1761285824.9084606,-9.53948120730739,-0.1970440043444003,0.9293769765377556,-0.2319944104791618,-0.2797524078562803,22.079607201363334,25.094501847103924
1761285824.918456,-9.362336280517265,-0.19551975292797863,0.9377027591255643,-0.2200305731747977,-0.9822149832982286,19.864697747003554,25.43974810312446
1761285824.928458,-9.178479254570478,-0.19458252340727622,0.9455872028992414,-0.21090758472727628,-1.5904016108523953,17.399127450590935,26.208245296172183
1761285824.9388664,-8.982971125831186,-0.19357306473896274,0.9522649770720945,-0.20409661062163695,-2.097709542242144,14.668445013436106,27.367935015243532
1761285824.948464,-8.771763407780286,-0.19204512049725944,0.95707311444627,-0.19905012704882696,-2.501470830532127,11.6971124186903,28.858049338608964
1761285824.958441,-8.542165680855573,-0.1898131406067038,0.9595071240379939,-0.1953237934398452,-2.803250294110845,8.547174520051472,30.59198320686431
1761285824.9684615,-8.293163183222502,-0.18693387732424796,0.9592553924936744,-0.192665157460977,-3.0085236503126405,5.311420708085534,32.46209410088288
1761285824.9785078,-8.0255194540971,-0.18362893913893485,0.95621439079464,-0.19105408893057832,-3.1257112427464464,2.102425613129037,34.34617804146784
1761285824.9885068,-7.7416212131349855,-0.18016295481332656,0.9504886561227239,-0.19068820679380252,-3.164728054811249,-0.9606728735000898,36.11530111183881
1761285824.9984329,-7.44505431886683,-0.17669883447991885,0.9423790920484706,-0.1919161812663751,-3.1353854291797743,-3.7655748671989913,37.642599954661904
1761285825.0084553,-7.139941489102843,-0.17315868110312355,0.9323616547826151,-0.19513240117656824,-3.046077973263585,-6.218345508877599,38.81257672890733
1761285825.0185063,-6.830121615000693,-0.16912414191924063,0.9210573172942378,-0.20065598688656594,-2.9031541779343883,-8.25131254031711,39.53028648991861
1761285825.0284636,-6.518297662093788,-0.16380910484839334,0.9091942030011017,-0.20862232142257234,-2.7111952633528613,-9.826166340625216,39.72966781218985
1761285825.038496,-6.205311957652667,-0.15612765939789994,0.897563579540345,-0.2189139458788225,-2.474168020590654,-10.931961084019708,39.38016143882209
1761285825.048486,-5.889711295691227,-0.14486104005699307,0.8869720194268221,-0.23114935369974482,-2.197162956228697,-11.578750610863374,38.49075951828642
1761285825.058558,-5.567731468825933,-0.12890189887597184,0.8781922547665213,-0.244734210776739,-1.8882626678592924,-11.78856874011832,37.110766526969265
1761285825.068485,-5.233761524029367,-0.10752948351524878,0.871915702292295,-0.25896328937614743,-1.5600520709602712,-11.586117510706439,35.326844435556275
1761285825.0784519,-4.88125276833106,-0.08065377246850115,0.8687104449611612,-0.27314809878843954,-1.230376644072482,-10.991644754055004,33.25633800499938
1761285825.0884857,-4.503936357371347,-0.048966625446314374,0.8689888160558373,-0.2867392669925537,-0.9221364879724611,-10.017976705020537,31.03736579603828
1761285825.0985355,-4.097131377678135,-0.01395473385911556,0.8729880226933225,-0.29941541086324897,-0.6621152902553632,-8.672599703681115,28.816618996018786
1761285825.108453,-3.658886238402158,0.022241450827382943,0.8807656796768484,-0.31111916905481135,-0.47902043787757226,-6.96432147988546,26.736126106605713
1761285825.1184916,-3.1907142280893397,0.057104402039379304,0.8922100783753392,-0.3220323579189399,-0.4010057581098987,-4.9127615556752025,24.920346277253373
1761285825.1284566,-2.6977594960885614,0.08810292242314728,0.9070627383803876,-0.3324933557587837,-0.45296285914692963,-2.558073949061596,23.464851903915406
1761285825.1384625,-2.1883484335891996,0.11307304649230979,0.9249486883776573,-0.3428706017033621,-0.6538490795948633,0.031897307986060074,22.427609660614113
1761285825.1484919,-1.6730170382228162,0.13054098932253974,0.9454082028337026,-0.35341622432731,-1.0143196389732063,2.7593656296017692,21.82353402471086
1761285825.158438,-1.1632221502780045,0.13992291163676318,0.9679225274872887,-0.36413069132515435,-1.5349615935751684,5.5005870647069965,21.622640903204243
1761285825.1684687,-0.6700095759255649,0.14156226619034448,0.9919268051102682,-0.37466930745479754,-2.205461250099028,8.11610241756155,21.751849404760808
1761285825.1784542,-0.20290727528804717,0.1366013407037173,1.0168076770461294,-0.3843130040303232,-3.0050255917818802,10.465889655294292,22.100300504191722
1761285825.188453,0.230757838109205,0.12671973574121076,1.041889736664697,-0.39201169783411316,-3.904269684842296,12.42692645238958,22.527930343956893
1761285825.1984484,0.626032663567095,0.11379966643188341,1.066420106562211,-0.39649343523890934,-4.86855020097964,13.909961287016325,22.876852508757516
1761285825.2085075,0.9800358081605535,0.09958967749214485,1.0895614159512728,-0.39642101254814843,-5.862408285741729,14.872236776176516,22.984807027358073
1761285825.2184503,1.2913171690732645,0.08543244611097923,1.110401810292263,-0.3905717865773955,-6.854491452638071,15.323587097222342,22.699562464328494
1761285825.2285469,1.5590724949262955,0.0721024232918073,1.1279887279052663,-0.3780151622772036,-7.822173446705537,15.324634467046918,21.892826220811514
1761285825.2386048,1.782412235976854,0.059772960376898596,1.1413907277654516,-0.3582635426086255,-8.7551355058171,14.977413743342824,20.47205078018549
1761285825.2484384,1.9598476864888377,0.04810754965338949,1.1497860081927829,-0.33137502029654103,-9.65738444028161,14.410232705151568,18.38861070173585
1761285825.2584858,2.089094123083962,0.036449192715781537,1.1525665061570767,-0.29799051673874627,-10.547497051089225,13.75958616983977,15.641209701538195
1761285825.2685359,2.167215629325309,0.02406623081299018,1.1494368168421754,-0.2592959300268424,-11.457219501011222,13.152324307566012,12.274025850710629
1761285825.2784572,2.1910625788081135,0.010403454621951911,1.1404844329952768,-0.2169112391575962,-12.42882613842658,12.691014534468398,8.369889111920353
1761285825.288678,2.1578923049979566,-0.004713129538581332,1.126204457253023,-0.17272173203939772,-13.511767590035204,12.444614387041314,4.039541322001187
1761285825.2984493,2.066027559368645,-0.020959088862721038,1.1074736157324292,-0.12867896085096703,-14.759061296358313,12.445375165597904,-0.5913843531952249
1761285825.3085046,1.9154033733298899,-0.03750397397513309,1.0854788847062207,-0.08660702922646335,-16.223626994291333,12.69160125059193,-5.395714231614649
1761285825.3185852,1.7078809959218129,-0.053112691307363895,1.061612393716172,-0.048048973316922226,-17.954465068271382,13.154796449212784,-10.256499358014878
1761285825.3284502,1.4472604491651702,-0.06633413420950543,1.0373468106512829,-0.014176342469127112,-19.99237870700539,13.78907226996244,-15.075654157115151
1761285825.3384564,1.1389888082707154,-0.0757399193991798,1.0141056620962134,0.014233563411351563,-22.36496859327618,14.54059510769025,-19.77853844934426
1761285825.3485913,0.7896247115121937,-0.08016900042993191,0.9931423419919546,0.03676589340093735,-25.080901952153074,15.355286306187278,-24.314266657517333
1761285825.3587759,0.4061659646521474,-0.07893626436658219,0.9754400521637496,0.05330470989074524,-28.123905605781825,16.183784051151093,-28.65223681489942
1761285825.3685412,-0.00463393610314017,-0.0719732840540268,0.9616416854422192,0.06396125650194634,-31.447418245946363,16.98354641441376,-32.775971719127575
1761285825.3784497,-0.4368451012193125,-0.0598836140284293,0.9520137222774455,0.06901256782937713,-34.97117868360782,17.718643303757172,-36.675734186309256
1761285825.3884785,-0.8857547803339502,-0.04390954970575737,0.9464437616518256,0.0688617410465829,-38.58104575996589,18.358095860965495,-40.34143331318743
1761285825.3984742,-1.3480382199047187,-0.025818886943058804,0.944469828118468,0.0640231494812088,-42.13294696582828,18.873584978299633,-43.75709239772585
1761285825.408462,-1.821712378264599,-0.007727044783210756,0.9453406651159807,0.055128048419097,-45.46109818931407,19.237107124094976,-46.89770114172253
1761285825.418468,-2.305908838809795,0.008127639594021558,0.9481062878815113,0.042940245303728426,-48.38975080242788,19.418909972680986,-49.72876450132484
1761285825.4284663,-2.8005186622391873,0.019636857571871613,0.9517340292728254,0.028368573219935217,-50.74698080366854,19.385966178952746,-52.20841432987242
1761285825.4387088,-3.3057668676258136,0.025082223300562038,0.9552378291661086,0.012461846801985138,-52.37861414126266,19.10137400814892,-54.29161957300669
1761285825.448477,-3.8217731594666486,0.023374157784980955,0.957801487592055,-0.0036273349880944026,-53.1603301195874,18.52526257693923,-55.93579543714686
1761285825.4585543,-4.348152770735153,0.014233137208771677,0.9588740120354936,-0.01871861032334954,-53.006295762517986,17.61779697811537,-57.10694497135659
1761285825.4701228,-4.883707551567765,-0.0017277748401484882,0.9582188236635641,-0.03171647748421969,-51.873327274351496,16.344564891056407,-57.78537209788814
1761285825.4785118,-5.426249846546767,-0.023052975482747276,0.9559078166134195,-0.04173959245902889,-49.76046059610999,14.683996925717649,-57.970014427256714
1761285825.4900987,-5.972587157304616,-0.047638256214972974,0.9522635602082199,-0.04823358114227171,-46.70476570803547,12.635723186766466,-57.6806054886994
1761285825.4985526,-6.518673859296768,-0.0730460346231014,0.9477644118590313,-0.05103333196283485,-42.774991394660844,10.22817271199473,-56.95721901284335
1761285825.5088837,-7.059910341123222,-0.09688549438491391,0.9429344031868749,-0.05035405749861958,-38.06489356225033,7.523483327443727,-55.8572268055152
1761285825.5192482,-7.591544713596886,-0.11718083883766581,0.938241247289812,-0.046711454150734834,-32.6877541152218,4.617962275355876,-54.45018342256734
1761285825.5285141,-8.10911274965989,-0.1326515105069008,0.9340222350013557,-0.04079104311671122,-26.772791431840243,1.6368843604578722,-52.811481067368504
1761285825.5384927,-8.608842062366149,-0.14284886783838288,0.9304494145228206,-0.033299345182580986,-20.463243717102944,-1.2767134466653014,-51.01571059448122
1761285825.5485883,-9.087949419409544,-0.14812758310650584,0.9275333759930022,-0.024832623989583157,-13.915197238716319,-3.978448291783774,-49.13053852310101
1761285825.5584884,-9.544776179083062,-0.1494677654713352,0.9251539074064792,-0.01579188876403332,-7.295898181765238,-6.342189608216838,-47.211665569666984
1761285825.5684903,-9.978734100769023,-0.14819583912164216,0.9231019280817071,-0.006357657540832782,-0.7803673852803849,-8.279742349497834,-45.29919570394148
1761285825.5785086,-10.390068161341782,-0.14567092297416662,0.9211217845803203,0.003478916611710205,5.454399604143143,-9.756917658914073,-43.415605971061034
1761285825.5884762,-10.779478901442776,-0.1430057011560002,0.9189510426388268,0.013843219635982992,11.237662809593832,-10.802393431597773,-41.565470515656806
1761285825.5986605,-11.147677197216828,-0.14087765815282088,0.9163599537444747,0.024880962586162743,16.414927642228825,-11.506673139902414,-39.73708401566023
1761285825.6085036,-11.494962276347305,-0.13946247047644358,0.9131923472482225,0.03665671104946266,20.8585497315135,-12.010074081217637,-37.906065166605515
1761285825.6185052,-11.82091480038673,-0.1384927161416622,0.909405388283812,0.049065049879121955,24.477576137385128,-12.480720180448193,-36.04085818478425
1761285825.6285088,-12.124279705468906,-0.13741815117644185,0.9051007143304363,0.061771488928607524,27.225407505690914,-13.085547495734664,-34.10979476561644
1761285825.6388855,-12.403080243098943,-0.13562360701585116,0.9005368370856592,0.07419609866904933,29.10404113672283,-13.958886340277218,-32.089069100414584
1761285825.6485374,-12.65496107023518,-0.13265106461302434,0.896113826608671,0.0855448448764226,30.164072112223618,-15.173888435887939,-29.970683224479966
1761285825.6592526,-12.877713421829615,-0.12837569366391682,0.8923260321490565,0.09488452037268184,30.500212029352106,-16.721765368673235,-27.769225792460162
1761285825.6686652,-13.069899126116354,-0.12310015815034424,0.8896855717633189,0.1012504886869252,30.24266002402525,-18.502584487272674,-25.526321975344008
1761285825.6787155,-13.23146971797485,-0.1175526929743317,0.888626432567681,0.10377297855370454,29.545103639126566,-20.329485646863667,-23.311757298299188
1761285825.6887443,-13.364275185183736,-0.11279654434311133,0.8894041643813515,0.10180562166609816,28.570440898309652,-21.94599797948134,-21.220614679055952
1761285825.6990805,-13.47237278513804,-0.11007623767774895,0.8920080880555379,0.09503789738598041,27.475566690182056,-23.05408776591262,-19.366222296058563
1761285825.7089953,-13.562075715349675,-0.11063646921209047,0.8961017617783313,0.08357204471961109,26.396786110042573,-23.349070974677662,-17.869224795850496
1761285825.7192082,-13.641718451432995,-0.11555065371556673,0.9010041772982204,0.06794688050686752,25.437557473801533,-22.556817931901264,-16.84360311623044
1761285825.7285388,-13.721153937573332,-0.12558848706815556,0.905719684686726,0.04909686442012433,24.660229493051794,-20.468771550350763,-16.38092926513093
1761285825.7385383,-13.8110314891439,-0.14113800849899194,0.9090192176717963,0.028244164547639422,24.0831314875078,-16.9710276311968,-16.53450149245928
1761285825.748548,-13.92192863100181,-0.1621826560773687,0.9095693355228208,0.006733358092689203,23.683775293968,-12.064824900251992,-17.30522153840525
1761285825.758703,-14.06342292873649,-0.18832289613874947,0.906099771625537,-0.014168476845018652,23.408074473307458,-5.876981599173409,-18.63112474563608
1761285825.7685907,-14.243192028678596,-0.21882799592780788,0.897595088542067,-0.03347178647532784,23.18448229020953,1.3401557462285347,-20.382338257217594
1761285825.7798548,-14.46622489687306,-0.25270571541830866,0.8834913563264395,-0.050624186929226704,22.9409707108079,9.219001818833881,-22.36290877100767
1761285825.7886124,-14.734217336605694,-0.2887821632105413,0.8638546028492754,-0.06559260474290579,22.62205831140236,17.296703079647074,-24.32040011120062
1761285825.7985187,-15.045209644158621,-0.32578575427381734,0.8395154418652502,-0.07884368377924662,22.202864721663396,25.044092562718742,-25.963405044364364
1761285825.8085165,-15.393501310923549,-0.36242588310231083,0.8121348143361556,-0.09121737125631021,21.697524798800387,31.902617467503564,-26.98616108438437
1761285825.818509,-15.769847674749,-0.39745178701826567,0.7841787340256752,-0.10371010194145924,21.160195564056213,37.32751974252926,-27.098384234279976
1761285825.8284752,-16.16191307315992,-0.4296769838363415,0.7587846815751945,-0.11720555039380769,20.67817715308075,40.83451917793991,-26.057397475627532
1761285825.8385196,-16.554933940354367,-0.4579644015505567,0.7395101553984289,-0.13220958370516245,20.358105973242182,42.04621608622069,-23.698850983420147
1761285825.8491852,-16.932538964320628,-0.4811849710505768,0.7299680491681264,-0.14865443055328242,20.307473391712875,40.7337442324259,-19.962012282582954
1761285825.8591046,-17.277679323526403,-0.49817999226220605,0.7333757784473578,-0.16582631947247164,20.61459410443506,36.849010646741036,-14.905853218680395
1761285825.868898,-17.573630615544637,-0.5077648962887825,0.7520715737596017,-0.18244030171509323,21.330394030350835,30.543123840795086,-8.712974600669725
1761285825.8788178,-17.805026854442904,-0.5088023226567407,0.7870724659121698,-0.19684688108154558,22.454957465138396,22.16733127924052,-1.6797255463807335
1761285825.8885875,-17.958867069524192,-0.500347651945353,0.8377546604443796,-0.2073226491378211,23.93081743719668,12.254053192210812,5.807436705389761
1761285825.8986673,-18.025400520002545,-0.4818409683825216,0.9017247393442377,-0.21238183064865332,25.64382322278871,1.4774889936606448,13.307484264677997
1761285825.9085453,-17.99876761800957,-0.45329741760015935,0.974922565349338,-0.21105038984473773,27.431440385408237,-9.40422960188834,20.36874700427032
1761285825.9185557,-17.877276710018304,-0.41543847071280116,1.0519609454682242,-0.2030637870762185,29.097720042881427,-19.62038036267618,26.57645788487975
1761285825.9286296,-17.66324553797871,-0.36971179933746795,1.1266713570719527,-0.18897142301539702,30.433823189560872,-28.46441498303683,31.59832687711175
1761285825.9387245,-17.362420809576765,-0.318172266264761,1.1927952484268323,-0.17014390975576069,31.242617015804914,-35.365623934957064,35.22226972199861
1761285825.9485319,-16.983083060579563,-0.2632436145231623,1.244736876035916,-0.14868138116093807,31.3651987228255,-39.944559613535866,37.38081834852772
1761285825.9587975,-16.535016969972585,-0.2074347990280919,1.2782743380457542,-0.1272185633451177,30.706197586136714,-42.04322493689116,38.15799167362568
1761285825.9686804,-16.028555792435412,-0.15311066023610168,1.2911139588228588,-0.10862438966398656,29.25365009681236,-41.72585537271443,37.77655172760957
