timestamp,angle,linear_acceleration_x,linear_acceleration_y,linear_acceleration_z,angular_velocity_x,angular_velocity_y,angular_velocity_z
1760514534.84802,-8.444130023370082,-0.09162144819586719,0.8823632025575652,-0.3225387395086822,7.800454752967077,10.733061237491196,12.088779812341508
1760514534.85806,-8.24514052104002,-0.08570526184712327,0.8833994229418571,-0.3295877035338297,7.682597041478123,11.168399853996853,11.61722412168479
1760514534.8678885,-8.035053438629054,-0.07750084524612243,0.8866615071291222,-0.33510178409239877,7.65717920246282,11.324581341049761,11.258745167356237
1760514534.877963,-7.809434198328641,-0.06764338022030571,0.8915017124953708,-0.3386644464069787,7.730130562207478,11.326686894502872,11.031132568541365
1760514534.8881028,-7.566097206510259,-0.05690803173276688,0.8970897200772366,-0.3400627812639049,7.895050873467284,11.293866043818673,10.941549394988247
1760514534.8982732,-7.3051770851725095,-0.04613063857742445,0.9025768757693762,-0.3393413608776382,8.135570010915787,11.323269396948685,10.986898072578178
1760514534.9078727,-7.028944954873811,-0.03614130415114732,0.9072597831006384,-0.33683067437750264,8.428581666377605,11.478413787127058,11.154622920950334
1760514534.9178872,-6.741428691977538,-0.027708812387708684,0.9107104902957373,-0.33314078761714866,8.74752125319261,11.783079927597255,11.423847733541185
1760514534.9280496,-6.447901754925291,-0.02149200074427355,0.9128517287709885,-0.3291178786189482,9.065098113721687,12.2211244244496,11.76679662437972
1760514534.9380226,-6.154302745496033,-0.017995089384001406,0.9139670082569707,-0.3257667245766164,9.35520007383462,12.74183221792729,12.150474286132967
1760514534.9480152,-5.866643078378363,-0.01752673616703968,0.9146457283616167,-0.3241459053771885,9.593968789278652,13.269733113314786,12.538583740678863
1760514534.9580169,-5.590455333400164,-0.020165826231144678,0.91567268857037,-0.3252453059861714,9.760259310498935,13.717271984853992,12.893637335619726
1760514534.9679744,-5.3303299621772675,-0.02573952576197141,0.9178790136684369,-0.3298585851196641,9.83582860932552,13.998450865948959,13.179176962710084
1760514534.9780412,-5.089581848772807,-0.033820220622588076,0.9219769721913226,-0.3384668624138051,9.805622609958975,14.041591387380926,13.36197820455436
1760514534.9881058,-4.870078951195645,-0.04374715878881382,0.9284042401507242,-0.35115238342653454,9.65843020018617,13.799664365069425,13.414092320288878
1760514534.9985983,-4.6722511636806106,-0.05467596390940128,0.9372038416966864,-0.36756002620353034,9.387959125546939,13.25710175864102,13.31459122954372
1760514535.007995,-4.495278695235132,-0.06565552846634684,0.9479637578107399,-0.3869190766823794,8.994122655522375,12.432523373082782,13.050913592356244
1760514535.0179484,-4.337438023861333,-0.0757280814513308,0.9598337298231572,-0.40812820267901695,8.484094929256445,11.377284896134483,12.619742168525745
1760514535.0278926,-4.19656298215426,-0.08404448206968607,0.971624968188017,-0.42989458764932414,7.872580567406283,10.170150933080652,12.027359899891456
1760514535.0379283,-4.0705612367224715,-0.08998236895976222,0.9819818821795994,-0.45090623256638324,7.180811861025538,8.908731564778144,11.28944005780769
1760514535.0484645,-3.9579146049478906,-0.09324959619484377,0.9895963301369941,-0.47000703288155965,6.434064792904056,7.69862612939626,10.430242318529565
1760514535.0581107,-3.858088448995656,-0.09395090884866544,0.9934189153618916,-0.48633959936851,5.657956073644735,6.641505962815411,9.481227117421863
1760514535.0681121,-3.771785114983706,-0.09259628077924711,0.9928162399658638,-0.499424902687569,4.874345824296471,5.823598374203254,8.479166555639885
1760514535.07808,-3.7010020080026753,-0.09004016675096135,0.9876370434876848,-0.5091651358172801,4.098097636576538,5.306096817334633,7.46390179107527
1760514535.0879133,-3.6488920428601377,-0.08736107170196042,0.978183046090383,-0.5157820022209115,3.335940711214919,5.118783128232982,6.475936552700583
1760514535.097893,-3.619459412876725,-0.0857086888394586,0.9651129908770424,-0.5197202680344039,2.5880911586835067,5.257582864281985,5.55403955713325
1760514535.1079845,-3.6171432207542655,-0.08614974862919168,0.9493200085899676,-0.5215443416792911,1.8523341253643706,5.6860578742701025,4.732976195398859
1760514535.1179376,-3.6463417839141705,-0.08953443237792828,0.9318135498030372,-0.5218417121199852,1.1294077164325818,6.34022993119153,4.04144898478163
1760514535.1282141,-3.7109176765470777,-0.09639264888465716,0.9136237910843061,-0.5211367952214233,0.4281253932803091,7.13576601930832,3.500319482685777
1760514535.1382363,-3.8137084688509533,-0.10686152031289413,0.8957378133018258,-0.5198175034330148,-0.23121794382859498,7.976411820923124,3.1211954202487036
1760514535.148026,-3.956060785195226,-0.12064371050279184,0.8790704177993631,-0.5180798815014744,-0.8161532549940587,8.76255552131295,2.905466187149156
1760514535.1579912,-4.137410740295471,-0.1369982514864515,0.8644643311078521,-0.5158977215023128,-1.2844569326670432,9.398912234324156,2.8438401209297233
1760514535.1679919,-4.354948934631561,-0.15476763861228904,0.8527056598571001,-0.513022372003791,-1.5895036253671853,9.800564611404946,2.9163838014576235
1760514535.1779876,-4.603423525321225,-0.17244482742557274,0.8445349309967642,-0.5090148036360959,-1.687906692523105,9.896986624792627,3.093012659465634
1760514535.187899,-4.875140142314581,-0.18828126355861258,0.840635664206153,-0.5033097352830882,-1.5484693973611001,9.6341490834535,3.334366702022138
1760514535.1978896,-5.160207186115193,-0.20043346379543,0.841591418152402,-0.49530994597091627,-1.1612592851037675,8.97522175628444,3.5930448045178194
1760514535.207977,-5.447050985765771,-0.2071419803458674,0.8478144553824593,-0.48450524755158025,-0.5455175283004031,7.900617320863617,3.815252904525721
1760514535.2180035,-5.723193158781701,-0.20693261442294822,0.8594588435362855,-0.470603694162503,0.24486423276254712,6.408112552817332,3.9429972768371426
1760514535.2281792,-5.9762472366587485,-0.19882448540553962,0.8763348548526891,-0.4536545881923757,1.1194038293453228,4.513559256843605,3.9169652838498945
1760514535.2379575,-6.195055876951273,-0.1825228029907586,0.8978409804296001,-0.43413797578184776,1.953410662236864,2.2523262384715528,3.680152016944386
1760514535.2480953,-6.370856408023229,-0.15856755460662508,0.9229279096437236,-0.41299697165649146,2.595008885013182,-0.3188351645634835,3.182130135159039
1760514535.2579308,-6.498335608802312,-0.12840562117001583,0.9501076796143983,-0.391597500032107,2.8765482147765167,-3.120262657887852,2.383675397596327
1760514535.2679658,-6.576421310946763,-0.09435580940435309,0.977520431762552,-0.37161173802606884,2.6295494701198714,-6.049326769255784,1.2613068824138578
1760514535.277917,-6.608666610086814,-0.05944569537509931,1.003068051221797,-0.3548327030769838,1.7018067912215717,-8.983170813761422,-0.18879102711937382
1760514535.2879379,-6.603118371732417,-0.027116306141895145,1.0246154403026508,-0.34293586810507637,-0.02509204750566815,-11.785430872097656,-1.948027741521479
1760514535.298202,-6.5716266078196615,-0.0008146807648514448,1.040245513561173,-0.3372104417216291,-2.6197163476139353,-14.317502906387443,-3.9744015817908394
1760514535.3080502,-6.528640155111747,0.01647675603705057,1.0485355606149365,-0.3382913348743338,-6.08805508254248,-16.45378972851171,-6.203771424304633
1760514535.3179488,-6.48963296445971,0.022697007272525233,1.0488056464051736,-0.3459342797964716,-10.36574195491215,-18.098900594009482,-8.553913010392636
1760514535.3278947,-6.469389729411676,0.01705667806543296,1.0412818797460361,-0.3588859967797769,-15.316634787694156,-19.203458648478986,-10.931719510169534
1760514535.337935,-6.480422519950647,0.0001977181696807109,1.027126471885491,-0.37489882465368896,-20.73884233644705,-19.774620036443203,-13.243507169581086
1760514535.3478942,-6.531775605196895,-0.02588274550759901,1.0083143830529924,-0.3909183912569198,-26.378857871209345,-19.87808402016368,-15.40769783651803
1760514535.3579195,-6.628404464391123,-0.05813232054834868,0.9873737200628667,-0.40343657391741117,-31.9536894930635,-19.630224687016348,-17.36830459779041
1760514535.3679037,-6.771202667149839,-0.0928998910674084,0.967037618371872,-0.408960881875127,-37.17964671300541,-19.18140439593808,-19.106915755174956
1760514535.3781955,-6.957625111439857,-0.12645185201882286,0.9498686356689535,-0.40451943254533923,-41.804910985550805,-18.69372478816208,-20.650557940503887
1760514535.3880217,-7.1827510633518195,-0.15545439170159808,0.9379153838997263,-0.3881099445974199,-45.64164422350945,-18.317758382361042,-22.073135437204513
1760514535.3980925,-7.440568770365787,-0.17735445674934583,0.9324532079795594,-0.35901497892406037,-48.59268906338849,-18.172824483931358,-23.48911317061152
1760514535.4080555,-7.725250959955575,-0.1906246734481997,0.9338476262009783,-0.3179357420983435,-50.66816440825191,-18.334183777594433,-25.03953018739381
1760514535.4181244,-8.032220041942196,-0.1948654025216465,0.9415576821910953,-0.26693036507018925,-51.98842685863882,-18.82859649355409,-26.87194229132928
1760514535.4279659,-8.358860016843849,-0.19077634222273052,0.9542690245999319,-0.20917225486257104,-52.771738772058896,-19.637688691694105,-29.117136014507626
1760514535.4379704,-8.70480407784471,-0.18002074583761452,0.9701230471450082,-0.14856845865078008,-53.307268595503125,-20.707051118770007,-31.86617446942818
1760514535.44805,-9.071798972078145,-0.16500917103309198,0.9869960552970568,-0.08929558342206396,-53.91642132493023,-21.958213922328653,-35.151410592371825
1760514535.4580324,-9.463208408678721,-0.148628852948803,1.002781723691394,-0.0353187739663311,-54.90758805867245,-23.30061222613982,-38.93455660682341
1760514535.467921,-9.883261003496836,-0.13394173914733531,1.0156380474321656,0.010043093151501262,-56.530786324577356,-24.64128475491065,-43.103873091244026
1760514535.477992,-10.336170629734337,-0.12387174153390672,1.0241726078543494,0.04445282809124758,-58.93893745695044,-25.89116232540854,-47.48123695175119
1760514535.48797,-10.825259395228414,-0.1209014968990576,1.027553270788987,0.0667527726416142,-62.161547384779126,-26.96810259068529,-51.83845027651381
1760514535.498411,-11.352198878604465,-0.12680074267485617,1.025542693836637,0.07700609450279297,-66.09456036083803,-27.79787755279228,-55.92082318749327
1760514535.5081613,-11.916458575642793,-0.14241139659440494,1.0184632286270365,0.07638502197643539,-70.50763121720053,-28.314734021774807,-59.47496323715029
1760514535.5179384,-12.515017758460573,-0.1675169448841949,1.0071040525536885,0.06693224536632968,-75.0675257072255,-28.46282455518365,-62.27698820056815
1760514535.5280285,-13.142363622755589,-0.20082270958026616,0.992585442969028,0.05124055304864567,-79.3742289460162,-28.19902036503293,-64.1572006578618
1760514535.53791,-13.790767753876814,-0.24006530996178904,0.9761972348515606,0.03210651494506807,-83.00488970134458,-27.4968295531607,-65.01773363719043
1760514535.5480134,-14.450805174575757,-0.28225249648329714,0.9592306113314529,0.012213167630198796,-85.56004679361176,-26.35066057156497,-64.84076134172169
1760514535.557955,-15.112056002924236,-0.3240114918333944,0.9428236545559874,-0.006116084670167571,-86.70663698942073,-24.779477634335418,-63.686347957988374
1760514535.567899,-15.763911470426814,-0.3620019877465327,0.9278390576445629,-0.02107008739809616,-86.2129741413193,-22.828876930926636,-61.68060451220501
1760514535.5780807,-16.396397055530112,-0.3933351054000434,0.9147867431657796,-0.03140762753071452,-83.9720648601662,-20.570832719168855,-58.99632547356908
1760514535.5880737,-17.0009273643458,-0.4159346984012787,0.903798384361471,-0.03643657415268409,-80.01111222363625,-18.10091958595471,-55.829489119173196
1760514535.5979443,-17.57091964904797,-0.4287846015605906,0.8946568310347602,-0.035943186931685155,-74.48672615317801,-15.533502745471036,-52.37567113239794
1760514535.6079257,-18.10221375540328,-0.4320256194084688,0.8868779928766578,-0.03010381972209405,-67.66707786131171,-12.995753973338163,-48.81028243481361
1760514535.6180344,-18.59327154498509,-0.42689342733976876,0.8798339887476323,-0.01940443046772914,-59.903774824609535,-10.621139831994798,-45.275523734172126
1760514535.628009,-19.04515151958057,-0.41551329779759083,0.8728982462115302,-0.004579998275452279,-51.597301048143585,-8.542410217123107,-41.87528133766038
1760514535.6380157,-19.461269857025844,-0.4005845847046314,0.8655890841598183,0.01342806671792406,-43.16028512433299,-6.883548239647985,-38.67735233100222
1760514535.6479456,-19.84696937634028,-0.3849987668623509,0.857686278795905,0.03351028782485358,-34.982665354356044,-5.750071186628569,-35.72090096562373
1760514535.658001,-20.208929295790497,-0.37144259866155277,0.8492939841332448,0.054444216813685324,-27.40220201833412,-5.217621184554464,-33.02626016066892
1760514535.6679275,-20.55446542102975,-0.3620432895349273,0.8408281069614923,0.07498387698021641,-20.68288823672301,-5.319675900974841,-30.604202457291176
1760514535.677925,-20.890791336068215,-0.35811267270553715,0.8329223249252213,0.09398400383787887,-15.002682609240267,-6.036039330780844,-28.462500725478932
1760514535.6881795,-21.22432840938999,-0.36003557375124684,0.8262706634970066,0.11053635062642417,-10.450720453333687,-7.284310932547638,-26.608715312632125
1760514535.6981738,-21.56015415133402,-0.36731995442925724,0.8214442607745486,0.12408107028726673,-7.032981536219077,-8.916683214512053,-25.049332903804828
1760514535.7079084,-21.901656941395803,-0.37878940241792347,0.8187271763616734,0.134459604526892,-4.684539804037672,-10.724049709563443,-23.786323618998445
1760514535.7179768,-22.250424907662946,-0.3928676167742431,0.8180105471875864,0.14189326466394814,-3.286071470231655,-12.448421714647143,-22.812689308525414
1760514535.7279153,-22.606352870776877,-0.4078915892048779,0.8187699712177823,0.14689386136402188,-2.682177388078804,-13.803211262275298,-22.108614761306747
1760514535.7379723,-22.967918564105606,-0.4223951489262297,0.8201322187961901,0.15013031827287818,-2.6992328982101976,-14.499464386931722,-21.639494749402292
1760514535.7481947,-23.332564064187018,-0.4353196931006221,0.8210181199721431,0.15228358816832124,-3.1609449296825938,-14.27508079670306,-21.3565487794778
1760514535.7579176,-23.697119564938134,-0.44612797431613566,0.8203321580723468,0.15392067494714362,-3.9005337503754105,-12.923649799937126,-21.200097966612354
1760514535.7679403,-24.058221471960827,-0.4548174861172561,0.8171598736411564,0.15540872132039968,-4.769249720451206,-10.31966791171466,-21.10497848998473
1760514535.77789,-24.41269979105138,-0.4618485686329443,0.8109342190208776,0.15687639686710145,-5.641518345031679,-6.4373678941645265,-21.007118933940067
1760514535.788057,-24.757928206796926,-0.4680117361958362,0.8015400987862588,0.15821882237337534,-6.417267440225988,-1.361057857810819,-20.85011202475311
1760514535.797907,-25.09212985012298,-0.47425699873289884,0.7893395619611946,0.15913727464107835,-7.022003663879205,4.714342567940846,-20.590670854395206
1760514535.8081393,-25.41461196129472,-0.48150358081974587,0.7751163868592261,0.15920331703616009,-7.405111578599758,11.493092772399306,-20.20209186937301
1760514535.8179038,-25.72588039499741,-0.49045037185723983,0.7599547810291286,0.15793541928738486,-7.536752905428968,18.59851432042885,-19.675172367949635
1760514535.8279207,-26.027580271990157,-0.5014144188417731,0.7450779728832553,0.15487489468644372,-7.403714076207116,25.601882132822542,-19.016430809470666
1760514535.837889,-26.322230016134583,-0.5142283171253499,0.7316764001680801,0.149649482552461,-7.004615881769791,32.058175235476845,-18.243951632419375
1760514535.8479319,-26.612755732398735,-0.528220793724318,0.7207534861641091,0.14201789961684996,-6.345020523709538,37.54533912735344,-17.3816583135703
1760514535.8580885,-26.901877484612395,-0.5422883702196665,0.7130120092200739,0.13189488439374145,-5.43304673893627,41.70269488636777,-16.453166446733608
1760514535.8679116,-27.191436756691967,-0.5550466762972752,0.7087963488397228,0.11936054201623852,-4.276043396062202,44.26371840569201,-15.476438449886684
1760514535.8779957,-27.481778803926744,-0.5650358019014621,0.7080947838022652,0.10465938006571564,-2.8786734156622433,45.07888531795961,-14.46021674394929
1760514535.8883965,-27.771310459641825,-0.5709476042355446,0.7105931133508003,0.08819427418084767,-1.2425015736213896,44.12559093333856,-13.402756944954328
1760514535.8979163,-28.056338514881524,-0.5718411625688565,0.7157612318799418,0.0705185877557036,0.6330544647481254,41.504017082749094,-12.292879818798193
1760514535.9079862,-28.331252489331305,-0.5673124711401657,0.7229522143450017,0.05232505486838181,2.7487313040933983,37.41991607194063,-11.112923174184587
1760514535.9179103,-28.589050113837455,-0.5575864001534298,0.7314978360042296,0.03442451543091546,5.10284289797844,32.1573663804452,-9.842838458909892
1760514535.9279094,-28.82212578029464,-0.5435067282456755,0.7407903877191647,0.017705016487113423,7.688663458569037,26.046273384670585,-8.464461404789155
1760514535.938012,-29.02317507460012,-0.5264174160121734,0.7503449709964133,0.0030644887716208716,10.492317515456428,19.430191548438415,-6.9649451013608
1760514535.948057,-29.18603887064499,-0.5079531931223049,0.7598393083753868,-0.008682494448873647,13.491620571989252,12.639473695208945,-5.338535354339008
1760514535.9582205,-29.30633043823148,-0.48978019353458446,0.7691305915328875,-0.016913850646609538,16.656118572040786,5.972896296446333,-3.5862821230191573
1760514535.968164,-29.381747015077575,-0.4733374124620635,0.7782515341594163,-0.021306749180538875,19.948342913378482,-0.3115143768904647,-1.7138073612233724
1760514535.9780426,-29.41203815902042,-0.45962502854370574,0.7873904518167579,-0.021920424296427734,23.32609185803487,-5.997810924884313,0.2722729159123678
1760514535.987993,-29.398666444227416,-0.4490724575929632,0.7968618184732513,-0.019236302252853516,26.74539727985082,-10.908146789664226,2.368373036402406
1760514535.9979022,-29.344243737563993,-0.4415048228778838,0.8070732066618678,-0.014143715360469196,30.163721684375528,-14.896320428921928,4.577421754309291
1760514536.0080535,-29.2518570509055,-0.4362135361777357,0.8184921516472873,-0.007867703138132362,33.54283533512365,-17.841414558165145,6.910911069412862
1760514536.017999,-29.124409423240895,-0.43212239474116976,0.8316136443076138,-0.0018429190855120804,36.85078024470347,-19.643624642698374,9.388841632006159
1760514536.0279474,-28.964090643946786,-0.4280237764004033,0.8469263555669666,0.0024561668804532785,40.0623992510971,-20.223784829319616,12.037228990057589
1760514536.0379372,-28.772061900600796,-0.42284372847638446,0.8648738165048213,0.0037132288207651354,43.15810433440639,-19.52738881801484,14.883224863221665
1760514536.0479198,-28.548395280702884,-0.4158855284661144,0.8858069624943636,0.0009745940051036541,46.120831792762154,-17.533064152765668,17.948286803627962
1760514536.058107,-28.292262923300978,-0.40700200065578707,0.9099275348186139,-0.006169114066225577,48.93144649169043,-14.264510074563274,21.240156685596553
1760514536.0680048,-28.002329752585684,-0.39665790777255744,0.9372261379885093,-0.01746106738700456,51.56319789747452,-9.803857110201704,24.744673531224965
1760514536.0781524,-27.677274398506523,-0.3858633383997477,0.9674210157754468,-0.03195447299248346,53.97616531657218,-4.303351569079877,28.41863306363873
1760514536.088012,-27.316348745245335,-0.375984045566778,0.9999028704168971,-0.04811514636091812,56.11290102705078,2.008465680718871,32.184989068106496
1760514536.097934,-26.919888015923334,-0.3684618249332875,1.0336908834032439,-0.06405472741098428,57.89660281562401,8.829842520184151,35.93164543988832
1760514536.1081166,-26.48969814877536,-0.36450233875769344,1.0674098062815662,-0.07786553089379565,59.23300353968574,15.800620328837695,39.51486208310804
1760514536.1180348,-26.02927092430011,-0.3648000574244417,1.0993061717653607,-0.08799472550020568,60.01665605134414,22.528697294679723,42.767815115469695
1760514536.1279893,-25.54380393005986,-0.3693618603284729,1.1273259892688872,-0.09357465280936857,60.14144692293189,28.62500567797883,45.51409308864332
1760514536.1379962,-25.040027392024232,-0.3774649228993046,1.1492702278631692,-0.09462876821530151,59.514196950388985,33.741349962090446,47.58498335890082
1760514536.1480765,-24.525861921036373,-0.38775299203322827,1.1630274087215142,-0.09210187924686535,58.069407326272824,37.60450654494408,48.83850954280841
1760514536.157924,-24.009950540097506,-0.3984485511795306,1.1668593033384493,-0.08770946104653835,55.78286003534681,40.04095082421981,49.17756064094325
1760514536.1680403,-23.50112349491544,-0.4076405367902936,1.1596930497627402,-0.08364571256906769,52.68196941352114,40.98901498297754,48.56431003562992
1760514536.1779995,-23.007861837035364,-0.4135978903473349,1.1413589619720792,-0.08221708632649109,48.85133893765372,40.49812982158228,47.02853847280304
1760514536.188009,-22.537822101971734,-0.41505681445550835,1.1127151306572427,-0.08547127074806896,44.43259513209199,38.716944950200784,44.66837040019149
1760514536.1980398,-22.097468019840917,-0.4114333678681858,1.0756202576803504,-0.09487772597794994,39.61806533744313,35.87304517869413,41.643115615761296
1760514536.2079473,-21.691827721815102,-0.4029230075987384,1.032750153821899,-0.1110974222799309,34.638311685168766,32.246977331974584,38.15913033925114
1760514536.21793,-21.324361474732456,-0.3904642202611637,0.9872903870420384,-0.13386507031714429,29.744134911419227,28.143051005169493,34.4506386536068
1760514536.2279146,-20.996894422558146,-0.3755639792433371,0.9425661036669692,-0.16199738237804734,25.18451330943971,23.859398566383973,30.75812394530284
1760514536.2382526,-20.70955408942787,-0.3600091307806852,0.9016801727512945,-0.19353017263824018,21.18288397627524,19.660116493458762,27.307103919887457
1760514536.2479577,-20.46066690358786,-0.3455173638150448,0.8672181180905891,-0.22596980021515367,17.914866544601324,15.752573938400216,24.289788087930347
1760514536.2580192,-20.246614902792043,-0.33340369004066156,0.8410498839601799,-0.2566226629383611,15.49067800378806,12.272699410313303,21.851368778805423
1760514536.2680666,-20.061716693304493,-0.3243403628346919,0.8242304326778244,-0.28295039822208945,13.944980179093198,9.280066321948551,20.081767912580567
1760514536.27824,-19.898243698198822,-0.318264906392789,0.8169856402354468,-0.30289612413117595,13.235809207950423,6.763107615665862,19.012845271146553
1760514536.2880943,-19.74668368739593,-0.31444950730596277,0.8187671650859609,-0.3151364298562994,13.252777048327587,4.653235106938784,18.620551532307623
1760514536.29804,-19.596309626205436,-0.31170098541767144,0.8283628975698576,-0.3192279316149662,13.833228903238986,2.845411031215718,18.83128503104483
1760514536.3080373,-19.436023049897873,-0.30863067819388007,0.8440519189402836,-0.31563235669383344,14.783813555468138,1.221990831886065,19.531650811202443
1760514536.3179457,-19.255356571994515,-0.30392766494854034,0.863792096595628,-0.30562048790853225,15.904211179550984,-0.32359419343934825,20.580762119382193
1760514536.3279395,-19.04547581240924,-0.29658474141542734,0.8854251751302883,-0.29107278942379944,17.009654157934015,-1.8666046547406032,21.82408142314003
1760514536.3379285,-18.800030109160723,-0.2860524600231486,0.9068806141463404,-0.27421038230601197,17.94931193455422,-3.437028322201933,23.10759895446659
1760514536.3479238,-18.51574935991116,-0.27231807444953127,0.9263574541890084,-0.2572998288651785,18.618447867299935,-5.013916905906422,24.291010272483984
1760514536.357959,-18.19274098240037,-0.25591466473090285,0.9424644427297619,-0.24237574891091182,18.963339212103154,-6.528974881318193,25.258609064556744
1760514536.3682597,-17.83447918137153,-0.2378620410746897,0.9543035355918515,-0.2310173131167876,18.979126552622798,-7.878987162340301,25.926908536686952
1760514536.3780844,-17.44748975911864,-0.21953501137536002,0.9614910470802362,-0.22420256142719436,18.701843099283593,-8.94512235079362,26.24848506328501
1760514536.3880594,-17.04073210410678,-0.20245900761668698,0.9641221058010183,-0.22225278540557827,18.196641969112505,-9.615696423593649,26.212060640533192
1760514536.3979778,-16.62469315174006,-0.18805368882154214,0.9626931954935801,-0.22486869005780702,17.544491676529777,-9.808107229642127,25.839256052562245
1760514536.4080176,-16.21025378935529,-0.17737312179147935,0.9580007812902651,-0.23124864387592114,16.829324234605075,-9.485760127892451,25.178683989143067
1760514536.4181392,-15.80745641623989,-0.17090716318586438,0.9510314511424194,-0.24026669269251574,16.1270190241828,-8.666911810012056,24.29815144557713
1760514536.428033,-15.424360232829585,-0.16849877818189352,0.9428536323184717,-0.25067778965801374,15.497007994209627,-7.42407288234196,23.275790732625065
1760514536.4380221,-15.066186166235385,-0.16939976276443844,0.9345161071847923,-0.2613143249384308,14.976885658134814,-5.874435129990922,22.19098726378935
1760514536.4479332,-14.73491333906172,-0.17244838282524247,0.9269564095438383,-0.27124226634420306,14.580186789302045,-4.163379683696527,21.116004573593123
1760514536.4581883,-14.429401063430644,-0.17632077296147453,0.9209229899858812,-0.27985451846588694,14.297322473872258,-2.444279776126322,20.109166508146494
1760514536.4681616,-14.145996738971169,-0.1797912925683174,0.9169171332215411,-0.2868918759355173,14.099426328523144,-0.8583651450036047,19.210292585434427
1760514536.4782238,-13.879483433831195,-0.18193953376944788,0.9151615788374573,-0.2923975879042846,13.9445484401576,0.4817975914392013,18.438794932607294
1760514536.4879425,-13.624153872763253,-0.18226208044824688,0.9156009487301406,-0.29662638737145236,13.785330589426362,1.5026621556917832,17.79448493407062
1760514536.4983158,-13.374788559917713,-0.1806772795451138,0.9179343290273109,-0.29993676422629123,13.577100777566493,2.172924554965756,17.260767812766083
1760514536.5079238,-13.12736391316512,-0.17744085470602008,0.9216744047691137,-0.3026934714437747,13.285281889852126,2.500300015680319,16.80957725972795
1760514536.5179265,-12.879403742273576,-0.17301087239442098,0.9262229841680252,-0.30519829911764573,12.891105680505841,2.5237698190372764,16.407174215729746
1760514536.5279815,-12.629984332768093,-0.1679067647096874,0.9309512059908385,-0.30765583018301623,12.394830590090313,2.3036794644326295,16.019861176392048
1760514536.5380087,-12.379477948964052,-0.16259786405706184,0.9352739678070665,-0.31017140700900325,11.8159679760588,1.9117949402359848,15.61877863880643
1760514536.5479436,-12.12915210701959,-0.15743799462290642,0.9387107409314556,-0.31277304861335153,11.190420907326105,1.4226943721084393,15.183229239584822
1760514536.5583735,-11.880733317859928,-0.15264378934644585,0.9409275108005983,-0.3154468567382116,10.564906749799297,0.907072586571087,14.702332246008263
1760514536.5679588,-11.636011287010923,-0.1483032159035718,0.9417565028972517,-0.3181746348451102,9.989518672065648,0.4269720896164325,14.175134982900666
1760514536.5779507,-11.39652388098184,-0.14439923158689716,0.9411922692255514,-0.3209629971014398,9.509706334038123,0.03273339283568293,13.609517216210795
1760514536.5879242,-11.163338014121122,-0.14083822020129544,0.9393657754641861,-0.32385667188267336,9.159187283397934,-0.23852062103238694,13.020300247256179
1760514536.598001,-10.936929042429243,-0.1374787421548076,0.9365023545764666,-0.32693447106503776,8.955157458101096,-0.3629950810874605,12.426941757045906
1760514536.608073,-10.71715632191786,-0.13415980931140645,0.9328729360323349,-0.33029132562808,8.89659105483802,-0.3291215226866048,11.851105767051553
1760514536.6180081,-10.503329994323233,-0.1307290124906963,0.9287486615690833,-0.33401189816776916,8.965620145011892,-0.1356185456269601,11.314297263100197
1760514536.6280255,-10.294360940161141,-0.12707043856029898,0.9243665072131033,-0.33814171136457893,9.13132337685216,0.21074384522680742,10.83568872279399
1760514536.6379752,-10.088980074938442,-0.12313088217705385,0.9199094842803928,-0.34266200369875144,9.354941835214243,0.6971071007360744,10.43025477676855
1760514536.6479506,-9.886002078067701,-0.1189402579619143,0.9155014753485538,-0.3474744313231151,9.595536198039886,1.3057986142961393,10.107348884457574
1760514536.6581483,-9.68459203877497,-0.11461941557610036,0.9112149696573862,-0.3524006145269113,9.815250015740517,2.014804435926517,9.86986630666998
1760514536.668098,-9.484478468765385,-0.11036874500124431,0.9070896714505321,-0.357199428520457,9.983537691298974,2.7976888940505478,9.714115009438068
1760514536.6781006,-9.286055654831989,-0.10643639558328526,0.9031597711574755,-0.3616018357834197,10.079919650117485,3.6234910397196924,9.63045112453097
1760514536.6882408,-9.090339861473579,-0.10307330283995295,0.8994864055935009,-0.36535868416948725,10.095053694945355,4.45718523852287,9.60463569670465
1760514536.6979969,-8.898779380763825,-0.10048723831714824,0.8961898275706308,-0.36829230099687355,10.030165811555962,5.261085825804791,9.619759432827344
1760514536.7079518,-8.712951138312325,-0.0988064158607809,0.8934742436490789,-0.3703404165517323,9.895131791396436,5.997212718897379,9.658491631292987
1760514536.717965,-8.534196770075786,-0.09805789331266418,0.8916378038196249,-0.371582370986453,9.705686194121395,6.630290176063417,9.705354216110967
1760514536.727975,-8.363259248538515,-0.09816149793765476,0.8910611802835875,-0.37224161637247444,9.480316893237868,7.13084770493278,9.748705261096532
1760514536.7381473,-8.199979685315677,-0.09893720458342199,0.8921710210935877,-0.37266330661165326,9.237376389682591,7.477874360650237,9.782143491046197
1760514536.7479517,-8.043103731400503,-0.10012205718291797,0.8953790815619682,-0.3732700592392898,8.992829497263772,7.660625965937742,9.805121263164544
1760514536.7580416,-7.890230161521679,-0.10139209746142352,0.9010030002557368,-0.374502138596154,8.758899949221403,7.679423295553786,9.822671902684244
1760514536.767941,-7.737915137900054,-0.10238599922879581,0.9091795886582158,-0.3767501977646454,8.543711415304013,7.5455056132644165,9.844295392011665
1760514536.777956,-7.581928388300798,-0.10272976583328654,0.9197853728128177,-0.3802898398593456,8.351859557786915,7.280140649753799,9.882172989068103
1760514536.7879417,-7.4176433302481595,-0.10206434146291302,0.93238102447171,-0.38522822318975924,8.1857038118498,6.9132109302159455,9.94897005057313
1760514536.7979531,-7.240530769667482,-0.10007890525700477,0.946195688255003,-0.3914735808804294,8.047032409071551,6.481412582980179,10.055525741516096
1760514536.8080149,-7.046714407299792,-0.09655186030223037,0.9601640898582617,-0.3987378573588562,7.9386456557435805,6.0260675233205205,10.208719553001265
1760514536.8180466,-6.833537176226319,-0.0913996291717637,0.9730235667955763,-0.40657939028278206,7.865348985210365,5.590441454056117,10.409754942147629
1760514536.8279397,-6.600081615050681,-0.08473003721306477,0.9834689313760422,-0.41448558552393416,7.833890659764047,5.216460589828214,10.653025933586381
1760514536.8379488,-6.347584032373704,-0.07689111920996695,0.9903490120185706,-0.42198434733843593,7.851571726920011,4.940882808494633,10.925662476121312
1760514536.8480356,-6.0796791642476915,-0.06849755257046845,0.9928698030442286,-0.42875887117594735,7.923632337571328,4.791293667475483,11.207814447591591
1760514536.8583484,-5.802411640493656,-0.060410326062638554,0.990751963830955,-0.43472923183647105,8.050018732897213,4.782646862397674,11.473729806722453
1760514536.8679805,-5.523962612032115,-0.05365053688276528,0.9842906629762145,-0.44006742954228883,8.222537990253095,4.91522620728048,11.693658000931956
1760514536.8780282,-5.254074495497104,-0.049250295558141026,0.9742944211071084,-0.445136597514631,8.42342433150514,5.174681907657733,11.836508616536042
1760514536.888059,-5.003211541633234,-0.048071752096772294,0.961923545154827,-0.4503776574285697,8.625884082554826,5.534242736870609,11.87302768463423
1760514536.8981316,-4.781551403046671,-0.05064039814390927,0.9484794193432916,-0.4561848666188411,8.796509588851645,5.958615687329928,11.779100672528768
1760514536.908056,-4.597942151179916,-0.057033241958729504,0.9351992855391557,-0.4628063437520932,8.898931002961037,6.408720371700258,11.538726938317849
1760514536.9179447,-4.458968026887242,-0.06684366383911286,0.9230958062362496,-0.470287695440328,8.89789569960726,6.846339296415836,11.146252525648826
1760514536.9279804,-4.368246155846796,-0.07922427145835909,0.9128605554062783,-0.4784603878957059,8.763073209998865,7.237932754850844,10.607571749922045
1760514536.937959,-4.326035924008522,-0.0929939459924675,0.9048332031950611,-0.4869668979810566,8.472125059360188,7.557166777525307,9.940172432191462
1760514536.9479334,-4.329195967280043,-0.10678734150145171,0.8990262365119158,-0.49531106338975694,8.012818621544339,7.786036799672278,9.17205897783732
1760514536.9579449,-4.371480836433313,-0.1192231422357086,0.8951889621733949,-0.5029223527894526,7.384129991837008,7.914765759240026,8.339706688188093
1760514536.9679468,-4.444135795726768,-0.1290694100025099,0.8928931356461011,-0.5092252449491019,6.596367942488156,7.94087047311937,7.485269831208266
1760514536.977948,-4.5367254887520785,-0.13538843193457506,0.89162426373163,-0.5137078620180981,5.670395762357524,7.867896910536664,6.653292911487756
1760514536.987978,-4.638117459623273,-0.13764716726802576,0.8908659561605571,-0.5159855583391797,4.636069875324781,7.7043056948093875,5.887172226663496
1760514536.9979527,-4.737529222472672,-0.13578120402149846,0.8901681833619489,-0.5158541631257553,3.5300692945102305,7.46284951221997,5.225602684863594
1760514537.0079596,-4.825537374528312,-0.13020262003592026,0.889193226131091,-0.5133253980255847,2.393346457662913,7.1605623720722535,4.699247480937347
1760514537.0179572,-4.894947622677604,-0.12174967298972333,0.8877363505416671,-0.5086369676872224,1.2684639147913814,6.819235211754089,4.3278965323798
1760514537.0279381,-4.941442514689812,-0.11158771270129285,0.8857230093104869,-0.502233438350098,0.1970710768105477,6.466038404940408,4.1184145771872664
1760514537.0379512,-4.963953363535483,-0.10107894974277351,0.8831898003265327,-0.4947192990127529,-0.7822886335594904,6.133808566207528,4.063780613680329
1760514537.0479472,-4.964731284511871,-0.09163916991327918,0.8802595443771563,-0.48678999044460913,-1.6359519458569165,5.860470082679261,4.1434522791925135
1760514537.0582008,-4.949113043384831,-0.08459492048098953,0.8771194900982778,-0.47914943930422144,-2.3365048808254087,5.687126732398639,4.325146095083767
1760514537.0679579,-4.92499420090606,-0.08105037133861995,0.874006686169778,-0.4724242064895218,-2.8638251154270367,5.6545391806722565,4.567930502647922
1760514537.0781465,-4.902040713812437,-0.081771215365487,0.8711990078981189,-0.4670852901425078,-3.2058879521422257,5.797987920443809,4.826323231076719
1760514537.0879517,-4.890691712587143,-0.08709263486206081,0.8690068821516558,-0.46338883043056545,-3.3593976669704535,6.14087861443691,5.05491343835827
1760514537.0984707,-4.90102686417405,-0.09685795320924209,0.8677604253566772,-0.46134561110485434,-3.330264447254152,6.687828156878392,5.212931842542698
1760514537.1080484,-4.941588082537066,-0.11039388335112121,0.8677888921759892,-0.46072570402713536,-3.1339129461831394,7.418304985939903,5.268189803820641
1760514537.117999,-5.018257851396584,-0.12652813213563097,0.8693924014874018,-0.46109918894035656,-2.7953794725093584,8.28210392284355,5.199899656545721
1760514537.1279826,-5.133307419705878,-0.1436556192862797,0.8728081398628696,-0.4619075904537397,-2.349116099414601,9.197940683091877,5.000053899281426
1760514537.138032,-5.284736058868154,-0.1598588318826686,0.8781739543343636,-0.4625548171023401,-1.8383663110944237,10.056216201565789,4.67324810061161
1760514537.148017,-5.466018935085482,-0.1730830344355319,0.885492124122326,-0.4625026422299727,-1.3139273560301536,10.726536320900697,4.235045959359338
1760514537.157977,-5.66635497663707,-0.18135720903050126,0.8945963564833693,-0.46135564953443625,-0.8321083646100342,11.069927185900836,3.709175423476528
1760514537.168096,-5.871453133437274,-0.18303935059483617,0.9051263423837494,-0.4589242339265321,-0.4517673661804523,10.954929582065505,3.123992193318574
1760514537.1779811,-6.064823027683777,-0.177054794696839,0.9165161600231563,-0.4552599526429168,-0.2304742831573585,10.275964684284181,2.5087400003692086
1760514537.187978,-6.229458939236994,-0.16309186509499612,0.9280042426926656,-0.45066251132050256,-0.22007037432352194,8.971634941652587,1.8901694060131733
1760514537.1979623,-6.349737844009061,-0.14172039162623717,0.9386723843591835,-0.44565973118803337,-0.46211059477727584,7.040088136654153,1.2900379362663805
1760514537.2079985,-6.413300432651359,-0.11440398459269549,0.9475190292700896,-0.4409602972511473,-0.9838028162770422,4.548397427345881,0.7238863777535179
1760514537.2179797,-6.41265306145383,-0.08338577780942306,0.9535680666786326,-0.43737524814282097,-1.7950359479088027,1.6332716441224635,0.20125675049343886
1760514537.22811,-6.346226558316648,-0.05144156058504175,0.9560078957734781,-0.43570192083333587,-2.8869103777057257,-1.5085566636876555,-0.27280329205665715
1760514537.238056,-6.218670735594259,-0.021516964213456807,0.9543450917565538,-0.43656927248419974,-4.231918914780603,-4.640206970789621,-0.6954707319334835
1760514537.2482195,-6.040267168465524,0.003703789462502715,0.9485434822256503,-0.44025955064029754,-5.785706579365802,-7.512578553753957,-1.0639472294698664
1760514537.258087,-5.8255025496535096,0.022220500229040686,0.9391099768603415,-0.44654306534490706,-7.490266065385976,-9.89603237882378,-1.3742874120860384
1760514537.26797,-5.59102313368499,0.03304122466610036,0.9270931017286747,-0.454577403202482,-9.278476946817865,-11.610172344972382,-1.6220256019931116
1760514537.2782347,-5.353331856188888,0.03633278828047985,0.913981391714841,-0.46291852900669883,-11.079936752723807,-12.5460201927647,-1.8048576992057654
1760514537.2881472,-5.126649258468472,0.0333601600266073,0.9015167680843044,-0.4696677106988378,-12.827940128335467,-12.676337163276349,-1.9269354377006693
1760514537.2979686,-4.921321428036821,0.026225129009399755,0.8914587759887245,-0.47274324141826596,-14.467210667028366,-12.052466434884577,-2.0036848313134517
1760514537.3080194,-4.7430363067132415,0.01745720316360642,0.8853424944530204,-0.4702307146228672,-15.961630070066445,-10.789089014894921,-2.0656973518353934
1760514537.3179893,-4.592938625517314,0.009536316433243817,0.8842691838376642,-0.4607404596605867,-17.30083817422138,-9.040869786628578,-2.1602875691422403
1760514537.327984,-4.46855430426208,0.004435483575089726,0.8887604545610621,-0.4436936377292849,-18.504337250222903,-6.9764667761798185,-2.3497652454046674
1760514537.33798,-4.3652826208178475,0.003264919642274727,0.8986967572161274,-0.419472231759961,-19.62179726463889,-4.755424319937111,-2.706226971041455
1760514537.3479805,-4.278118299351557,0.006079105992786816,0.9133486991058388,-0.38939813483421387,-20.728743285823136,-2.51212741978116,-3.303546258870155
1760514537.3582091,-4.203248758932197,0.011875774175406457,0.9314950717492841,-0.35554339554616,-21.917672433143355,-0.3487783060460723,-4.20799963588654
1760514537.3682113,-4.139236685205222,0.0187775767697532,0.951607300370901,-0.3204082749259898,-23.285682935990465,1.6629769331217794,-5.469392100817248
1760514537.3780267,-4.087617980610144,0.02435530726676349,0.9720698036511547,-0.28652918740381583,-24.92060694318964,3.4739684374528252,-7.114514450803705
1760514537.3879676,-4.05287884238383,0.026032874234202842,0.9914010501521603,-0.2560902643310121,-26.88816596050677,5.046194399284773,-9.14429688546018
1760514537.3979766,-4.041892387212422,0.021506263076307944,1.008440754292172,-0.23060889398350956,-29.222664315828645,6.341718089518044,-11.53525681663357
1760514537.4080522,-4.062980745901572,0.009107627699501278,1.0224746513628418,-0.21074911377475447,-31.92316446798251,7.314671949260439,-14.244955319267657
1760514537.4179902,-4.124814956996786,-0.011946132217355325,1.0332800829592057,-0.19629093370431897,-34.95601894171191,7.908154300866055,-17.22034282594707
1760514537.427966,-4.235366211251078,-0.04145967646696375,1.0410916603872813,-0.1862535718394149,-38.263266521660036,8.056402550804536,-20.407244187323567
1760514537.4381769,-4.401080825479659,-0.07832845222322578,1.0465009020824683,-0.17914180766686622,-41.775063020668995,7.69135284599212,-23.75895405279471
1760514537.4479764,-4.626381893143815,-0.12074547722147416,1.050310800137231,-0.17326156705421503,-45.42337822536655,6.751894598083245,-27.242070958072492
1760514537.4579852,-4.913520956485783,-0.16649209727588143,1.0533661354154278,-0.16703700116964101,-49.153916096389096,5.193904201161383,-30.838255315615623
1760514537.4679785,-5.262729934085695,-0.2132436840207375,1.0563796431287442,-0.1592620295066799,-52.93366627684245,2.999366383434096,-34.54143240466234
1760514537.4780362,-5.672571889840927,-0.2588257996150672,1.0597767040989872,-0.14923856893360313,-56.75251202867102,0.18334337369795714,-38.3509330251044
1760514537.4879844,-6.140368911370571,-0.3013799709861866,1.0635840517604982,-0.13678672364273037,-60.61860471913298,-3.201959964420025,-42.26198469700109
1760514537.4980655,-6.662596371879846,-0.33943049784532475,1.0673865643271794,-0.12214653536570437,-64.54847418977978,-7.066391229387645,-46.255607096499766
1760514537.507965,-7.235166751733441,-0.37187380202653575,1.0703690219994977,-0.10581559382847411,-68.55385428258774,-11.28441119652681,-50.29015313964773
1760514537.5179882,-7.853571347735982,-0.397932726677027,1.0714467161678713,-0.08837725872396807,-72.62778173594435,-15.700968138810232,-54.296427412066805
1760514537.528012,-8.512892853633874,-0.4171238081310805,1.0694704347463566,-0.07036921037251741,-76.73255737419083,-20.14043695932319,-58.17758722029741
1760514537.5381587,-9.20773557776184,-0.42927081409875595,1.063470178000854,-0.052222028708696945,-80.79167123319687,-24.4180310598399,-61.81406871170816
1760514537.5480392,-9.93213618517248,-0.4345648458692755,1.052883679030155,-0.03426741057089405,-84.68697927336852,-28.352639511421515,-65.07282813937758
1760514537.5580027,-10.67951532234867,-0.4336344726278183,1.0377087555399331,-0.016786944539938654,-88.26154347620029,-31.77966567346065,-67.81947215153914
1760514537.5679793,-11.442713933552477,-0.4275713136491328,1.018531755892989,-5.955506650394426e-05,-91.32782944148003,-34.5623833398386,-69.93147554798506
1760514537.5780864,-12.214134952131143,-0.41787114886647875,0.996420050926545,0.015624090056443643,-93.68048026603914,-36.60071748325746,-71.31064788412124
1760514537.5880165,-12.9859880783195,-0.4062878595551833,0.9727109826465509,0.02998708093419904,-95.11258514272816,-37.83709178258351,-71.89327386328584
1760514537.5983279,-13.750616028022199,-0.3946310834011446,0.9487602596678089,0.042815715513655817,-95.43411900753217,-38.2596484346202,-71.65681699181216
1760514537.6082718,-14.500865390341156,-0.3845513568595661,0.9257171737488489,0.054006656165216306,-94.49100746935382,-37.90324740950594,-70.6225711735242
1760514537.618353,-15.230454634290487,-0.37735171953604174,0.9043762688162457,0.06358931597027209,-92.18308837694417,-36.848121527396174,-68.8540683304162
1760514537.6280806,-15.934288475813606,-0.3738531873827771,0.8851267702326955,0.07171545946625081,-88.47906575471987,-35.215417845215725,-66.45144583487624
1760514537.6380231,-16.60867372017611,-0.3743287394259195,0.8679938885813123,0.07862491140530752,-83.42636425623108,-33.15874265563573,-63.54240711419566
1760514537.6479993,-17.25140519080392,-0.3785079305344437,0.852747333228633,0.08460543338520547,-77.15380290507267,-30.851453652041762,-60.270811731165786
1760514537.6580772,-17.861707910969447,-0.38564512344271673,0.8390426995836947,0.08996270176794395,-69.86563043261334,-28.47050877407005,-56.784184829380514
1760514537.6680286,-18.440041241884344,-0.39464091484899305,0.8265593914177007,0.09500745150425914,-61.82688516946899,-26.178741234963784,-53.22152492593296
1760514537.6780543,-18.987791223411758,-0.4042048327975163,0.8151044904758027,0.10005699814061242,-53.34184010241558,-24.108139084449153,-49.702802371359105
1760514537.687977,-19.506896008880116,-0.41304176780349205,0.8046643565941418,0.1054411357367644,-44.72867694057572,-22.346808155895776,-46.32146954206248
1760514537.6980047,-19.99946088423242,-0.42003506496553744,0.7954006437947829,0.11150060617732985,-36.293989834675614,-20.931664668623494,-43.1409882670031
1760514537.7080815,-20.467420020384733,-0.42439335879492257,0.7876003139945498,0.11857051358783856,-28.31034538751165,-19.847704363149262,-40.19572611733171
1760514537.7181218,-20.912291967063652,-0.42573337093737046,0.7815971022352518,0.12694768127349135,-20.999320886736452,-19.03336818371663,-37.49571568586879
1760514537.7279766,-21.335058703843924,-0.4240870660674028,0.7776836148392287,0.1368457732814669,-14.521472742510346,-18.390525098205423,-35.03399251859121
1760514537.737987,-21.736179168982165,-0.41984219582144927,0.776029989102014,0.14834466008473388,-8.973619189988856,-17.79716266118471,-32.79479407243862
1760514537.7479765,-22.11573190697728,-0.413641847352623,0.7766199216211741,0.16134318011392554,-4.392727426925074,-17.12101539841356,-30.760950370076944
1760514537.7580013,-22.47366854203666,-0.4062746442695804,0.7792110168482255,0.1755272842701138,-0.7647655134223235,-16.232882309720683,-28.91927486380682
1760514537.7679734,-22.81014727870189,-0.3985808500299498,0.7833245862033195,0.1903659813994264,1.9636677480096252,-15.018956192299909,-27.263452205855437
1760514537.7782137,-23.125900591983715,-0.39138478678894667,0.7882684801003143,0.2051432922801288,3.8731853248014696,-13.391772479785041,-25.794551811107457
1760514537.7880573,-23.42257551034904,-0.385449007292046,0.7931935074618723,0.21902586339051797,5.0608077719390305,-11.299268151468572,-24.519694282249688
1760514537.7981002,-23.702976073121476,-0.38143828106873046,0.7971793170702833,0.2311560182476167,5.631727191537444,-8.731115465498887,-23.44951950322216
1760514537.8079996,-23.971143907213403,-0.37988360840571156,0.7993399675678897,0.24075303485870914,5.694056248188704,-5.721314007539343,-22.595013318336928
1760514537.8180761,-24.23223637194988,-0.38114399990604686,0.7989343181743009,0.24720367702263518,5.3562166903689405,-2.3462476823195795,-21.964068204536957
1760514537.828085,-24.49219666076609,-0.385371095129278,0.7954642511071355,0.2501257721729903,4.726055997149171,1.2819589391749193,-21.55801084759885
1760514537.8380692,-24.7572475443414,-0.392485513735573,0.7887454690181466,0.24939453851470486,3.9105492050131874,5.026144352411166,-21.368293475205945
1760514537.8481007,-25.03327197609757,-0.40217346958659117,0.7789397069924542,0.24512973646008024,3.015101375364236,8.737524616647638,-21.373600711148793
1760514537.8580112,-25.325164119795197,-0.4139091388779891,0.7665429150511998,0.23765051823249286,2.14192924095847,12.27003601868353,-21.537706152554318
1760514537.8679779,-25.636241315758696,-0.4270048648863085,0.7523315592241885,0.22741035519706504,1.3875563575608265,15.493725515889206,-21.808456386733916
1760514537.8780017,-25.96780185346427,-0.44068837775594016,0.7372768028193345,0.2149248578468281,0.8398625407915589,18.305519947370392,-22.118224256962463
1760514537.8879879,-26.318896407279166,-0.4542024992535436,0.7224410185450171,0.20070275236859947,0.5752404517350046,20.636114626056447,-22.386055399512184
1760514537.8979871,-26.686351421770215,-0.46691599418149426,0.7088720165919311,0.18518808063250364,0.656257453178991,22.45220161322903,-22.5215520706801
1760514537.9081972,-27.065038950289836,-0.47842384792576126,0.6975081698715435,0.16872125264975965,1.1299604934584022,23.7538172987655,-22.430309679647113
1760514537.9180264,-27.448335373319118,-0.48860652481112443,0.6891028908438065,0.15152640336168197,2.026772090899742,24.56735314076182,-22.020454536385905
1760514537.9281797,-27.828668440058472,-0.49762028488483495,0.6841715054269601,0.13372967003725716,3.3598959463240567,24.93571580572101,-21.20955951905025
1760514537.938035,-28.198037518862318,-0.5058088905898682,0.6829606065442525,0.11540649021426591,5.125250570477479,24.907919262053934,-19.93100835934476
1760514537.948093,-28.548413538280247,-0.5135544049074313,0.6854406109522104,0.09664811102325847,7.302068073226668,24.530603025461115,-18.13884215307715
1760514537.9580178,-28.871975269063935,-0.521108487476307,0.6913238375490215,0.07763143668445728,9.854331940821188,23.843352539400957,-15.81034444220004
1760514537.9680068,-29.161198617737195,-0.5284543167029448,0.7001094749410919,0.058674208988672046,12.73315784304501,22.87841138643443,-12.946095272527153
1760514537.9780078,-29.40886259745657,-0.5352384593645807,0.7111526524124768,0.04026015998552187,15.880093294055683,21.663985572598193,-9.567800538470772
1760514537.9880035,-29.608053295231837,-0.540787551592085,0.7237493938086412,0.023025464910484864,19.231191823501174,20.229509428370186,-5.7146654409299975
1760514537.997997,-29.752234269930778,-0.5441994733465936,0.7372245832743876,0.007706275061063099,22.721626022094544,18.6112752709053,-1.4392815591674561
1760514538.0080442,-29.83541911002495,-0.5444820915253705,0.7510076615387855,-0.004944938773575566,26.29050224943441,16.857459539787094,3.1960807452022504
1760514538.0180314,-29.85244185277457,-0.5407056575927114,0.7646821673859114,-0.01426057590808054,29.885404112204007,15.03222293211688,8.122171573860388
1760514538.027983,-29.799284637667135,-0.5321371420387475,0.7780016634929061,-0.01976068069053676,33.46607760672851,13.218793277009254,13.264256405716893
1760514538.0379786,-29.6734009276006,-0.5183372693133387,0.790874982889083,-0.021243370858534463,37.00665829026358,11.521224477993997,18.542610308905243
1760514538.0480056,-29.473974131464473,-0.4992189894194513,0.8033341454719233,-0.01885278183950906,40.49595088743617,10.064104063795591,23.87246260475947
1760514538.0581682,-29.202070866513385,-0.4750784322189946,0.8155038990667682,-0.013116062388806323,43.935474809756485,8.989156986319825,29.16387209794329
1760514538.0680196,-28.860672638380148,-0.4466105962554797,0.8275892236055724,-0.004939866151376998,47.33525932965449,8.44769537486561,34.32189238384549
1760514538.078088,-28.454589589947528,-0.4149168812032746,0.8398859440408593,0.004443711922783359,50.70768711247439,8.588283639274389,39.24724049867134
1760514538.0879948,-27.99027245112708,-0.38150503982467326,0.8528043734357617,0.013587624512315467,54.05998842929584,9.539776410947242,43.83758095398168
1760514538.0980542,-27.475544344143234,-0.3482731037564577,0.8668845571846308,0.020992167828946112,57.38620136341323,11.390914439034583,47.98949427665268
1760514538.108008,-26.919273465677296,-0.3174566378554917,0.8827791274488863,0.02530021090151753,60.659487308907366,14.168749172901268,51.60120207096435
1760514538.1181576,-26.331003143169717,-0.29150958191726595,0.9011849084648822,0.0254940579906841,63.82564642095223,17.819077203765154,54.57612252193715
1760514538.1280727,-25.72055144147638,-0.27289221349920906,0.9227146845674484,0.021056522979306082,66.79861054362665,22.192568878248128,56.827277908086884
1760514538.138139,-25.09759189463602,-0.2637589342761976,0.9477157554666003,0.012060158458387142,69.4587238531396,27.040220765732023,58.28246667623144
1760514538.148339,-24.47123090476487,-0.26556913332685683,0.9760618244904815,-0.0008426526052844577,71.65478217426582,32.02111093406809,58.88998236810193
1760514538.1581185,-23.849604673383972,-0.27867913344954576,1.0069659552164894,-0.0165401906746902,73.21093930300569,36.72421419400264,58.624535775996335
1760514538.168078,-23.239528092785037,-0.30200658623264914,1.0388774207900164,-0.033682655656900005,73.93942784720112,40.70424191835969,57.49291629411517
1760514538.1782122,-22.64623961827167,-0.3328825756444823,1.0695232080027255,-0.0509695124984078,73.65934443106332,43.5290663486829,55.53878345212923
1760514538.1880188,-22.073297318023812,-0.3672027536854665,1.0961261690723496,-0.06744243919103625,72.22047226076675,44.83337303378345,52.845760453478604
1760514538.1983235,-21.522682675260427,-0.3999343171076501,1.1157794800786938,-0.08270689610861863,69.52950134765136,44.37036810899312,49.53772897913116
1760514538.2080045,-20.9951464022501,-0.4259303375158891,1.1259024601360077,-0.09701558588305709,65.57455802447562,42.051898297356196,45.775101792722744
1760514538.2180417,-20.49077761283609,-0.44088680554678145,1.1246742044822917,-0.11118876079992566,60.44323932403445,37.96843025894088,41.746208723222985
1760514538.2279902,-20.00970297261417,-0.4422058918487883,1.111352405767567,-0.1263963675233719,54.32971448469879,32.38404981343454,37.65395632794187
1760514538.238007,-19.55274781830192,-0.4295307067120763,1.0864238591733582,-0.14385497262729116,47.527879683165125,25.706683342636243,33.69938591429595
1760514538.2480512,-19.121844952295305,-0.40478987604326794,1.0515775505336984,-0.16449494501130768,40.40974469131268,18.43845389754198,30.065042530011027
1760514538.258233,-18.719988986606097,-0.37171939153774675,1.00952393787142,-0.188652850317343,33.39082486709686,11.114431820209433,26.901475275627924
1760514538.2680106,-18.350627432275722,-0.33498464200447003,0.9636992112606115,-0.21585322010560423,26.886882353935025,4.23967646493315,24.319332246833397
1760514538.278097,-18.016548589933638,-0.29915092377977753,0.9178957421283735,-0.2447479772028512,21.268350787756606,-1.765675286177061,22.38763669195848
1760514538.2881467,-17.718519011435518,-0.26778678834656505,0.8758600983080217,-0.2732588529737838,16.81957647429096,-6.605365315678281,21.13678802439639
1760514538.29801,-17.454056313393888,-0.24291586420758893,0.8409028410596056,-0.29891604266934796,13.709244849636042,-10.125316239441318,20.56361837829967
1760514538.3080153,-17.216729915000464,-0.22490051748162693,0.815565353306107,-0.3193254898577891,11.976204540200975,-12.310479501553926,20.635964367870294
1760514538.3180215,-16.99625573897042,-0.2127087113428504,0.801382938465232,-0.3326533989189009,11.532025875668252,-13.263206565018457,21.295428035305957
1760514538.3280096,-16.779441071933686,-0.20442890988270324,0.7987707379303581,-0.3380064435616992,12.17883673716189,-13.16904795174212,22.458542617663703
1760514538.3380299,-16.551816190576275,-0.19786923819821342,0.8070424907198099,-0.3356133701041558,13.6388359555439,-12.257421620764376,24.017695046070916
1760514538.348078,-16.29962748045489,-0.19109671501049838,0.8245535505638726,-0.32676943568698263,15.590619799802793,-10.764478028568844,25.843520157496442
1760514538.3580317,-16.011805296774224,-0.18282211757152522,0.8489411434903315,-0.31356957329379104,17.707058105146473,-8.903912723032201,27.79008193915751
1760514538.368074,-15.681562051311365,-0.1725940745122689,0.8774213331135665,-0.29850672995351274,19.68983965299354,-6.8490493013583595,29.703248985573417
1760514538.378028,-15.307385404115665,-0.16081074558647526,0.9070984171987246,-0.28403438110247853,21.29685504420072,-4.726937887745609,31.43162085659869
1760514538.3880908,-14.893315724992561,-0.14857827248354177,0.9352490671158254,-0.27218571563946836,22.360063545303284,-2.6229495277579327,32.83852874235115
1760514538.3983495,-14.448501699436331,-0.13745005124494566,0.9595558599179559,-0.26431515987508997,22.793053003953855,-0.5926123598613933,33.81326335331635
1760514538.4080205,-13.986109750726422,-0.1290871742231556,0.978277442041307,-0.2609931698775615,22.58885005133288,1.323582549833651,34.27983244094306
1760514538.418095,-13.521733864838849,-0.1248954448010252,0.9903525800067539,-0.2620523199851661,21.809525376764203,3.086769709413579,34.2020839726542
1760514538.4280355,-13.071517509640273,-0.12570940012851767,0.9954409644169949,-0.266755570351483,20.569753896124652,4.651165701368183,33.58471475978544
1760514538.4380853,-12.65024836055113,-0.13159435369563774,0.9939026369279257,-0.27403693050670974,19.01680945320915,5.96220582048574,32.470321178501585
1760514538.4480243,-12.269697594747385,-0.14181359009934152,0.986712909536059,-0.2827537869718786,17.30961186164675,6.961178032900629,30.93314405405752
1760514538.4580097,-11.937429594869304,-0.15496181734812342,0.975310937104707,-0.29189542242332017,15.599427227622817,7.5944305374304175,29.070492946303283
1760514538.4680264,-11.656210899902586,-0.16921791080849913,0.9613945538091122,-0.3007143702879327,14.014498899053363,7.8242801829274775,26.992997361781434
1760514538.478012,-11.42403384420186,-0.1826451676833468,0.9466927889969459,-0.30877431264931515,12.65009198938379,7.638757420061955,24.814809690043653
1760514538.4880226,-11.234677990304336,-0.19347294726377132,0.932755205582375,-0.31592689164990984,11.564307524432877,7.0580126858380465,22.644700464228634
1760514538.4980235,-11.078676642593734,-0.20031622437406216,0.920790238768357,-0.3222391508320386,10.778992694328247,6.136171062916158,20.578723543071415
1760514538.508158,-10.944531805632844,-0.20231317582922767,0.9115707627889491,-0.32789837868173727,10.284469772609174,4.958382556058522,18.694871968382937
1760514538.5180366,-10.820018644083506,-0.1991782320042972,0.9054106202017571,-0.3331210234199114,10.04662860235738,3.6336132473626566,17.04992723819116
1760514538.5280082,-10.693432118600356,-0.19117874205239696,0.902203510293015,-0.338084841944742,10.015019471948708,2.2842551098585506,15.67851711022829
1760514538.538054,-10.554650537506815,-0.17904982333948657,0.9015078807662735,-0.34289230655970576,10.13082888095459,1.0338990779460508,14.594218351218641
1760514538.5480034,-10.395922099206848,-0.16386600649733427,0.9026591008078417,-0.34756396001661366,10.333946863283623,-0.005292424962275738,13.792357191055693
1760514538.5580323,-10.212318775096417,-0.14689004535822195,0.9048910770899138,-0.3520544590052648,10.568665420050062,-0.7441775007277807,13.253991261458628
1760514538.568036,-10.00184287235228,-0.12941846675057156,0.907451305956485,-0.3562808659053196,10.787820307207364,-1.125832953055902,12.950452303123678
1760514538.578276,-9.765211064956253,-0.11264086833196607,0.909695854364934,-0.3601523405844872,10.955378850466897,-1.1311962176378547,12.847826758605033
1760514538.5880153,-9.505374614253322,-0.09752645927394298,0.9111547879941164,-0.36359285303757544,11.047597570945491,-0.7803520520640719,12.91085025517523
1760514538.5980194,-9.226858548199889,-0.08474692004995427,0.9115642603150833,-0.3665528771144156,11.052954554462938,-0.1292042052997447,13.105861173245376
1760514538.6080532,-8.935013859728356,-0.07463965205789928,0.9108674574055221,-0.3690105537762603,10.971122371772779,0.7380780407208619,13.40265651359286
1760514538.618405,-8.635276492342362,-0.06721109290961963,0.9091908415201553,-0.370966214429171,10.811283571208754,1.7198175922779844,13.775278651748332
1760514538.6283512,-8.332518652983781,-0.06217672801020743,0.9068036919631829,-0.37243573140969394,10.590084698983006,2.7092946149693113,14.201900940893642
1760514538.6385148,-8.030563827475753,-0.05903204972040589,0.904068445489124,-0.37344767533230744,10.32946963627215,3.607190947646802,14.664058423188683
1760514538.6481035,-7.73191631520418,-0.057146070702550414,0.9013880028400361,-0.3740470759014855,10.05454392206645,4.332333680921689,15.145494470209206
1760514538.6580942,-7.437728974501346,-0.0558661865678375,0.89915478738248,-0.37430570001781693,9.791526372044247,4.82936987598809,15.630883996308947
1760514538.668334,-7.14800076330822,-0.054620828620753105,0.8977053154004867,-0.37433619317102557,9.56576823125261,5.072519858389292,16.104663584479248
1760514538.6783354,-6.861961195976917,-0.053004863377594275,0.8972836094267241,-0.3743055582816497,9.399780898419092,5.065184857923931,16.550154227398217
1760514538.6880164,-6.57856606936412,-0.05083286152239677,0.8980166415654384,-0.3744422125990393,9.311224110530443,4.835831562060478,16.94910765245662
1760514538.6980913,-6.297004880427402,-0.04814877025541848,0.8999040175456253,-0.37503069214707585,9.310880480416017,4.431147592274827,17.28175092754566
1760514538.7081041,-6.01711441086893,-0.045188275379346374,0.902821824989917,-0.3763902123248254,9.400784178750012,3.907862300986928,17.52735512782745
1760514538.7180328,-5.739611080083913,-0.04230103209003315,0.9065385891248061,-0.3788383190132737,9.57284609527282,3.324768183403643,17.665311074625848
1760514538.7280245,-5.466095272120665,-0.0398504943350634,0.9107411510117539,-0.38264669369128523,9.808422463835491,2.736293500084904,17.67664390284646
1760514538.7383177,-5.1988346374231,-0.038115508962442056,0.9150685502557501,-0.3879992808293829,10.079188171432719,2.188466613601277,17.54582499867644
1760514538.7480102,-4.940386838614729,-0.03721805334912952,0.9191505576836425,-0.39496202766462457,10.349385221299562,1.7174109959299977,17.262655847536486
1760514538.7580054,-4.6931606883617905,-0.03709499232612136,0.922645305847039,-0.40346997695281567,10.579161066358823,1.3498664247320715,16.823942656264727
1760514538.7680192,-4.459025373156323,-0.03751922732831824,0.9252698245538089,-0.4133325275743038,10.72846829953101,1.1048632789623625,16.23468779645205
1760514538.778118,-4.23905629421628,-0.03816079785051754,0.9268188579067822,-0.42425300698542173,10.760940896160331,0.995638007136886,15.50859063372162
1760514538.7881188,-4.0334625806797595,-0.03866792811259773,0.9271703771764681,-0.43585688031319864,10.647253914717847,1.03108306769522,14.667745925191088
1760514538.79805,-3.84169318226073,-0.038745870644644145,0.9262796461959535,-0.44772435921149356,10.367634223664261,1.216348805198699,13.74153068637852
1760514538.8080323,-3.6626798654507975,-0.03821619192640861,0.9241664315103512,-0.4594248836022413,9.91335288876683,1.5525539989001111,12.764771451984807
1760514538.8180456,-3.4951529602705462,-0.03704696282405595,0.9209011403616749,-0.47055053227138977,9.28716082964994,2.0358443718824457,11.775369777004755
1760514538.8282888,-3.3379609802868653,-0.03535252657455612,0.9165948684913167,-0.48074403332529,8.502728321599358,2.6562262241798678,10.81161477658996
1760514538.8383803,-3.190337081680526,-0.03336871573565298,0.9113955404598405,-0.48971745027782354,7.583232243720217,3.3966865211494843,9.909415209516771
1760514538.8480372,-3.0520790473424846,-0.03141419880801428,0.9054884350302653,-0.49726052185562086,6.559308648549106,4.233093005962742,9.099649632561134
1760514538.8581219,-2.923636621842141,-0.029849743993975338,0.8990963024189141,-0.5032408729479779,5.4666396964278405,5.135249310524878,8.405795983889583
1760514538.8680189,-2.8061214695085512,-0.02904452616148771,0.892473763246628,-0.5075995396329682,4.343456652266562,6.069265829038878,7.841997645196323
1760514538.878152,-2.7012658668873786,-0.02935394309635087,0.8858930131363029,-0.5103444230767874,3.2282094962371253,7.001117074032544,7.41175329477727
1760514538.888208,-2.6113568373962104,-0.03110889531408624,0.8796217556547623,-0.5115428994084248,2.1575864966743405,7.900933876165316,7.107444130912673
1760514538.8981488,-2.5391649613625,-0.03461290345771601,0.8738979064475813,-0.5113137389722409,1.164980317687355,8.74729034407874,6.910888657066651
1760514538.9081223,-2.4878731005980566,-0.040140595153513633,0.8689074614722813,-0.5098177897670423,0.2794140607520528,9.53056562991148,6.795022990217638
1760514538.9180708,-2.4609919513243446,-0.047929228016540454,0.8647714114423777,-0.5072468184413934,-0.47512066496980704,10.254456870882048,6.72665422973096
1760514538.9280088,-2.462231414551028,-0.058155003582237345,0.8615452966603874,-0.5038107374108964,-1.0800000671075558,10.934931639128912,6.6700538187744085
1760514538.9380906,-2.4952865371805855,-0.07088903040114612,0.8592321398731385,-0.4997246928332082,-1.522089490354247,11.596318874640959,6.590986485900864
1760514538.9480536,-2.5635016679519644,-0.0860341406800109,0.8578068925783545,-0.4951981985671039,-1.7937735131022012,12.264772393466469,6.460652163674154
1760514538.9581544,-2.669399594038836,-0.10325186084358674,0.8572483816870384,-0.49042795674676093,-1.8930179899878083,12.959901587879813,6.258984924851575
1760514538.9683144,-2.8140994056522364,-0.12189581298333316,0.8575730377048697,-0.4855941166966044,-1.823568347505543,13.685849720788203,5.976812523983514
1760514538.9783251,-2.9966876569677536,-0.1409711982959743,0.8588634668563555,-0.48085734512551936,-1.5953489550249667,14.423415681207503,5.61652123147858
1760514538.988061,-3.213641041319081,-0.15913884694095454,0.8612844625191495,-0.4763527992886073,-1.22507249960117,15.12488067589356,5.191071401141621
1760514538.9980347,-3.4584166132350918,-0.17477695262198734,0.8650798487317332,-0.47217820424461043,-0.7370071573934148,15.712971861232647,4.721441291491105
1760514539.0081148,-3.721322637938937,-0.1861050603514361,0.8705459414876193,-0.4683766816395325,-0.1637958146614798,16.0848739498034,4.232808276008063
1760514539.0181503,-3.9897584635170396,-0.19136439514806075,0.8779810024115963,-0.4649192164930474,0.4528175196680975,16.121451372798443,3.7499750549467867
1760514539.028063,-4.24886831330329,-0.18903771320854262,0.8876138598655601,-0.4616947193717685,1.06152753566329,15.7009925675465,3.292681203026964
1760514539.03803,-4.482598239917461,-0.17808254485437308,0.8995183772574948,-0.45851640760016205,1.6014749942239115,14.715988402788117,2.8714824000787473
1760514539.048207,-4.675085906928757,-0.15814572593506646,0.9135243534370573,-0.4551512598679696,2.0029574946765574,13.090835403021648,2.484825464492807
1760514539.0580611,-4.812255838335785,-0.12972491435628364,0.9291406023908109,-0.45137413182784986,2.189120713563534,10.797979156218023,2.1178093004636036
1760514539.0681806,-4.883443190394491,-0.09424427887998321,0.9455114984055433,-0.44703966372011367,2.0789385960135633,7.8699144033892265,1.7429188682030226
1760514539.078343,-4.882833764160255,-0.05401744391172652,0.9614311758328373,-0.44215466309176243,1.591771059301895,4.40467061334367,1.3227703066514214
1760514539.0880165,-4.8104974035496895,-0.01208242821374398,0.9754360131039239,-0.43692456913691546,0.6536674870578103,0.5629906762681819,0.8146263479895274
1760514539.0981,-4.672818679837531,0.02808817321757063,0.9859826837775133,-0.43174548191181134,-0.7946657890456472,-3.443596919761588,0.17614280464534
1760514539.1080134,-4.482201037440273,0.06297410833225392,0.9916949805040276,-0.42712358148910906,-2.7887091463080225,-7.373221655317123,-0.6284911423255858
1760514539.1180253,-4.2560311413385925,0.08943909312618505,0.9916334152140206,-0.42352657574365254,-5.33079651924276,-10.980383826962322,-1.6230943056736116
1760514539.1280267,-4.015013234253953,0.10513851037344644,0.9855213970384068,-0.4211986061860607,-8.382225415312377,-14.04508089183642,-2.815862735340335
1760514539.138019,-3.7810893815015114,0.1088328678761604,0.9738652375914963,-0.4199888643639235,-11.858892666807586,-16.399456604877923,-4.198511430718404
1760514539.148066,-3.5752331197896363,0.1005499978235714,0.9579337902998446,-0.41924782163976376,-15.632551921693297,-17.94718713228501,-5.748636140536755
1760514539.1580336,-3.415431967459601,0.08156517500253856,0.9396023847844446,-0.4178325571024139,-19.53916168959914,-18.67225983225187,-7.435048969206863
1760514539.1681323,-3.315147750172844,0.05420360678008623,0.9210967373417178,-0.4142362486866137,-23.394599712297918,-18.63617202587025,-9.225139302970227
1760514539.1780312,-3.2824588053015136,0.021505019758080904,0.9046879631396704,-0.40682241034368954,-27.016540480941536,-17.96508380409925,-11.092803300298007
1760514539.1881022,-3.319962408198129,-0.013186668525688682,0.8923923927070393,-0.3941140110388045,-30.24984315625116,-16.83034551700116,-13.025310722590902
1760514539.1980178,-3.4253832153597865,-0.04664002795688974,0.8857240946007892,-0.3750735685875548,-32.9916619041122,-15.42665282437651,-15.027675232041002
1760514539.2081273,-3.592725074016072,-0.07609913938305765,0.8855354389711041,-0.3493158905838016,-35.21195209351776,-13.951787225029124,-17.12360092183908
1760514539.2180357,-3.813736788581236,-0.09954974368376429,0.8919623762968291,-0.3172137367867287,-36.965340872202596,-12.59069073900605,-19.35275783127802
1760514539.228061,-4.079443419270651,-0.1158666761238034,0.9044693340670291,-0.27987970192230033,-38.391505934631454,-11.50492868226652,-21.764821570170422
1760514539.238276,-4.3815201370840775,-0.12484320573052624,0.9219696899608476,-0.2390302052698956,-39.70302540887686,-10.826967803132845,-24.411238184484453
1760514539.2480397,-4.713343736734577,-0.12712143633993403,0.9429876534340301,-0.1967574625987908,-41.16169889451952,-10.657635512933426,-27.335955626173973
1760514539.2580273,-5.070630790884114,-0.12405319344637347,0.9658281951229887,-0.15525044747305555,-43.04617470203925,-11.064871849832315,-30.566405963445387
1760514539.2680736,-5.451644527385625,-0.11752144461343526,0.9887311259921882,-0.11651366969122467,-45.61505322476639,-12.082357923033795,-34.10589531780914
1760514539.2781086,-5.857012177526249,-0.10974499428411404,1.0099993753051282,-0.08213138160984851,-49.07030818439404,-13.707494542461236,-37.92832957724811
1760514539.288014,-6.289233973163075,-0.10307780558421421,1.0281048063121399,-0.05311404170009848,-53.525840477391036,-15.89914330624192,-41.97592820403666
1760514539.2980494,-6.751983972093002,-0.09980423667367329,1.0417814639731482,-0.029845496428273024,-58.98532564951201,-18.576228767722277,-46.16030251379315
1760514539.3081748,-7.249306427631617,-0.10192830620157212,1.0501127151680776,-0.012128534175305915,-65.33235545453263,-21.618564137703146,-50.36700478792744
1760514539.3180528,-7.784805706198021,-0.11096146506571813,1.0526087786151794,0.0006910872971013519,-72.33432374152352,-24.871075833287954,-54.463335021511625
1760514539.3281357,-8.360916947882766,-0.12772692016903467,1.0492617061114087,0.009553396071788896,-79.65970783092816,-28.152044577776714,-58.308769969431346
1760514539.3382707,-8.978330343056196,-0.152213138725761,1.0405604628893383,0.015501830831462443,-86.90657171683816,-31.26518918531118,-61.76688543069156
1760514539.3481855,-9.635624190519422,-0.18351719837581773,1.0274504093908083,0.01952415209780104,-93.63859166525667,-34.01457839315406,-64.71720799070795
1760514539.358091,-10.329140527289777,-0.2199130269968438,1.0112294797089632,0.02244270504740484,-99.42403903186081,-36.22071744179989,-67.06526189086053
1760514539.3680694,-11.053111602073285,-0.2590557264871086,0.9933872900379357,0.02486620325504549,-103.87315449400509,-37.735924760892544,-68.74934071380986
1760514539.3780572,-11.800015609518088,-0.29829466183090936,0.9754096744249734,0.027199073689956867,-106.67009861869607,-38.457238500712,-69.7431725656165
1760514539.388054,-12.561109037532443,-0.33503216653867696,0.9585823830943885,0.029690085634964714,-107.59683451482711,-38.3353304887346,-70.05437328197017
1760514539.3980567,-13.327059092739221,-0.36705344352393054,0.9438282687834941,0.03249330867531356,-106.54756061581439,-37.37823234838942,-69.7191844409278
1760514539.4082723,-14.08859100437693,-0.3927703628467818,0.9316043206921618,0.035715796543339194,-103.53341977872402,-35.6493862964923,-68.79451382333973
1760514539.418123,-14.837072072972573,-0.411349665780862,0.9218740916770279,0.03943949249090426,-98.67802288047874,-33.260669935567996,-67.34878846073484
1760514539.4281628,-15.564971926853602,-0.4227191444082109,0.9141586494767915,0.043722465665189905,-92.2048433005114,-30.362048570217986,-65.45341040986422
1760514539.438103,-16.266161876615964,-0.4274638803997306,0.9076544306155528,0.048594149020914156,-84.41789066605688,-27.12976663581379,-63.17641183664112
1760514539.4480333,-16.936042258694687,-0.426642274782859,0.9013929508825846,0.05405572671112021,-75.67743080087176,-23.754534445414574,-60.57922274591286
1760514539.4580271,-17.57151144554514,-0.42156507673934857,0.8944106998708112,0.060086679511558924,-66.37293493386713,-20.430494856254285,-57.716571004651286
1760514539.4680321,-18.170809664464077,-0.41358364256576624,0.8858996718276664,0.06665104156591026,-56.89567815128472,-17.345188776299704,-54.63877948279771
1760514539.47806,-18.73328178239131,-0.40392374487223326,0.8753183895476211,0.07369671939747952,-47.61314015139796,-14.67027892509028,-51.395302888471285
1760514539.488099,-19.259104630801485,-0.3935823424429176,0.862456500308525,0.08114716181073334,-38.846658924321005,-12.552430250023946,-48.03824947561822
1760514539.4980469,-19.749018028319085,-0.3832855585403224,0.8474573629899848,0.0888918134083857,-30.853177368487824,-11.103644432509654,-44.62476474493741
1760514539.5080526,-20.204088762132713,-0.3734947580732405,0.8308062828765789,0.09678499702064765,-23.811863332902547,-10.390727734896206,-41.2174579498849
1760514539.5183477,-20.625527731323096,-0.3644456410420256,0.8132858315653421,0.1046606552791689,-17.81678231298517,-10.424522664927188,-37.88252352639269
1760514539.528217,-21.014573543250606,-0.35620755406490656,0.7958913439068782,0.11236461481298735,-12.877066028194081,-11.150810476449957,-34.685817418706776
1760514539.5383992,-21.37244930495789,-0.3487514011131163,0.7797007637634299,0.11979851202178338,-8.925534055338346,-12.445762927869662,-31.687755869595158
1760514539.5480497,-21.700391302381032,-0.3420147544093616,0.7657082297915512,0.12696143286266684,-5.8353546096459885,-14.118789799455797,-28.938278601018737
1760514539.5581968,-21.999739170956175,-0.33595529799749035,0.7546515978548483,0.13397007815721965,-3.442573345230218,-15.924368789377075,-26.47306449982917
1760514539.5681152,-22.272068732387986,-0.3305886002054336,0.7468752607392872,0.1410412452323092,-1.5709934725473498,-17.58241919290037,-24.311712666791635
1760514539.5780528,-22.519341157529134,-0.32600943492251955,0.7422627575240549,0.1484338069256024,-0.05549760492314925,-18.804810160746005,-22.45792542077876
1760514539.5880723,-22.744034326014383,-0.3223950838159487,0.7402537380851062,0.15636583635643372,1.2395340535067783,-19.324331362822107,-20.901137138558042
1760514539.598106,-22.949215260027827,-0.31998757166660524,0.7399392218838335,0.1649350963613709,2.4088904005243847,-18.92209384931331,-19.61873028198367
1760514539.608069,-23.138512337939474,-0.31905532473984577,0.7402161173423444,0.17406928124813664,3.503083335307934,-17.449710023674726,-18.57804396606743
1760514539.618068,-23.315959666470405,-0.31984345152951627,0.7399756632497363,0.18351799802851715,4.532255301314744,-14.843492712846018,-17.737748786803422
1760514539.6280968,-23.485713394883028,-0.3225282012254405,0.7382957218889843,0.19288222310870046,5.475801427807358,-11.129130014011842,-17.048650323489923
1760514539.6381733,-23.651671928032876,-0.32718889862176337,0.7346028839771253,0.20166785976423232,6.295378888124617,-6.416629097718315,-16.454368316840295
1760514539.6482382,-23.817058720447513,-0.3338029511180575,0.7287718670598595,0.20934836336010956,6.948826575354216,-0.8865713635575952,-15.892484812676253
1760514539.6581566,-23.984041776953564,-0.3422635796389039,0.7211408133731092,0.2154231499719031,7.402861626946975,5.230220911076641,-15.296673028608067
1760514539.668205,-24.15346437877534,-0.352417153512692,0.7124402551178253,0.2194615786768969,7.643056686035252,11.676676699120765,-14.600085616906581
1760514539.6781285,-24.32474397318227,-0.36411403799848907,0.7036543028181355,0.2211261735437023,7.68029017570136,18.19371397129107,-13.739951307371474
1760514539.6880383,-24.495962955548357,-0.3772626598856424,0.69584779398404,0.2201723798523145,7.553416134795851,24.541400027921227,-12.662943848972395
1760514539.6980574,-24.664135353811286,-0.3918731298961416,0.6899980054821967,0.2164252564714374,7.32825614181852,30.51450938108788,-11.33052332439507
1760514539.708174,-24.825598052754838,-0.408075841670824,0.6868631131777627,0.2097373908547986,7.093247637375091,35.95126014908757,-9.723229960327169
1760514539.7181935,-24.976452521557597,-0.4261028748016496,0.6869047805466337,0.1999375775030395,6.952334043031005,40.73534937024834,-7.842954774843212
1760514539.7281306,-25.11297810318287,-0.44622657655342,0.6902655132015535,0.1867848091759362,7.0160190767943975,44.79239467356102,-5.7125515642336975
1760514539.7382078,-25.231951058081727,-0.46865940977125503,0.69678987688847,0.16994444539995904,7.391830596514193,48.082471345681654,-3.372685145414575
1760514539.7481682,-25.330829022704314,-0.49342934882653716,0.7060756111615744,0.14900129154431418,8.175568770800282,50.59075531072966,-0.8763469955379167
1760514539.7583184,-25.407789677245116,-0.5202540335676171,0.7175441894844802,0.12351729260353932,9.444557538958314,52.31841670086324,1.7181426471734338
1760514539.768086,-25.461638084721262,-0.5484435741874054,0.7305262793637157,0.09313109402771308,11.253723479885279,53.27578242917213,4.354663233585422
1760514539.7781284,-25.491614975592352,-0.576863083395852,0.7443616836905833,0.05768614739128975,13.634798799339027,53.47930278632849,6.986423523623277
1760514539.788161,-25.4971457287504,-0.6039774133728982,0.7585127168523043,0.01736668494406936,16.598375771505744,52.953021309571994,9.581933605352543
1760514539.7981172,-25.477567813919926,-0.6279837339016217,0.7726848837656952,-0.0271824786004314,20.137984074461222,51.734181478909676,12.129201312151048
1760514539.8080866,-25.431868740866847,-0.6470204315751512,0.786942488453289,-0.07477721893866401,24.234864310983387,49.88148063587053,14.637587663210303
1760514539.818088,-25.358463427917215,-0.6594274996220162,0.8018010674062656,-0.12367910814182385,28.861754872362486,47.48350189086765,17.136817821218617
1760514539.8282542,-25.255040415057888,-0.6640198633426451,0.8182715573211057,-0.1716578619373459,33.98393047548814,44.66429407135225,19.67284922576645
1760514539.8381028,-25.11850720192157,-0.6603172431952155,0.8378230428831052,-0.21612830091242546,39.55605483618027,41.583213952359344,22.300659805939656
1760514539.8481562,-24.94506309687568,-0.648660549103128,0.862229518135432,-0.2543411512043057,45.51419769385448,38.4271056443878,25.074442387954335
1760514539.8583446,-24.7304220787992,-0.6301572925887051,0.8932836408776326,-0.28360092402045733,51.763578821047275,35.39450584717632,28.036090926453696
1760514539.8684733,-24.47019820824641,-0.6064510088917359,0.9324005619930646,-0.30149760999706826,58.16405498035761,32.67344363745065,31.20319080055938
1760514539.8781397,-24.16045170659507,-0.5793787844226128,0.9801814216592653,-0.3061606334050685,64.5167486424327,30.41611018385272,34.55795060006936
1760514539.8881416,-23.79837332472823,-0.550619681303106,1.0360330433582086,-0.2965481801345639,70.55617554934913,28.71491746779688,38.03864961952021
1760514539.8980474,-23.38305725591592,-0.521425274358076,1.0979353616421017,-0.27275976491271037,75.95240909860684,27.585069119621608,41.535240237470354
1760514539.9081738,-22.916281884713545,-0.4924836927879491,1.162419832843999,-0.23631753962883176,80.32690937709935,26.958428248539036,44.89066248086404
1760514539.9182127,-22.403190174668165,-0.4639306180646821,1.2247863249141981,-0.19032783217036886,83.28350775687146,26.691791927146014,47.90904841676641
1760514539.9280589,-21.852745062055664,-0.4354957297773022,1.279551626951045,-0.13942821563456997,84.45288188020285,26.589581251902324,50.37122467836702
1760514539.9380927,-21.277835403935484,-0.40675494980976734,1.321089146332613,-0.08945253721590955,83.54527208091498,26.437006266688357,52.056808321126596
1760514539.9480488,-20.69492787813316,-0.3774377723617378,1.3443836310305726,-0.04680177143068093,80.40306677706226,26.036267678441533,52.77089128933486
1760514539.9581423,-20.123200512089795,-0.3477138168404842,1.345790431518728,-0.017582611914379508,75.04323448396306,25.23694822661864,52.37206918281002
1760514539.9682953,-19.583152662754237,-0.31836545213463285,1.3236678170759197,-0.00665182141308765,67.68019409781775,23.953481159234396,50.797719616245935
1760514539.9781284,-19.09476030032202,-0.290762691825324,1.2787579600668744,-0.016755752286973995,58.72268227768562,22.16702471585613,48.08228955531508
1760514539.9880612,-18.67532810228313,-0.2666040539067529,1.2142347234700688,-0.04795609971926546,48.74272472085491,19.914316255585394,44.36505601327129
1760514539.998061,-18.337272939218188,-0.24746595108107533,1.1354033023474692,-0.09748154043987438,38.419748727604265,17.269879965362833,39.88526602911377
1760514540.0080838,-18.086146061022774,-0.23428853264944313,1.0491018005574981,-0.1600596493820256,28.46717837984804,14.328942937597654,34.96439535177614
1760514540.0181713,-17.919246402052895,-0.2269800668920225,0.9628976613295535,-0.22868677700994836,19.551937802873308,11.196475536637307,29.97706963407863
1760514540.028147,-17.825166495215353,-0.22430500423807148,0.884193310455964,-0.2957019668220351,12.218798554988862,7.983913910428746,25.3136822674103
1760514540.0381384,-17.784512994520888,-0.22412060910855897,0.8193659617271022,-0.3539638025189821,6.8311287042251205,4.811161226917529,21.338878239947057
1760514540.0481217,-17.771846246196816,-0.22388910264673392,0.7730652882982967,-0.39790767128982923,3.5371263168718268,1.8092839732358488,18.350923650119324
1760514540.0581062,-17.75862816111239,-0.2212955585901451,0.7477680238696309,-0.42429268598957526,2.266245430404707,-0.8803586506418312,16.547441631958343
1760514540.0680888,-17.716735721105795,-0.2147894815923452,0.7436395360297371,-0.43251956225098975,2.755070525955461,-3.1128677535216505,16.002685966231898
1760514540.0783587,-17.621964842208794,-0.2039196168473966,0.7586956683251723,-0.4244912435302262,4.5967011172566465,-4.752579516567829,16.66009745611933
1760514540.0880718,-17.45695000877712,-0.18940329865817895,0.7892120552619374,-0.40407631597405796,7.3041093019327334,-5.690268253579829,18.341469355728172
1760514540.0981567,-17.213048611310118,-0.17293778841060106,0.8302998842058285,-0.376303581383433,10.376651543445968,-5.861857991550079,20.77126153552481
1760514540.1080668,-16.89094621555852,-0.15681401223964347,0.8765559066615032,-0.34645280581806437,13.359840122780547,-5.264787894916421,23.612183457128207
1760514540.118371,-16.49997653292155,-0.14342808670777737,0.9226983353088978,-0.3192094883461984,15.890959224457719,-3.967919621539267,26.50659930413485
1760514540.1281729,-16.0563627920174,-0.1347977880634343,0.9641162506159443,-0.2980250858733272,17.726360450452937,-2.111600187566275,29.117764169142994
1760514540.1381693,-15.580734675594233,-0.132179712550482,0.9972824558515592,-0.28477469440227304,18.749591823149963,0.10378730425505203,31.16534221804577
1760514540.1482449,-15.09534009340139,-0.1358549684616699,1.020001199816538,-0.2797396273863079,18.962361615050444,2.4400802047669923,32.45094310488312
1760514540.1580725,-14.621358972359257,-0.1451141445330724,1.0314796364006042,-0.28187485098002973,18.462376581130723,4.65120792239028,32.87129609810988
1760514540.1681058,-14.176654830992264,-0.1584297159028394,1.0322283535403358,-0.2892665983460739,17.41320699549464,6.515498741167798,32.418790508988906
1760514540.178136,-13.774191696734077,-0.17376200196312314,1.0238158741756715,-0.2996574529051608,16.011565771154142,7.864399120514333,31.171006072830224
1760514540.1880698,-13.421222296856728,-0.18891814808235266,1.008523103806427,-0.31092040216712785,14.45685990754844,8.60230745739108,29.272170751084943
1760514540.1980596,-13.119239397795893,-0.20188581269347614,0.9889588764182194,-0.3213959108318299,12.926712632024037,8.714315351777751,26.91005036172807
1760514540.2081332,-12.864589726092186,-0.21108902189353063,0.9676994915129922,-0.3300550201823764,11.560563831139024,8.261325372932244,24.291668127862923
1760514540.2181659,-12.649584699142332,-0.21554324378158565,0.9470016753038512,-0.33649964826821166,10.451763935509264,7.364463041623246,21.62070025314351
1760514540.2280748,-12.463905570554466,-0.21490737704006282,0.9286155438452705,-0.3408437718996188,9.647166689672481,6.182446453958242,19.078632626056297
1760514540.2381287,-12.296093534288467,-0.2094433944528114,0.9137008814322787,-0.34353153589402785,9.152352401973571,4.886408944685109,16.810961317626415
1760514540.2481494,-12.134937125680269,-0.1999043078244048,0.902832569768535,-0.3451452060855105,8.940308494389997,3.636532746498985,14.918978791460843
1760514540.2580829,-11.970614168281106,-0.18737799061133228,0.8960712252894284,-0.3462436604256677,8.96154280247407,2.563875300541741,13.457059288845809
1760514540.2682052,-11.79550238302455,-0.1731161128418086,0.8930724528156625,-0.3472553910225749,9.154038009626802,1.7592765316648953,12.434853882090078
1760514540.2781017,-11.604628542327431,-0.1583734423589954,0.8932108772131931,-0.3484325865520354,9.45199746673978,1.2696441020763956,11.82343706121554
1760514540.2882147,-11.395770855749324,-0.14427488876196626,0.8957009836175654,-0.3498583950471101,9.792835192080254,1.1006036199342115,11.564223767607336
1760514540.2982543,-11.169259453510742,-0.13171894043193255,0.8997036097498609,-0.3514902013485562,10.122239042057917,1.223696380316094,11.579391996813237
1760514540.3082113,-10.927537228343478,-0.12131909746315375,0.9044130521954339,-0.35321813477406555,10.397372520710856,1.5860446980973248,11.782579419434743
1760514540.318099,-10.674552296191212,-0.11338062258866602,0.9091239836560264,-0.35491954989046154,10.588414996142463,2.120583920668609,12.088754284092728
1760514540.3280869,-10.415057655066837,-0.10790800362682205,0.9132790578731141,-0.3564959424637811,10.678717711155148,2.7554192432940408,12.422376986151365
1760514540.338155,-10.15389448221923,-0.10463776368559302,0.9164976144500759,-0.35788698690101833,10.663896004624993,3.421434803294098,12.723248920087151
1760514540.348215,-9.895332213611992,-0.10309084754970393,0.9185849298734434,-0.35906485941140326,10.550185122748383,4.057817233914357,12.949759928414679
1760514540.3582237,-9.642530211707316,-0.10263866123575945,0.9195217269101899,-0.3600184664877433,10.352354189741856,4.615559715751274,13.079560076596218
1760514540.3682542,-9.397172449178242,-0.10257705265331131,0.9194355637344015,-0.3607396535021557,10.09141086895417,5.059248994393973,13.107962555147404
1760514540.37835,-9.159309187180313,-0.10220299418368824,0.918558341940899,-0.36122097802283615,9.792259807088861,5.367521915806276,13.044604464806126
1760514540.3883564,-8.927419380764428,-0.10088911457547509,0.9171762880268262,-0.3614683738838863,9.481420201427143,5.532555620288116,12.909027786491599
1760514540.398195,-8.698685158352461,-0.0981510253705675,0.9155796446726067,-0.36152510789521125,9.184869441140094,5.558880336114896,12.725877333093134
1760514540.4081438,-8.469445620429537,-0.09370151141006937,0.914018880090323,-0.36149891747658913,8.92606051177784,5.461718773789851,12.520345780735687
1760514540.418089,-8.235773559021363,-0.08748504043910985,0.9126729124984464,-0.3615832948477289,8.724159784553496,5.264984801690775,12.314352031133003
1760514540.4281044,-7.994100297155708,-0.07968704140265503,0.9116330337179815,-0.3620656916398049,8.592566493577982,4.9990238474990365,12.123759571905792
1760514540.4381697,-7.741805985737038,-0.07071543721247749,0.9109038504999901,-0.36331832437014056,8.537795781146711,4.698148449740354,11.956766794955008
1760514540.4483395,-7.47769822840367,-0.061156188754416085,0.9104196288137578,-0.36577020017406886,8.558817995748743,4.398012776595838,11.81345583388488
1760514540.4581945,-7.202319908104852,-0.05170879448049146,0.9100715825697989,-0.36986182088659764,8.646936259153499,4.1328826898552045,11.686375450341078
1760514540.4681885,-6.918053204735981,-0.04311056331343608,0.909739881341739,-0.37598695164192697,8.786250681385244,3.9329037997712977,11.561951485758312
1760514540.4780903,-6.629014853960357,-0.03605927475202074,0.9093238339363446,-0.38442873150209117,8.954707212709687,3.8215512558529383,11.42246289270123
1760514540.4880688,-6.340762489635808,-0.03114277112560921,0.9087644382037185,-0.39529968259577725,9.125670552667389,3.8135328208978674,11.248298426994115
1760514540.4980829,-6.059851197956028,-0.02878216989727323,0.908054867069555,-0.408495900610478,9.269901320756423,3.913456006037983,11.020225564696236
1760514540.5081398,-5.793292858386732,-0.029193504378299207,0.907236576181597,-0.4236740750451591,9.357764375768834,4.115515872520352,10.721454751411477
1760514540.5181816,-5.547977520095731,-0.032370466290704926,0.9063817921181387,-0.44025632984473306,9.361457448734612,4.404312115045911,10.339351981541343
1760514540.5281425,-5.330114753625004,-0.038088341182968936,0.9055667809789615,-0.4574637937112824,9.257041782619147,4.756708707790826,9.866721734376544
1760514540.5383809,-5.144744719963936,-0.04592697641483743,0.904843222774385,-0.47437654777371213,9.026089538499573,5.144469228776291,9.30263734083172
1760514540.5481682,-4.995357148051923,-0.055309550781701,0.9042157611885663,-0.4900147576875688,8.656828898855323,5.537279313655325,8.652830579085823
1760514540.5581284,-4.883644797127115,-0.06555384060832198,0.9036319084037819,-0.503432495875012,8.144744629826528,5.9057221942706075,7.929663813654457
1760514540.5681193,-4.8094072230024745,-0.0759326105670572,0.9029869598119461,-0.5138126191854786,7.49266107833109,6.2238102554766135,7.151697996420957
1760514540.578167,-4.770609449099585,-0.08573885247378615,0.9021430415721009,-0.5205499786906852,6.710390641321488,6.470792943810544,6.342849986013612
1760514540.5880783,-4.76358740868649,-0.09435014900846055,0.9009589879222001,-0.5233122815214394,5.814070840644724,6.632139367941226,5.53112231180823
1760514540.5980704,-4.783379650310608,-0.1012859011503627,0.899326497537254,-0.5220723272142965,4.825332538451122,6.699791209297894,4.746904082120491
1760514540.6081855,-4.824156263189611,-0.10625231929999616,0.8972070186481496,-0.5171102344844418,3.770436360817973,6.6719407987092145,4.020888301628292
1760514540.6181693,-4.879711915764502,-0.10917172893793017,0.8946620455160842,-0.5089878429237821,2.679474673090598,6.552654732607415,3.381720132277803
1760514540.6280782,-4.943987122015019,-0.11019334494650705,0.8918677593364348,-0.4984989069412873,1.5856546969613994,6.351609248727776,2.8535655108039304
1760514540.63816,-5.011577848803364,-0.10968274375098015,0.8891059989705149,-0.48659872719237895,0.5245773598661907,6.08404636087545,2.453852124300381
1760514540.6483858,-5.078189945140547,-0.10818855656817589,0.8867289712566869,-0.4743170662008223,-0.4666397241468578,5.770843496823677,2.191467432651808
1760514540.6581092,-5.140994785545106,-0.10638762697866569,0.8851027052731918,-0.4626595051245065,-1.3505407370109226,5.438370207088518,2.0656824295555554
1760514540.6681964,-5.198846678823844,-0.10501240436693363,0.8845400267291879,-0.45250447714583675,-2.090893288301927,5.117650715513661,2.065993866447934
1760514540.6782064,-5.2523295680323185,-0.10476557145017366,0.8852355541533022,-0.4445050854851,-2.6546361713550906,4.842328088672259,2.172949870722952
1760514540.688143,-5.303609796366365,-0.10622741127792525,0.8872133935056872,-0.43900580198506073,-3.014152431552717,4.64507434170382,2.3598727583867736
1760514540.6981168,-5.356084471783599,-0.10976236615455309,0.890294881078412,-0.4359842254604022,-3.1497637302881993,4.55240651466848,2.5952561163493226
1760514540.708082,-5.4138329500699305,-0.11543319027020661,0.8940910399428275,-0.4350275533176334,-3.0523110498830954,4.578306035142564,2.8455220572507973
1760514540.7181149,-5.480903372026393,-0.12293388817360275,0.8980232014444912,-0.4353523082138413,-2.725648950266306,4.717514752520729,3.0777914220412805
1760514540.7281322,-5.56049667845057,-0.1315553650707265,0.9013743660436673,-0.43587359846234625,-2.1888144302112225,4.939784248163093,3.262337924379955
1760514540.7381692,-5.654143463852036,-0.14019874709531258,0.9033713594556183,-0.43532569447133257,-1.4775360446924592,5.186571192068808,3.3744522308934064
1760514540.748312,-5.760997253819939,-0.14744903601960072,0.9032928327566322,-0.43242805942774853,-0.6446552951194024,5.371615020798043,3.395523237851042
1760514540.7582633,-5.87738262588947,-0.1517154435587037,0.9005916540674526,-0.4260808985043626,0.24100731738117204,5.386466120892674,3.3132452552482974
1760514540.7681057,-5.996729634734142,-0.15143451085804213,0.8950141463748609,-0.4155649302958858,1.0977392729327051,5.111367482514652,3.1209732911789736
1760514540.7782497,-6.10999022400442,-0.14531861947736335,0.8866946329905684,-0.40071522120813985,1.8361555969362442,4.430995275590837,2.816364852447047
1760514540.7882438,-6.206565548776194,-0.1326178051732352,0.8762028964212764,-0.38203995330181173,2.3663648772542354,3.253539144163317,2.399560555352257
1760514540.7981782,-6.275682932866812,-0.11335086403696783,0.8645248858687526,-0.36076026541740824,2.606438147975586,1.53059567161193,1.8712608130589305
1760514540.8081987,-6.3080647445787985,-0.08845685613820795,0.8529637202696749,-0.3387544606135336,2.491095681023858,-0.7254492720448773,1.2311328290936199
1760514540.818399,-6.297648968521636,-0.05982251612353156,0.8429596080578251,-0.31839817243098806,1.979232671386353,-3.430233043249761,0.4770031096985853
1760514540.828109,-6.243069088826797,-0.030154696895016254,0.8358446423754701,-0.3023026784855225,1.0588724846538458,-6.42580836864296,-0.3947677984541642
1760514540.838093,-6.14859208309304,-0.002689461645789219,0.8325713078396335,-0.29296888599261284,-0.2515541835215777,-9.490885004421942,-1.3874852321474376
1760514540.8480885,-6.024262034784431,0.019238677352296375,0.8334787062873767,-0.29239693812304846,-1.906007514113787,-12.363230259155507,-2.500910537551364
1760514540.858115,-5.885113240981946,0.032705725311500664,0.838176057421758,-0.3017169525146731,-3.837082922163177,-14.7719539073827,-3.727019902231029
1760514540.8685615,-5.7494879880453285,0.03569230952392372,0.8456063544871761,-0.3209188317714763,-5.964019312948533,-16.474798443756452,-5.045543340368478
1760514540.8782117,-5.63667706399585,0.02746223872062047,0.8542927196742052,-0.3487420886507618,-8.200323787891621,-17.293809707903083,-6.420482811500422
1760514540.8881967,-5.5642445125101405,0.008745912848390817,0.8626949287796837,-0.3827470232996811,-10.459425462546507,-17.142595642454108,-7.798942185509026
1760514540.898116,-5.545471368837472,-0.018312137373683566,0.8695648091917297,-0.419552052202072,-12.658086442455588,-16.039915268478573,-9.113294770778197
1760514540.9081006,-5.587347671438182,-0.050438621297032145,0.8742057155442248,-0.45520337694175084,-14.718523105331707,-14.107076851153504,-10.286976704760747
1760514540.9182603,-5.689460193974213,-0.08370544941276982,0.8765875982290527,-0.4856361982726098,-16.570646437631005,-11.549782306617757,-11.243272588807354
1760514540.9281306,-5.843977061664598,-0.11411449732157941,0.8773133783982184,-0.5071794365475708,-18.155458791307435,-8.627909443199707,-11.91567833062265
1760514540.938103,-6.036744847195106,-0.13819556010006853,0.8774621489030754,-0.5170437240920093,-19.429825239854235,-5.618756634763156,-12.25800565352942
1760514540.9486194,-6.249322848707949,-0.15351648470798412,0.8783517335092959,-0.5137200952057572,-20.372000785023516,-2.7801860046513656,-12.252398750852084
1760514540.9584005,-6.461618756576271,-0.15901816427014354,0.8812707037045853,-0.49721558286681566,-20.986718836597063,-0.31977766669550817,-11.913830558917274
1760514540.9681518,-6.6546925515741835,-0.15511834405923958,0.887229252656011,-0.46907103855941357,-21.308450399150416,1.6253694811301465,-11.290340521097985
1760514540.9782004,-6.813282778848082,-0.14357322917696033,0.8967703357629344,-0.43214467315214705,-21.401638489944453,2.995853920277902,-10.459118911585666
1760514540.9881124,-6.927681764955761,-0.1271332055573439,0.9098693947824708,-0.3901906234111505,-21.357229605705747,3.8044347939974976,-9.519338512166824
1760514540.9983425,-6.994723554435121,-0.1090652571233638,0.925934470564853,-0.3473014812720543,-21.285526987500297,4.120213948300142,-8.583183347492193
1760514541.0081382,-7.017818209768662,-0.09263241641227474,0.9438997848101156,-0.30730819400543213,-21.306106899413344,4.046495000223903,-7.7666936012363115
1760514541.0181162,-7.006131169349872,-0.08061849898265998,0.962388789498049,-0.27323704973317015,-21.53610903158888,3.696827693245738,-7.1818158109213615
1760514541.0282044,-6.9731309512518,-0.07496755912139953,0.9799129316609196,-0.24691223341628085,-22.078532694612534,3.1734215909768433,-6.930506573447014
1760514541.038201,-6.934792299981483,-0.07657997485289757,0.9950721040407864,-0.22876645827262374,-23.01221336177982,2.5511524733088407,-7.101054594511596
1760514541.0480998,-6.907746544874638,-0.08528004805919502,1.0067290580925268,-0.21788606219505036,-24.38493318620185,1.869062776699888,-7.766163070177911
1760514541.058139,-6.907630765161265,-0.09994754949696329,1.0141389297474925,-0.21227680559991874,-26.210650341007245,1.129789370782573,-8.981936259464776
1760514541.0682142,-6.947817501570995,-0.11878667940573263,1.0170241023890227,-0.20929922420967714,-28.471152690794362,0.30593255924394097,-10.786810159842437
1760514541.0782278,-7.038620819706028,-0.13968906646933205,1.0155926484104068,-0.20619369432199372,-31.121662588140087,-0.6487464187071051,-13.19964447807416
1760514541.0881252,-7.186986323164378,-0.16063311901677105,1.0105043132726126,-0.20059928220531925,-34.09921679536463,-1.7860033208416835,-16.21659774537249
1760514541.0981853,-7.396596327407833,-0.18005262921928164,1.0027903884230573,-0.1909701580614431,-37.33218429417388,-3.150319275086077,-19.806963997320718
1760514541.10815,-7.668269676181499,-0.1971078647622081,0.9937337674926644,-0.17681255167417537,-40.749172897441966,-4.768706558377693,-23.908753685138986
1760514541.1181254,-8.000516580037841,-0.21180783376523885,0.9847168522168023,-0.15870459942539877,-44.285844444920706,-6.644300552679118,-28.425300531928894
1760514541.1281323,-8.390121606760136,-0.2249629219981951,0.9770509583414165,-0.13811195528056464,-47.88872725445205,-8.754050680378173,-33.22439002450521
1760514541.1382098,-8.832663236572046,-0.2379831855209551,0.9718087941554168,-0.117055163752167,-51.51579763003999,-11.05019160574721,-38.1412201550558
1760514541.1481216,-9.32292236376942,-0.25256565904351663,0.9696846549127897,-0.09770483099704373,-55.13420394358229,-13.46487166644948,-42.98593932820904
1760514541.1582708,-9.855171355404766,-0.27032765581426477,0.9709021059139162,-0.08197743750141545,-58.71591095864661,-15.917199282083013,-47.55567765898252
1760514541.1688037,-10.423361292005573,-0.29244608432348373,0.975179916459597,-0.07119099784220523,-62.232219799914795,-18.32181130271601,-51.65006022078093
1760514541.1781902,-11.02123639175472,-0.319361183511424,0.9817594100725967,-0.06582710625002157,-65.64810193551753,-20.59780392428146,-55.088368445266326
1760514541.1881561,-11.642405403263425,-0.35059778805237424,0.9894919752172475,-0.06543556923767188,-68.91715390967323,-22.676675980236727,-57.726025068050966
1760514541.1981537,-12.280395801916715,-0.384746185617867,0.9969823009041151,-0.0687043642177873,-71.97783330452577,-24.508055702183736,-59.468074721811796
1760514541.2083025,-12.928711676614396,-0.4196244338089003,1.0027779570248274,-0.07369529347418527,-74.75153374787573,-26.062477107060513,-60.27779734746975
1760514541.2182612,-13.580909563353137,-0.452608647839111,1.0055865217986113,-0.07821179480298181,-77.14298038686822,-27.33113812991607,-60.17933431174859
1760514541.2282197,-14.230695297769763,-0.4810661643175988,1.0044871153982846,-0.0802244677877624,-79.0433019027052,-28.323051880342813,-59.25399286271686
1760514541.2383518,-14.872030175165602,-0.5027791116800296,0.9990899153055339,-0.07824945084213382,-80.33587744238838,-29.060064052061243,-57.630591619942216
1760514541.2481196,-15.49922396850295,-0.5162418055273759,0.9895980032028865,-0.07158072686478043,-80.90466643706259,-29.570006128182943,-55.47082978925576
1760514541.258218,-16.106994333838234,-0.5207723801015038,0.9767495889795096,-0.06032916287206598,-80.64433580137978,-29.878239355123984,-52.951258732763755
1760514541.2681155,-16.690487659831962,-0.5164614370905123,0.9616560645613815,-0.045290878410564166,-79.47123232498915,-29.998362401139328,-50.24398058730532
1760514541.2781246,-17.24527716515757,-0.5040301108817662,0.9455807198050068,-0.027712304946693824,-77.33407364734738,-29.92377009491931,-47.49857351463949
1760514541.2881012,-17.76736984781688,-0.4846668933843941,0.9297114581024956,-0.00902367483437496,-74.22303752698946,-29.622454195874944,-44.827781172484194
1760514541.2980855,-18.253259007576823,-0.4598826731602802,0.9149726824053555,0.009405626101319321,-70.17578361600079,-29.037299699052824,-42.29906829945246
1760514541.3080935,-18.70005225151428,-0.43139649014734377,0.9019066584936669,0.026457019001233616,-65.27911015390876,-28.093018617514716,-39.93323346040234
1760514541.318119,-19.105687502726074,-0.40104930211397855,0.8906384741622099,0.041382304265382266,-59.66558300558019,-26.70921303662153,-37.71007566130903
1760514541.3283715,-19.46922462445656,-0.370735361202588,0.8809225353475424,0.05385178197553546,-53.50539437430979,-24.817495304417708,-35.579927460501466
1760514541.338371,-19.791171897527764,-0.3423360576513438,0.872254086102385,0.06394040816890116,-46.99456087731472,-22.379547165003167,-33.47893703243624
1760514541.3481183,-20.073779986668157,-0.31763918116273737,0.8640192392716566,0.07206530729838094,-40.34110416110085,-19.402591603814365,-31.34543886137763
1760514541.358199,-20.321218753838377,-0.298230846966697,0.8556526362613912,0.07888683646910037,-33.750974051962736,-15.94890570343004,-29.13464878395464
1760514541.3681557,-20.539553425387208,-0.28536040544058405,0.8467719518169461,0.08518488360797215,-27.41521214160091,-12.136664292893158,-26.829258772136487
1760514541.3781137,-20.736462877309332,-0.2797977298724959,0.8372618969419741,0.09172575252892017,-21.499430301459082,-8.130637254161325,-24.444260139982994
1760514541.388211,-20.920692894668758,-0.28171819385774416,0.8272881754259519,0.09914070651512308,-16.136365307611758,-4.123094290823098,-22.02540217057127
1760514541.3981025,-21.101298726750795,-0.2906530041500687,0.817235863532788,0.10783900864099973,-11.42209314480474,-0.3074264218488363,-19.641906885651796
1760514541.4081085,-21.286784334175557,-0.3055287592413832,0.8075862094419847,0.11797135821384125,-7.416178899553864,3.151125412282353,-17.37513396493596
1760514541.4181867,-21.484273221793547,-0.3247981090508254,0.7987660779688284,0.12944437992806915,-4.145394687716911,6.142255512565165,-15.305567802151364
1760514541.4282317,-21.69884032518593,-0.3466430932423942,0.7910173238231419,0.1419694039733281,-1.6098124232153561,8.62973464441489,-13.500650110118398
1760514541.4382365,-21.933099054132168,-0.36921798961533586,0.7843310811915594,0.15511846362029694,0.2105366916552113,10.659143415408488,-12.00560297184265
1760514541.4484105,-22.18708423228875,-0.39088993980638387,0.7784705351293322,0.16836404676806288,1.3503296469314976,12.352667346435334,-10.838576986744954
1760514541.4581528,-22.458419032080855,-0.4104355676626818,0.7730708411640315,0.18109520373381424,1.856300147616298,13.891902907490683,-9.990428453814175
1760514541.4682612,-22.74271913739187,-0.42716197044264115,0.767772494863951,0.19262103139637346,1.7875843265030091,15.491676270678525,-9.428467575160225
1760514541.478347,-23.034174134015498,-0.4409380404764881,0.7623337496878644,0.2021814175074788,1.2181807667100764,17.36906925697391,-9.10287176175681
1760514541.4881113,-23.3262440347923,-0.45214082428955243,0.756685875746404,0.20897986712233962,0.2397527236111124,19.712130682118154,-8.954226669182551
1760514541.4981143,-23.612405732156756,-0.4615356129313846,0.7509280187920653,0.21224079414711916,-1.0371926159013884,22.652324018817897,-8.920798387703913
1760514541.5081258,-23.886877982338817,-0.47011500301178244,0.7452826213221297,0.21128399023137126,-2.4851545590347337,26.243876000427562,-8.944520287779907
1760514541.5182,-24.145250585498644,-0.47892247585923264,0.7400368673934198,0.2056058402234939,-3.964932990522378,30.45205690393761,-8.975148178525611
1760514541.528108,-24.38494992064854,-0.48888329616687637,0.73548701533688,0.1949569014148144,-5.333807863137858,35.15120701272656,-8.972482281327098
1760514541.5381184,-24.60549038273547,-0.5006618975322789,0.7318924990684087,0.1794051456399586,-6.45539725698594,40.132186449481594,-8.9068972642422
1760514541.5481591,-24.8084852020391,-0.5145597270391931,0.72944167050713,0.1593739622516257,-7.209724362101319,45.11804287634518,-8.758612224548692
1760514541.558427,-24.9974129790126,-0.5304599291374175,0.7282304207937458,0.13564613467317266,-7.502070403329044,49.78617181489284,-8.516159583568072
1760514541.5683486,-25.17715506404805,-0.5478187447055437,0.7282548243905491,0.10932909083401052,-7.269448279249198,53.79502482192418,-8.174420937003562
1760514541.5784822,-25.35333868752695,-0.5657025102241059,0.729417302524196,0.08178068695965794,-6.483917982823065,56.81331292570876,-7.732474513312091
1760514541.5881448,-25.53154600782835,-0.5828714041574293,0.7315436643232042,0.05449883716082652,-5.152402972520196,58.54950535845541,-7.191420085585266
1760514541.5981226,-25.716476029843466,-0.5979101335165276,0.7344073212508982,0.028984055567706214,-3.313090756899844,58.77920549967259,-6.552344306837696
1760514541.608171,-25.91116576930964,-0.6093990312954926,0.7377569497859837,0.006590217694285825,-1.0288861217312808,57.367764658903546,-5.814639363323598
1760514541.6181147,-26.116381987955283,-0.6161081223877564,0.7413443414427787,-0.011617733941184708,1.621269606096428,54.28545568136626,-4.974917985860397
1760514541.6282327,-26.33028100833993,-0.6171844929632053,0.7449503622563984,-0.024981014193705704,4.5521391999334755,49.612992269032866,-4.026687889255795
1760514541.6381662,-26.54839941371919,-0.6122954837747199,0.7484087878528874,-0.03332397631371456,7.681817523075048,43.53639491836156,-2.9607302041341077
1760514541.6481159,-26.76398579373113,-0.601694346757334,0.75162931159439,-0.0369796260885788,10.940159325158216,36.33199565850119,-1.7658643489351604
1760514541.6583447,-26.968624511322464,-0.5861932294792706,0.7546216987530922,-0.036757937764426575,14.275129588210469,28.344080141833153,-0.4296398092974354
1760514541.6683059,-27.15305307741336,-0.5670527903061103,0.7575228729177501,-0.03385835255800922,17.656461751129047,19.95857807964489,1.061428118831776
1760514541.678115,-27.308046200048956,-0.5458153662768641,0.7606270908269593,-0.029734513043408732,21.076280015834904,11.576122073396792,2.722205941069077
1760514541.6886964,-27.425232989858472,-0.5241122703866088,0.764415619644443,-0.025923539287655017,24.546601936090923,3.587065378376051,4.5696916604982905
1760514541.6981869,-27.497727295225094,-0.5034700297497027,0.7695771642575885,-0.023854439009547056,28.0938805909407,-3.649832890746274,6.623734668164604
1760514541.7082422,-27.520486041278865,-0.485134901615138,0.7770060736594663,-0.024652595659147403,31.750971123741436,-9.824193281265568,8.90714809338597
1760514541.7182333,-27.49036534426141,-0.46993375048464503,0.7877649149737587,-0.02896105832375007,35.54711237039015,-14.686245945308162,11.444601116599795
1760514541.7281458,-27.405907452867563,-0.45818875650240204,0.8030026099505613,-0.03680396154233018,39.49670409102369,-18.055200414478637,14.259765036645208
1760514541.7381299,-27.266945654567834,-0.44969949262612646,0.8238275940666817,-0.047520217917145766,43.5878597178979,-19.824811787029773,17.370421420314965
1760514541.7482665,-27.074145905878172,-0.4437984099855556,0.851144540591752,-0.05979342591861263,47.77195420616554,-19.967071675394024,20.78163443894573
1760514541.7582676,-26.828608261122422,-0.4394752847825478,0.885471001530839,-0.07179453220169345,51.95564731932082,-18.534383477998983,24.477594757281956
1760514541.7682073,-26.531629431867575,-0.4355522487827236,0.9267561726315316,-0.08143644454765554,55.99705749998712,-15.659686686519654,28.41325587917169
1760514541.7781272,-26.184685447070734,-0.4308765341446149,0.9742276879348886,-0.08671630408555377,59.707766797838275,-11.55301708039267,32.507288900017755
1760514541.7881496,-25.789640191014037,-0.42449176765794133,1.0262933125249896,-0.0860972569758021,62.86201870929777,-6.49240572761314,36.63808174068733
1760514541.798149,-25.349133988737826,-0.4157573572736587,1.0805221279791164,-0.07886466195310542,65.21370955899367,-0.8073540181968223,40.64443304420591
1760514541.808149,-24.867066875407566,-0.4044053765277642,1.1337256105515374,-0.06538664002750007,66.52053659909541,5.1454264796744695,44.332189362709244
1760514541.8184257,-24.34906911120854,-0.3905442740099295,1.182154978100916,-0.047217728147706035,66.57309923537277,11.012080911154742,47.48733684538661
1760514541.8283772,-23.80284785231023,-0.37462948831383136,1.2218242797784467,-0.027007174130857545,65.22522512998201,16.473295235485768,49.895038104168506
1760514541.8381467,-23.238312267766858,-0.3574189451153454,1.2489495732801488,-0.008207208151512218,62.42082382663461,21.27205598109254,51.362928188958016
1760514541.848259,-22.66740705399536,-0.33991882518736266,1.2604588878319882,0.00538529109276611,58.21259193201702,25.232208406864597,51.74586983815533
1760514541.858664,-22.103622598016408,-0.3233108708831199,1.2544877674423063,0.010186993286384647,52.76899675382051,28.26447610054479,50.9686098901312
1760514541.8681717,-21.56119466484001,-0.308848079296929,1.230754135486214,0.0033985556018208125,46.36779487387159,30.359507961248248,49.04263321042845
1760514541.8783224,-21.05405191408902,-0.29771482999539606,1.1907196866373457,-0.016505366030306334,39.37631399619817,31.57032539345061,46.074080462013534
1760514541.8881125,-20.59460923666877,-0.2908627526018433,1.137490584897699,-0.04944937617701372,32.22041384095335,31.988476485329883,42.260793276297576
1760514541.8981526,-20.19253368836249,-0.28884467292225274,1.0754713585019338,-0.09365523861435425,25.345372103093442,31.719025168725196,37.87813740235663
1760514541.9081619,-19.853626097930473,-0.29167329394565955,1.009840401796024,-0.14579509310414773,19.173020447573492,30.859306015330773,33.254930293723284
1760514541.9182336,-19.578965504851915,-0.29873202040349955,0.9459446641006392,-0.20139087395344715,14.060235314607315,29.48528719580085,28.74227650475308
1760514541.928129,-19.36445335073884,-0.30876288619883124,0.8887100485081535,-0.25540418276957916,10.264067110618322,27.647529253914783,24.679147497409485
1760514541.9381437,-19.200864936663308,-0.319948421604379,0.8421439429037892,-0.30291853328044976,7.918087545522102,25.37644777071078,21.358967433017515
1760514541.9482372,-19.074464680179183,-0.3300908689620287,0.8089817968190061,-0.3397950280565467,7.023009196276456,22.69452683590468,19.001252603756722
1760514541.95825,-18.96817288803426,-0.33687624065876093,0.790506626216515,-0.3631927094594794,7.45263434138482,19.63190227695543,17.731584915856306
1760514541.968346,-18.86319219285041,-0.33819301987535555,0.7865473746564302,-0.37187892718067467,8.974058306399497,16.241502721425967,17.572022506203087
1760514541.9782073,-18.740920371918154,-0.3324563954375532,0.795638214500422,-0.3662970836225295,11.279032374512115,12.610424993119555,18.442660526687934
1760514541.9883192,-18.584908941038584,-0.3188762319584881,0.8152996647374903,-0.34839908636067235,14.021804144574935,8.86509644273587,20.1736868233251
1760514541.9981878,-18.38259834952648,-0.2976131746417134,0.842390242290762,-0.3212862042633979,16.85799154253885,5.168867143837129,22.526113700992415
1760514542.0083377,-18.126590242430343,-0.2697959507878461,0.8734777785969248,-0.28873164263648343,19.479324205912423,1.71184199472892,25.218494003015607
1760514542.0182302,-17.815300222192704,-0.23740892095390417,0.9051895446229705,-0.2546724622646651,21.64026849984806,-1.306153800852029,27.956388414007307
1760514542.028136,-17.452940384934486,-0.20308019710239567,0.9345133784397671,-0.22275170046520712,23.174250105470218,-3.6976359168949084,30.461196788908314
1760514542.0381303,-17.048874184366888,-0.16979959220742538,0.9590330194809493,-0.19596752291963884,23.99897420536586,-5.311837101430364,32.49525906951143
1760514542.0481083,-16.616448598211818,-0.1405848065636214,0.9770882263517312,-0.176455417781991,24.111898141793745,-6.057898770818661,33.88085393366565
1760514542.058144,-16.171444080001244,-0.11811219000071273,0.9878547631238099,-0.1654021135204382,23.578029748345365,-5.92288089243807,34.5117157139604
1760514542.0683231,-15.730305615416277,-0.1043435752297996,0.9913419218575653,-0.16307182104474394,22.51278700976843,-4.9807235523802,34.35670593947854
1760514542.078241,-15.308337183223127,-0.10020629114213613,0.9883068211123684,-0.16891709540841837,21.062664405284526,-3.3893317379241976,33.45612038450582
1760514542.0882142,-14.91805322449664,-0.10540174285709751,0.980089216569046,-0.18174565454808983,19.386077062462807,-1.3749311543150025,31.911722182651744
1760514542.0981522,-14.567872588424784,-0.11840844754670589,0.9683838870990094,-0.19991801406914775,17.636248130001213,0.7945878755974293,29.872009797507143
1760514542.1081376,-14.261304733360637,-0.13670036904008423,0.9549870141597188,-0.22155518663203225,15.947514713799807,2.8431854716943916,27.514511011951758
1760514542.1181462,-13.996718079751448,-0.15713931115127855,0.9415630247565137,-0.24473737103447848,14.425913548537878,4.521426066496554,25.02702380770873
1760514542.1281235,-13.767707886363606,-0.1764545747336895,0.9294688010717461,-0.2676745600468824,13.144296214616372,5.636792566428159,22.589650385075156
1760514542.138188,-13.564007294563885,-0.19171281205731222,0.919651447559884,-0.2888336783444871,12.141593054200374,6.075045880730441,20.35921011256656
1760514542.1482015,-13.372819080867345,-0.20069903697347619,0.9126179932545805,-0.3070159744657283,11.42537774605583,5.809990697439156,18.45725386914189
1760514542.1582105,-13.18039563404507,-0.2021594964268511,0.908464501565406,-0.32138824695570267,10.97668655043049,4.901121611400887,16.962492566349308
1760514542.1682699,-12.9736683221104,-0.1958875039907012,0.9069462022011653,-0.3314773784071659,10.75608941949695,3.4805709401937546,15.90800929980774
1760514542.178401,-12.741728307727557,-0.18265950971599404,0.9075692210140976,-0.33713957841206665,10.710208865128505,1.7322095506063855,15.283162619599437
1760514542.188221,-12.476987112130022,-0.16404821343596487,0.9096880579156835,-0.33851605133723095,10.778150641252354,-0.13351914073606044,15.039641274635837
1760514542.198198,-12.175890506471552,-0.1421512173838651,0.9125988212140829,-0.3359862888060156,10.897566807385061,-1.9053894622945178,15.100739918533776
1760514542.208156,-11.839115861111893,-0.11927802551004779,0.9156234831226406,-0.33012765108553765,11.010248044348566,-3.3946107555203127,15.372635272574477
1760514542.2182775,-11.471245137713288,-0.09763731275992132,0.9181831788853576,-0.32168463057027713,11.067201081545077,-4.453046503429579,15.756294969601901
1760514542.2282329,-11.079969851355514,-0.07906267039077564,0.9198583224227111,-0.3115446191623687,11.033109574763696,-4.984951463547522,16.158670841577145
1760514542.238234,-10.674946054707348,-0.06480923286599842,0.9204310823973093,-0.3007119118294295,10.889933413921854,-4.951724426845094,16.50200632186351
1760514542.2481673,-10.266468111863473,-0.05544483319481436,0.9199037057108284,-0.29027015541777057,10.639226138842325,-4.370083113938425,16.730384275508865
1760514542.258166,-9.864158414073112,-0.050846784418747924,0.9184863085494938,-0.28132561600968997,10.302616988464564,-3.3048048870092286,16.813006566835476
1760514542.268258,-9.475867431047908,-0.050300007300735895,0.9165508442534651,-0.27492823594855853,9.919894037282964,-1.8576743762839605,16.74408812156981
1760514542.27827,-9.106942931083724,-0.05267687314489763,0.9145535602585041,-0.27197343358465903,9.5443016410449,-0.15450426895139183,16.539634174614694
1760514542.2882755,-8.759963959553305,-0.05666656929338118,0.9129355360222263,-0.2730947613362242,9.235060089974686,1.6679659770997017,16.231721309421463
1760514542.2981625,-8.43495253144432,-0.06101319789859365,0.9120188362427128,-0.27856552986765326,9.047721374034984,3.4738415244266663,15.861191826335075
1760514542.3082416,-8.129986094956775,-0.06471874672819242,0.91192202871793,-0.2882337484423906,9.023715383847021,5.13766376201589,15.469860182561114
1760514542.3183897,-7.842057729328038,-0.06717375755122304,0.9125187343992202,-0.30151369402600503,9.181090308567192,6.551659480993452,15.093370910747408
1760514542.3281357,-7.567994385310801,-0.06819738893462775,0.9134531292308794,-0.3174454727732014,9.508635232271331,7.630984347219498,14.755700381486333
1760514542.3385775,-7.305257628014359,-0.06799300019377565,0.9142101660655456,-0.33481594705056283,9.96501197222478,8.317422770056211,14.465972342503612
1760514542.3482533,-7.052502534904527,-0.06704325273277612,0.9142241859702507,-0.35232037711715375,10.483346272767678,8.581827124907377,14.217839772882368
1760514542.3582149,-6.809833518269271,-0.06597441655506464,0.9130029573498043,-0.36873853232502796,10.980433765964303,8.42531518116595,13.99128432883906
1760514542.370352,-6.578754192315296,-0.06541711746890287,0.9102438190741414,-0.38309882840125925,11.368778487061023,7.879047739939698,13.756378731282062
1760514542.3785925,-6.361857026218095,-0.06588598274407119,0.9059209129114981,-0.3948059768567207,11.569280105087156,7.002317288943715,13.478363585867482
1760514542.388413,-6.162335290201705,-0.06769518131325507,0.9003256538005135,-0.403711646812886,11.522455823576237,5.878695137559806,13.123286884924205
1760514542.3981557,-5.983419638611313,-0.07091934994837476,0.8940471542166563,-0.4101143705885118,11.196478351365114,4.610111086730261,12.663426367980307
1760514542.4081554,-5.827839720845569,-0.07539956476201719,0.887887121836162,-0.4146840414164639,10.590897356836303,3.3089677777182103,12.081767355590271
1760514542.4183073,-5.697389415760359,-0.08078476593786911,0.8827160140034466,-0.4183176802534186,9.7355895712529,2.088696010721164,11.37495000836988
1760514542.4282224,-5.592642409949074,-0.08659440057716622,0.8792930433079341,-0.42194727953274985,8.685193947434126,1.0535024568850362,10.554326350794502
1760514542.438227,-5.512834457743148,-0.0922893999507017,0.878088867435789,-0.42633686779736885,7.510003142872842,0.28840863751663265,9.64505838847786
1760514542.4481373,-5.455906995685475,-0.0973434583129047,0.8791599249972848,-0.43191851521569347,6.284949290280981,-0.14904275763055688,8.683495727884486
1760514542.4581335,-5.4186952658749235,-0.10131066403326022,0.8821166562908636,-0.4387136804609108,5.0787947998911385,-0.23398100673643396,7.713317073817102
1760514542.468306,-5.397240235000952,-0.10388647159413367,0.8861990535939477,-0.44636039885422824,3.9456773875135345,0.024796890076642923,6.781037025426534
1760514542.4781911,-5.3872025887020305,-0.10495785846703805,0.8904353129550662,-0.454230542476105,2.920584807599313,0.5883643641760529,5.9314540880285325
1760514542.4881706,-5.384352419845815,-0.10463699060442552,0.8938355294594881,-0.4615962310115189,2.019253450358073,1.3951031525600308,5.2034937437071225
1760514542.4982598,-5.3850945858179315,-0.10327108787868641,0.895571902018917,-0.46779896244621005,1.2418055828296595,2.370570965550785,4.626757430492026
1760514542.5082066,-5.386968705463372,-0.10142053850601346,0.895112295924062,-0.472382959347578,0.5786167950622082,3.4378851830320136,4.218986364865415
1760514542.5181568,-5.3890441429623435,-0.09980008437848403,0.8922937684163099,-0.4751683163029982,0.016650261933604953,4.526716956036414,3.984599496787908
1760514542.5282507,-5.392125013808912,-0.09918432176844849,0.8873386749876516,-0.4762559810990288,-0.45526869788944146,5.579373854555857,3.9144272221711516
1760514542.5382543,-5.398693752545033,-0.10028629475851969,0.8808242792029528,-0.4759719154831333,-0.8432466055456501,6.553094313203532,3.9866876612176143
1760514542.5481515,-5.412554104478531,-0.10362442891791951,0.8736178880955088,-0.4747686833043748,-1.1475919887620631,7.418463068206439,4.1691265843787315
1760514542.5581572,-5.438181913045219,-0.1093976905267685,0.866786739386159,-0.47310810800475434,-1.3644199740913845,8.15465276867151,4.422092023415837
1760514542.568181,-5.479847394251132,-0.11739096224688372,0.8614886845709104,-0.47134974473578334,-1.4890320105686534,8.742872077845897,4.7021824875883125
1760514542.5783434,-5.5406250961957015,-0.12693132174938215,0.8588486643930003,-0.46966832031324124,-1.5202604810679736,9.159835836723376,4.966031209127555
1760514542.5884297,-5.6214464397055055,-0.13691095244682766,0.8598278769936608,-0.4680191420430136,-1.464881188351385,9.373168190852256,5.173793174713021
1760514542.5982583,-5.720366239691442,-0.14588434500919764,0.8650961136753168,-0.46616260815394217,-1.341245858692151,9.340346301951392,5.291990895685745
