timestamp,angle,linear_acceleration_x,linear_acceleration_y,linear_acceleration_z,angular_velocity_x,angular_velocity_y,angular_velocity_z
1760959462.4352458,-3.3365742369868303,-0.057573690548689604,0.9799644226614277,0.04163588722649389,-1.616323767815038,-1.4447962710972515,-0.05416700208064382
1760959462.44522,-3.339605217749253,-0.057886172793150725,0.98050553367019,0.041294353528496565,-1.711482008209973,-1.6532876805470769,-0.10735322758375947
1760959462.4553792,-3.3440290008705413,-0.05829990741461384,0.9811572645193345,0.0409160872913352,-1.8017204030106304,-1.8624875202867417,-0.16003561402299438
1760959462.4654138,-3.3500535918260534,-0.05882527231840941,0.9818858518347471,0.040535382542882185,-1.884109816821069,-2.06997769950353,-0.21126411374882983
1760959462.475243,-3.357871538129817,-0.059459154716551374,0.9826419764811073,0.04021512139800756,-1.956503206803384,-2.27469331023284,-0.26088548957561797
1760959462.4854445,-3.367634678657341,-0.06018591106938706,0.9833625263220815,0.040042495317166873,-2.017824358208615,-2.477235843652886,-0.3094838831082626
1760959462.495344,-3.379440084406592,-0.060981927466389224,0.983973852024773,0.04011916949501591,-2.068277211087866,-2.680109565119647,-0.35814650968975753
1760959462.5053966,-3.3933311767240433,-0.06182226979235389,0.9843970425915743,0.040547454620044034,-2.109464377472493,-2.8878149354809763,-0.4081109624602505
1760959462.515331,-3.4093127068285134,-0.062687264103656,0.9845555574507572,0.041414346982303646,-2.1444179541148016,-3.106712715792395,-0.460384058235674
1760959462.5254126,-3.427373958341625,-0.06356706613845566,0.9843850014480623,0.042774993476772175,-2.1775611790137317,-3.3445760323788627,-0.5154338832725154
1760959462.5353289,-3.447512622804657,-0.0644631228332636,0.9838441376356353,0.044636820132927864,-2.2146280050947347,-3.6097842365193835,-0.5730429132762189
1760959462.5455387,-3.469752435585401,-0.06538643951387166,0.9829255707304128,0.04694571412435096,-2.2625606399539655,-3.9101771896527078,-0.6323742296523498
1760959462.5552762,-3.494150148329892,-0.06635341058397227,0.9816640763262793,0.04957632680342679,-2.3293803329144445,-4.251666689983854,-0.6922539050963485
1760959462.5652292,-3.5207910990240405,-0.06738062671777495,0.98014059232231,0.05232929631104368,-2.4239925556760373,-4.636773924093763,-0.751622054544618
1760959462.5752954,-3.5497770466503313,-0.06848056339436481,0.9784805947042039,0.05493824639322996,-2.555859581370918,-5.0633111873872245,-0.8100638563483165
1760959462.5853248,-3.5812140362497056,-0.06966012472295363,0.9768466987050377,0.05708834994219438,-2.734465313364091,-5.523443451398796,-0.8683081032971351
1760959462.595475,-3.6152099254281556,-0.0709232586345732,0.9754263418976201,0.058446167263061524,-2.9685152874553955,-6.003349205211292,-0.9285784076134688
1760959462.6051984,-3.651888858212546,-0.07227719334903163,0.9744159002055839,0.05869802381737318,-3.26485661212451,-6.483652779836196,-0.9947008031756149
1760959462.615241,-3.691423098537441,-0.07373988963499352,0.9740025440841592,0.05759227644971663,-3.627161123498578,-6.9407259030451725,-1.0719067944185199
1760959462.6252284,-3.734073734364125,-0.07534521047827207,0.9743450533846507,0.05498006419882518,-4.054483676040173,-7.348859304617357,-1.166315489367078
1760959462.6352644,-3.7802248976132926,-0.07714280049636407,0.9755552380304964,0.050849550828262695,-4.539879106570057,-7.683188823635846,-1.284125527879586
1760959462.6454544,-3.830393990380537,-0.0791912864626664,0.977682416414189,0.045349727129834365,-5.06932156080271,-7.923124481582991,-1.4305933886498683
1760959462.6552334,-3.885203029590192,-0.08154515214246731,0.9807037039457803,0.03880085845283286,-5.6211983933893634,-8.055881800336579,-1.6089166123385006
1760959462.665322,-3.94530248478978,-0.08423702685905388,0.9845220249135707,0.03168921897242217,-6.166633762106206,-8.079580152860867,-1.8191733990235484
1760959462.6752827,-4.011247823709375,-0.08725821147220951,0.9889721394192139,0.02464416085453283,-6.670831615797331,-8.005301110333033,-2.057486668714696
1760959462.6852756,-4.083339108251771,-0.09054099167943246,0.9938334714444209,0.018396650092691404,-7.0955154593867915,-7.857536278859309,-2.3155752446387443
1760959462.695299,-4.161443455377809,-0.09394636963860938,0.998847689421521,0.013720689999997612,-7.402387687787808,-7.672621001208536,-2.5808277178920793
1760959462.7052805,-4.24482668859231,-0.09726003264928026,1.0037387906723725,0.01136227810128591,-7.557354110484392,-7.495042415508911,-2.8369944664288536
1760959462.715298,-4.332022210020599,-0.10019776555626,1.0082335228632484,0.011963616043031835,-7.535095580693531,-7.371893845015123,-3.0655485104125866
1760959462.7253861,-4.420762143510297,-0.10241995669529769,1.0120800718113339,0.01599173274572,-7.3234493202012345,-7.346144324299407,-3.24770754771934
1760959462.7352984,-4.507990630775354,-0.10355446240712055,1.0150631660536558,0.023679801376797146,-6.9269972780484155,-7.449685972768876,-3.3670150645334007
1760959462.745379,-4.5899738081364925,-0.10322765034015843,1.017014350073965,0.03498720989312298,-6.369249674202894,-7.697219215488627,-3.4122459857308294
1760959462.7555773,-4.6625144577127315,-0.10110339449347885,1.0178171148187627,0.049582440010445115,-5.692876072309445,-8.08192677953921,-3.380272792464194
1760959462.7653368,-4.7212697011498,-0.09692843680589372,1.0174076009024322,0.06685144035279023,-4.957604032237585,-8.573632606807463,-3.2784586065513555
1760959462.7754598,-4.762157657982458,-0.09058066206189895,1.0157725441391847,0.08593280855360201,-4.235689311050486,-9.11981070757787,-3.126165273327362
1760959462.7853146,-4.781825861738244,-0.08211532253726926,1.0129468517463471,0.10577911202362372,-3.6052313829088316,-9.649446682864461,-2.955069940341069
1760959462.795276,-4.778142518330166,-0.07180326602243074,1.0090134804053372,0.12524082895070793,-3.141996226605765,-10.079389232663766,-2.808145007687469
1760959462.8053148,-4.750662632510678,-0.06015464049653197,1.004107933240979,0.1431659040152442,-2.9107345117295838,-10.322488717297826,-2.7373388944393255
1760959462.8153536,-4.70101492920807,-0.04792126185587166,0.9984282888654424,0.1585047188272743,-2.9571706550776966,-10.296546341552428,-2.800158904561734
1760959462.8255727,-4.633152503425906,-0.03607105438182443,0.9922488179630367,0.17040851182399194,-3.301827526521326,-9.932944183347702,-3.0554630245446828
1760959462.835442,-4.553412058887594,-0.025729659954112378,0.98593143935921,0.1783094445753454,-3.9366239566673977,-9.183841029491914,-3.5587986016532067
1760959462.845375,-4.47033744275385,-0.018088529457484754,0.9799261220371823,0.18197235901587644,-4.824770494655364,-8.027026884708066,-4.357610338954322
1760959462.8553774,-4.394246015072981,-0.014285208718274444,0.9747505169462427,0.18151128521572746,-5.903968877923649,-6.467911350054956,-5.486628759941966
1760959462.8652298,-4.336549846209326,-0.015268292916425289,0.9709416629105844,0.17736757729025243,-7.092398638465131,-4.538593574776136,-6.963763416568783
1760959462.875317,-4.308882913034373,-0.02166519880490016,0.9689791505260466,0.17025109376262948,-8.296568956771484,-2.294399987194972,-8.786837984542785
1760959462.8853066,-4.322124577507661,-0.033674923327927715,0.9691891493316335,0.16105103842854435,-9.41992257968554,0.19141111328662766,-10.931499359379167
1760959462.8954515,-4.385441572033944,-0.051009029447536124,0.9716493548799304,0.15072868136110937,-10.371139661145623,2.8339153867787963,-13.350631299885976
1760959462.9054792,-4.50548600070113,-0.07289983038293785,0.9761211565915333,0.14020952339030826,-11.071358882811886,5.542864523846737,-15.97561445879393
1760959462.9155679,-4.68587598485011,-0.09818347005982297,0.9820324237561308,0.13029524628056666,-11.459888969130658,8.228292803610112,-18.719738289211904
1760959462.9255242,-4.927043966518779,-0.12544867740466006,0.9885218841439453,0.12161144536712096,-11.498272160806934,10.80477474303663,-21.483884460145198
1760959462.935483,-5.226470946882489,-0.15322492900193851,0.9945401760179291,0.11459326091367034,-11.172681659436249,13.194029987531161,-24.164212263320564
1760959462.9454904,-5.579250069837736,-0.18017378086290348,0.9989909353607964,0.10949387326812718,-10.494604760300568,15.32592061259274,-26.661052222236265
1760959462.95544,-5.978861872309373,-0.2052478460183036,1.0008889997122843,0.10639306750880602,-9.49969237813484,17.138154578338607,-28.887749139495305
1760959462.965329,-6.418013372013751,-0.22779138633205306,0.9995073060176392,0.10519197946461528,-8.244644440569678,18.57513460122042,-30.7780105214532
1760959462.9754872,-6.88939962228679,-0.24756988676948236,0.9944795596252389,0.10559994015791264,-6.80207873621934,19.58641139902986,-32.290514493840504
1760959462.9852822,-7.386281223530312,-0.26472863171520367,0.9858325018732472,0.10713549483586855,-5.253506583155146,20.125183333015205,-33.41005107524293
1760959462.9952524,-7.902817565701341,-0.27969033601626236,0.97394562831841,0.10916380943715127,-3.680845506224626,20.147266958573603,-34.145147612963804
1760959463.0054235,-8.43414005971938,-0.293010708813447,0.9594639477310763,0.11097631877062833,-2.1573113829691275,19.610951621205864,-34.5227858647226
1760959463.0154774,-8.97618962226139,-0.3052190651553499,0.9432001437797706,0.1118978097326031,-0.738887162014379,18.478139521244636,-34.58132593485716
1760959463.025374,-9.52537867184153,-0.316675052728493,0.9260525417459552,0.11139487172554045,0.54232449019573,16.71712184533286,-34.36303714268231
1760959463.0354939,-10.07816514336997,-0.3274683433504427,0.9089467468412427,0.10916118610391169,1.6817387864372326,14.307176495410953,-33.907648099033
1760959463.0453513,-10.630638055099066,-0.33737779261424394,0.8927931843088146,0.10516345335479821,2.7021849351503238,11.244839071757688,-33.24804995428828
1760959463.055453,-11.178209029620875,-0.3458955252420142,0.8784456453681555,0.09964098457132774,3.649848715740845,7.551224975162056,-32.408774997672445
1760959463.0653036,-11.715483450521017,-0.35231163925295667,0.8666491279254225,0.09306090894829833,4.586644558621039,3.2792787499647287,-31.40725399651485
1760959463.075334,-12.23635155796198,-0.35584589558924756,0.8579762976109692,0.08603944145473466,5.58000476546335,-1.4805514778301627,-30.257268616391446
1760959463.0852907,-12.734299850813436,-0.3558051155095229,0.8527648241841566,0.07924558378831009,6.691562839229959,-6.597818593452716,-28.973574392474436
1760959463.0952973,-13.202904928756887,-0.35174112776625144,0.85107599747797,0.07330521411654749,7.96644221032513,-11.90408493048872,-27.576460722473684
1760959463.1052723,-13.636440020749124,-0.34358287982353475,0.8526932445101254,0.06872113516424684,9.42476470258732,-17.20011753418627,-26.095075579932573
1760959463.1154854,-14.030498801434327,-0.33171580534433764,0.8571664169171637,0.06581894640181814,11.056596053931932,-22.268106010227655,-24.568638418979283
1760959463.125321,-14.382524079702717,-0.3169843977625556,0.8638899312238639,0.0647208424506962,12.820982281858702,-26.887869953995306,-23.045103495554443
1760959463.1353266,-14.692130409532801,-0.30060609913459696,0.8721910859784897,0.06534373397755272,14.649159630704961,-30.85524811773745,-21.57732433606991
1760959463.145291,-14.961139517391306,-0.2840066602226353,0.8814062651580874,0.06741787735293832,16.451522789946864,-34.000286036598986,-20.21724024556685
1760959463.155391,-15.193302962268318,-0.2686097889266874,0.8909336080682168,0.07052476171586407,18.12750618003582,-36.20261953828913,-19.009004400228037
1760959463.1652565,-15.393751003470797,-0.2556256321995665,0.9002618673585799,0.07415266937655281,19.577168112725143,-37.401715153767576,-17.982247347245035
1760959463.1752968,-15.568261378447351,-0.2458802882226911,0.9089812943635068,0.07776409064118614,20.713011920990127,-37.6003807786741,-17.146758428233593
1760959463.1853223,-15.722475711892361,-0.2397173131164622,0.9167835112032405,0.08086506193406724,21.47048170045813,-36.861080689302725,-16.489717729836734
1760959463.1953275,-15.861201789736176,-0.23698761003784952,0.923455124371485,0.08306598884589055,21.81565508830035,-35.295846346661016,-15.976222574599584
1760959463.2054265,-15.987927427991911,-0.2371282031081808,0.9288664696842601,0.08412645077058908,21.748950008628515,-33.05167120952658,-15.553292388440996
1760959463.215407,-16.104637170931937,-0.23931392860984096,0.9329550568145142,0.08398034423587851,21.30421493559261,-30.293949958963022,-15.156904279298784
1760959463.225275,-16.211968885144305,-0.24265109427375384,0.9357046017834306,0.08274028172008989,20.543363531308323,-27.190616801734855,-14.721017234231821
1760959463.2352922,-16.309679885089903,-0.24637239735551392,0.9371237741059523,0.0806811258263557,19.547564190023746,-23.8991543902832,-14.187100488432689
1760959463.2452898,-16.397323684753893,-0.24999136367291094,0.9372308922816709,0.07820328070236271,18.406617105644017,-20.557757005343156,-13.51250040449867
1760959463.2553318,-16.47498442947196,-0.2533831414386525,0.9360500220173683,0.07577811301540836,17.208341024276624,-17.280921862290555,-12.676133036168467
1760959463.265273,-16.543890969665103,-0.25677445920141023,0.9336206587998426,0.07388031374888021,16.0295562639264,-14.158882061537053,-11.680478426283951
1760959463.2753909,-16.606746306059048,-0.26064547605108196,0.9300182837847722,0.07291409763773048,14.929759383118078,-11.259758628875279,-10.549585485667988
1760959463.2854571,-16.667663990694685,-0.2655667712459605,0.9253779713338679,0.07314206682326566,13.948018271451001,-8.633147684837173,-9.323601655960049
1760959463.2954268,-16.731694360576157,-0.272011927150969,0.9199103382531185,0.07462880746983314,13.103076492290228,-6.314004295868306,-8.051021050250453
1760959463.3053784,-16.804029673396894,-0.280194395738736,0.9139002373408898,0.07721515412066553,12.396184797519044,-4.326002177864759,-6.780230327377367
1760959463.3154354,-16.889064717332307,-0.28997089034584733,0.9076837268468527,0.0805378766024314,11.815811812419158,-2.6839191250453527,-5.551938781269412
1760959463.325382,-16.989525121443624,-0.30083226503666594,0.9016066364880312,0.08409777081438159,11.343183659806988,-1.394953303280151,-4.393743018961521
1760959463.335337,-17.105847958399146,-0.3119758925498189,0.8959757589649172,0.08736071036002928,10.957627964599071,-0.4591495992868968,-3.3175260264858397
1760959463.3454747,-17.235926740678124,-0.32243384736176767,0.8910177633586154,0.08986339501006826,10.64095532292854,0.13077076606996593,-2.3197779416149955
1760959463.355411,-17.3752482164435,-0.3312248404527497,0.8868589135727962,0.09129627201268248,10.38049444048514,0.3899362152466863,-1.3843833813634288
1760959463.365331,-17.517375684341253,-0.33750107591901746,0.883531180376585,0.09154708014017263,10.170738781185664,0.342072168637992,-0.4870462743234171
1760959463.3753188,-17.654681178056,-0.34066744641399876,0.881001243483591,0.09070101598934956,10.013756795697038,0.02036666884054169,0.3996321228458611
1760959463.3854096,-17.779198092378742,-0.3404574867138102,0.8792129174784614,0.08900221516514309,9.918582259631533,-0.5317285535588833,1.3013524378533423
1760959463.3954072,-17.8834595408552,-0.3369595657757251,0.8781328428849317,0.0867860952897927,9.899819353469047,-1.260072466138591,2.2383178087655997
1760959463.405512,-17.961207490294445,-0.3305972600902993,0.8777920939657459,0.08439559569255918,9.975716034498031,-2.100192547833757,3.222876848133854
1760959463.41534,-18.0078962725109,-0.32207533857803555,0.8783186866412418,0.08209777615052312,10.165952059840718,-2.978860621979158,4.258755928079022
1760959463.4252882,-18.020957166831387,-0.31230386490442413,0.8799552485884099,0.08001938347472409,10.489307747152768,-3.817260294104226,5.341765824369628
1760959463.4353492,-17.999827280940263,-0.30230941555551766,0.883053811533024,0.07811832585710722,10.961237798572098,-4.535939086732244,6.461656518587157
1760959463.4454842,-17.945773835349502,-0.29313932727745345,0.888039955120984,0.07620101540065971,11.591253732874936,-5.061412105722025,7.604637681643815
1760959463.4554868,-17.861565834173284,-0.2857645588861604,0.8953441369085398,0.07398439485531318,12.380006471059309,-5.333848214472048,8.755980600639022
1760959463.4654434,-17.751056185180143,-0.28098678130590954,0.9053076787125431,0.07118949513264278,13.316090957416604,-5.31483812949041,9.902082101286528
1760959463.4753177,-17.618732704542914,-0.2793530360557329,0.9180798393768688,0.06764425478406356,14.37284633588586,-4.993968854847986,11.03145039141031
1760959463.485383,-17.469275969027112,-0.28107816217851117,0.9335262053396511,0.06336966687231735,15.50573986280158,-4.392933619427972,12.134328410764537
1760959463.495403,-17.307134617339415,-0.285975111388662,0.9511670009939468,0.058625903153545045,16.651212737233397,-3.5662031933494114,13.201098134180285
1760959463.5053585,-17.136108203965446,-0.2933990245540621,0.9701605656847719,0.053902768611099966,17.72802537918106,-2.597749195002388,14.220089314809094
1760959463.5154839,-16.95892748924338,-0.3022221631201249,0.9893445387232565,0.04984986124989118,18.642038870175647,-1.5937837558850647,15.17574531505723
1760959463.5252998,-16.77684834155326,-0.31086788631801704,1.0073424333286247,0.04715472160849787,19.294862716086865,-0.6718991232877211,16.04808246511697
1760959463.5353594,-16.589318929004275,-0.3174327039196987,1.0227318127568605,0.04638973426749313,19.595844536972493,0.052605104981042476,16.81395473539521
1760959463.5453165,-16.39381662701472,-0.3199085503440038,1.034252727964567,0.04785686976085082,19.47570761866863,0.48198119131159606,17.449957798011233
1760959463.5553687,-16.185956088665517,-0.31648510596555507,1.0410179592324846,0.051461152587718474,18.899247682192783,0.5511876169632706,17.93619235366185
1760959463.5654414,-15.959931637547804,-0.30587628878450623,1.0426781039424953,0.05663994518938213,17.874346235619655,0.2408274557940404,18.259843065835316
1760959463.5753777,-15.709282931606788,-0.28759308253022775,1.0395004804408772,0.062367964880642376,16.455276038529153,-0.414470300242396,18.417707930080287
1760959463.5852466,-15.427886251564697,-0.26209047995925894,1.0323412365209033,0.06724801050082893,14.739579016992659,-1.3244036878377494,18.417297919521285
1760959463.595258,-15.111005220012553,-0.23074939420966886,1.0225172690436464,0.0696836458073981,12.85915459438867,-2.3495347630130015,18.27664573707987
1760959463.6052792,-14.756208541569915,-0.19569929763229876,1.011607347310141,0.06811252513112624,10.96711720905507,-3.316170271438038,18.023263491303307
1760959463.6154966,-14.363986091022088,-0.1595247491093472,1.001223056302435,0.06126126967699276,9.222283420018735,-4.038123111954374,17.69268346679822
1760959463.625455,-13.937957132403112,-0.12491789339984326,0.9927895187516311,0.04837189140033572,7.773032246060675,-4.342338005422516,17.3268019361517
1760959463.6353886,-13.484642880394512,-0.0943391528267958,0.9873674026973693,0.029352338111465055,6.742123946767445,-4.094324902785138,16.972006669095347
1760959463.6453624,-13.012848022014238,-0.06973590083639741,0.9855366635888353,0.004820900884369243,6.214062158557756,-3.219146731477882,16.676952697861587
1760959463.6552522,-12.532749436784611,-0.05235117506013902,0.9873517081853511,-0.023960243733794292,6.226595866535769,-1.7144368763385,16.4899078516917
1760959463.6653104,-12.054821227824112,-0.0426358474047019,0.9923667071259555,-0.0552426063976833,6.767664700718869,0.34660427898029167,16.455767124582984
1760959463.6755376,-11.588733931292392,-0.04026028826282541,0.9997187974283485,-0.08700362719853068,7.778339444186385,2.822435482881107,16.61301956232697
1760959463.6853406,-11.142356668201375,-0.04420857024557332,1.008249978420153,-0.11717141959207318,9.161278565263345,5.519068368942037,16.991036868908413
1760959463.6953316,-10.720971223304407,-0.052932717854030684,1.0166489998051655,-0.14382612751074844,10.793283248491571,8.211839368496353,17.607994862029873
1760959463.7052827,-10.326781643898089,-0.06454521359703347,1.0235997249045201,-0.16535722466851194,12.53996396947011,10.669773051874797,18.469567840634284
1760959463.7154353,-9.958772277484323,-0.07703050612055994,1.027926561123164,-0.1805726882735005,14.270376102556101,12.679411139036024,19.568338061604443
1760959463.7255108,-9.612931567737846,-0.08845819764087268,1.028727899859246,-0.18876700289430567,15.86964736754933,14.065546241261835,20.883730604479975
1760959463.7354896,-9.282821612551787,-0.09718161609165941,1.0254859585159457,-0.18975803851480644,17.248014784051335,14.7070264042487,22.382257280101427
1760959463.7452936,-8.960437006858319,-0.1020048214313363,1.018138288342203,-0.18389933194571714,18.34527548371617,14.546547664419524,24.017907802088857
1760959463.7553427,-8.63726293719862,-0.10229995902016115,1.0070961455663576,-0.17206713349964262,19.130413836760415,13.59406944872876,25.73262144573539
1760959463.7654138,-8.305418171177719,-0.09806013785835788,0.9932015137172095,-0.1556143946652365,19.597013627670833,11.924132407115854,27.45688510598713
1760959463.7753022,-7.9587612202963705,-0.0898829511042185,0.9776273132883604,-0.13628076170179132,19.75581905800292,9.667876024733125,29.110627224780075
1760959463.7853582,-7.593847763585669,-0.07889114818571095,0.9617380471855849,-0.11605241534907135,19.626273009065205,7.000891006227906,30.60470255677289
1760959463.795358,-7.210645989996555,-0.06660284061256165,0.9469335914789633,-0.0969784580390898,19.22892784618836,4.128184268633272,31.843350988914903
1760959463.8053207,-6.812935729162344,-0.05476360130371977,0.9344959306356102,-0.08096555015872334,18.580308023060258,1.2675276522641656,32.727996344846154
1760959463.815514,-6.408336606244,-0.04515260202751304,0.9254531266939083,-0.06958158373682642,17.691189206594725,-1.367616867012981,33.162591454123564
1760959463.825332,-6.007934999948255,-0.03937862989760327,0.9204722091373357,-0.06389856511811108,16.568457479337756,-3.584502167699814,33.0604528118986
1760959463.8353286,-5.6255125463899835,-0.03868746636097805,0.9197927040545552,-0.06439620393294737,15.219878243793403,-5.225847849355929,32.352237754093295
1760959463.845413,-5.276418239769693,-0.04380489986723482,0.9232112923348216,-0.0709354821022284,13.660434180280314,-6.182063435672732,30.99445076345907
1760959463.8554168,-4.976166425815785,-0.054836687426920334,0.9301226821955816,-0.08280040298865482,11.918556196971213,-6.4001559346911785,28.977645111559067
1760959463.8654885,-4.738878384387992,-0.07123810426997743,0.9396121975576363,-0.09879859548678761,10.040641101933534,-5.888619365221058,26.3333316074484
1760959463.875391,-4.575711850737111,-0.09185433248670251,0.9505848672295137,-0.11740668381216485,8.092672978898465,-4.7177292933438935,23.13853948349437
1760959463.8854895,-4.493439222085803,-0.1150238042670105,0.9619086676029892,-0.13694264989502367,6.158390734224916,-3.014875200616404,19.517003227376865
1760959463.8953624,-4.493338412104868,-0.13873172001849934,0.9725488148095207,-0.15574503242415494,4.3340863119461615,-0.9548823956172812,15.63608425163774
1760959463.905314,-4.570543180853868,-0.1607974940026695,0.981674514061372,-0.1723392412850209,2.7206524522709565,1.2543033457396506,11.698829631586731
1760959463.91547,-4.713956788443449,-0.179076073990488,0.9887266721249375,-0.18557450167957845,1.4138995776721828,3.3897132828028056,7.931092667437448
1760959463.9252548,-4.906769106468508,-0.1916517716694844,0.9934427413121801,-0.19471905403154902,0.4944299860820638,5.233899201788863,4.564384879101377
1760959463.9352849,-5.127548118272058,-0.19700722340429477,0.995841482875109,-0.19950514273385192,0.018444910016185,6.596162115260855,1.8159470517030833
1760959463.9453807,-5.351816169955407,-0.19415709014193988,0.9961750876491594,-0.20012024127531747,0.010702916201730599,7.3323785526237275,-0.13180730230635465
1760959463.955451,-5.553972891479291,-0.18274067163460905,0.994859081629611,-0.19714792620494875,0.46048590912642273,7.361175598157592,-1.1499736862550196
1760959463.9653816,-5.709387703456114,-0.16306776299187617,0.9923922341839054,-0.19146910233703998,1.3210212956482341,6.674342942642043,-1.1774841140651202
1760959463.9753332,-5.796458580885122,-0.1361118532189468,0.9892791559689394,-0.1841391071619864,2.5124864658818593,5.339917052160013,-0.22899996044940682
1760959463.9853482,-5.798431569279926,-0.10344883648112772,0.9859671483903887,-0.1762578393731735,3.9284568881841,3.4972629077448625,1.6049508938069847
1760959463.995445,-5.704804620166041,-0.06714665564855077,0.9828055050962983,-0.16884917593913706,5.4453281138715734,1.3444691448159931,4.16586911849133
1760959464.0053291,-5.512191597234345,-0.0296158706761174,0.9800293159682598,-0.16276264723940484,6.9337947635088595,-0.8807702268749197,7.2423294290845615
1760959464.0152504,-5.224579323188603,0.00656998760197145,0.9777625931606951,-0.15860491179395034,8.27101677049855,-2.9249634572342336,10.59026979896666
1760959464.0253518,-4.852960177276791,0.03887794463753277,0.9760312614074236,-0.1567030185516951,9.351852193939573,-4.545000055595532,13.955954583512456
1760959464.0354187,-4.414368389814908,0.06503360460008718,0.9747780893634869,-0.15709792312572454,10.097647698890668,-5.534013891983937,17.09884707508684
1760959464.0455909,-3.930399490937805,0.08323435562073787,0.9738777969191071,-0.15956526047570616,10.4615589292594,-5.7440679666408405,19.81187058826617
1760959464.0556629,-3.425349636787884,0.0923284586697253,0.9731564721187467,-0.16365968558379893,10.430063516185148,-5.102943987805802,21.93710567074036
1760959464.0654182,-2.924160830318732,0.09192973087114459,0.9724197884073579,-0.16877843071711268,10.020985495705172,-3.6228622652205544,23.375712558376602
1760959464.075472,-2.4503815924779344,0.08244828738248683,0.9714886153064114,-0.17423870618299098,9.27878206454401,-1.399871267968798,24.091636064264584
1760959464.0856225,-2.024343175796447,0.06503429620956237,0.9702337365413496,-0.17936181396230821,8.268012066262386,1.3961779025746623,24.109342444351437
1760959464.0955358,-1.6617159774186245,0.04144559681832833,0.9685994861834644,-0.18355493315346438,7.065888926451684,4.539903361192332,23.506390085461753
1760959464.105376,-1.372561935939709,0.013857913201491408,0.9666102243712337,-0.18638096482730324,5.754714582194737,7.774657322083618,22.40201196282387
1760959464.1153567,-1.1609443611057904,-0.015359732215237001,0.964360138599459,-0.18760825546207135,4.4148503023816605,10.839832496556253,20.943096726032504
1760959464.1256177,-1.0250985863535484,-0.043878844772049744,0.9619916159743532,-0.18723445346323325,3.1187230282133047,13.498017373289318,19.289036734528544
1760959464.135437,-0.9581070962996772,-0.06962693351624527,0.9596685968426544,-0.18548098755398704,1.926194473309002,15.55895061275421,17.59688719617556
1760959464.1454158,-0.948969722421362,-0.09095909933147298,0.9575500960987573,-0.18275705468355932,0.8814435477028527,16.897659585707284,16.008142288829845
1760959464.1553636,-0.9839246722602576,-0.10676824284180973,0.9557675616461311,-0.17959598440857716,0.011355112877238284,17.46486750314768,14.638179692716538
1760959464.1654332,-1.047865709487637,-0.1165280170178377,0.9544087799759284,-0.17657256226161205,-0.6747027474007773,17.288699547235833,13.569091542853721
1760959464.1753306,-1.1257122487503495,-0.12027355655049507,0.9535102051077209,-0.17421523261093858,-1.1838834678065777,16.467806918647742,12.846268273376605
1760959464.1852472,-1.2036148623017529,-0.11853243817688112,0.9530582276235268,-0.17292929154703587,-1.5378285808895404,15.157074952687934,12.47876662807538
1760959464.1953707,-1.2699103085805539,-0.11222138064556389,0.9529980461565574,-0.17294496413172467,-1.7697730237296823,13.54791515366919,12.44316726040323
1760959464.205359,-1.3157716888968238,-0.10252354680155325,0.9532474151592345,-0.17429837855657568,-1.9209744384875105,11.845662995237163,12.690305168165498
1760959464.2152362,-1.3355287907753646,-0.09075886989411902,0.9537125032487418,-0.17684582593590134,-2.0366752771158154,10.24678527887808,13.153968247899572
1760959464.225386,-1.3266617035232715,-0.07825731899854835,0.954304046734189,-0.18030464790660836,-2.161838022617881,8.9184529773013,13.760460542930366
1760959464.2354417,-1.289497333865435,-0.06624286455041613,0.9549527488237141,-0.18430961816362149,-2.336925544303113,7.9825884369224385,14.437868090184683
1760959464.2453377,-1.2266615212616752,-0.0557337974145617,0.9556227943966945,-0.1884726337213786,-2.59402535348285,7.505813861188155,15.123968024365084
1760959464.2553542,-1.1423569170221337,-0.047463194277789646,0.9563218312161004,-0.19243537349742526,-2.953635107862021,7.495927257988888,15.771964867794305
1760959464.2655928,-1.041548217452314,-0.04182243002387296,0.9571057114382157,-0.19590800900416916,-3.422432714464243,7.904753336591094,16.35357283982224
1760959464.2753253,-0.9291418459391996,-0.03883064778804953,0.9580770879622937,-0.19869088889301534,-3.9923374677564265,8.636569307421794,16.859336315865498
1760959464.2854645,-0.8092453502281641,-0.038132826120468394,0.9593782735284603,-0.20067971437952314,-4.641109776904112,9.560843666537354,17.296439641034997
1760959464.2954183,-0.6845808770597356,-0.039027783048008996,0.9611801116499432,-0.20185756788619214,-5.334612450276178,10.527762756524961,17.68454871694313
1760959464.3053553,-0.5561079332649027,-0.040525673164992275,0.9636695571202346,-0.20227844931641334,-6.030652147899487,11.384934866468067,18.05040519297162
1760959464.3153608,-0.4228865990558764,-0.04143291307029302,0.9670386802727076,-0.20204618082201467,-6.684054774969494,11.993707552107251,18.42193824619861
1760959464.3253489,-0.282187077961784,-0.04046091750355716,0.9714765974721565,-0.20129059088444526,-7.2523740085045185,12.243664251684164,18.822582896277055
1760959464.3354013,-0.12982798895225015,-0.036353372115021154,0.9771637841849251,-0.20014181714544468,-7.701490078698053,12.064064142109471,19.26634866060696
1760959464.3455405,0.03929371112971103,-0.0280249216683761,0.9842662285466417,-0.19870425256860366,-8.010393848168118,11.43126168098656,19.754034326086725
1760959464.3555856,0.23053359070591442,-0.014701539173072268,0.9929258350008817,-0.1970329309027576,-8.174642931025593,10.371492788576642,20.270876629139213
1760959464.365647,0.4487561640826744,0.003951019908662243,1.0032439006709146,-0.19511550520556467,-8.208212936676537,8.958826008290675,20.785846959664084
1760959464.375453,0.697591756703423,0.02772875425077639,1.0152561633064159,-0.19286166918515696,-8.143631522903476,7.308516290752747,21.252724582368415
1760959464.3853984,0.9787755039481871,0.055842108059555924,1.028900385384224,-0.1900988370318784,-8.030339058989336,5.566430115556195,21.612930302477615
1760959464.395337,1.2916498776879466,0.08693892725167969,1.043980953205054,-0.1865700575500355,-7.931249570964894,3.895591296258375,21.799901532549715
1760959464.4054098,1.6328985494535146,0.119206182403805,1.0601395208130913,-0.18193122470381817,-7.917625423710374,2.461164384473697,21.744584515313843
1760959464.415506,1.996550121929812,0.15054234610028722,1.0768433885714719,-0.17575051196349295,-8.062673882500022,1.4152895657744484,21.381472899906658
1760959464.4255617,2.3742527334705477,0.17877793833361597,1.0934000289175865,-0.1675192243977003,-8.434607341918051,0.8831225310577868,20.654557747530237
1760959464.4354804,2.755786290000201,0.20191454058389244,1.1089976977021059,-0.15668497006343485,-9.09010345359043,0.9513020160740964,19.522574332386622
1760959464.4455383,3.129753456625646,0.21835060357684286,1.122764209021187,-0.14271391033881126,-10.069060843837066,1.6599293183566395,17.963028003796058
1760959464.4555113,3.4843728468399906,0.22706330512690248,1.1338330686223541,-0.1251803861037519,-11.39129248115873,2.998957503243711,15.974619819671052
1760959464.4653919,3.808288254508395,0.22772056191258955,1.1414074331855577,-0.10387212116986484,-13.055409935411147,4.909551438514265,13.57782794806106
1760959464.4754364,4.091309600606342,0.22070745531495684,1.1448145527685103,-0.07889088710058322,-15.039714143033114,7.290445350156084,10.813526873415082
1760959464.4852796,4.325016637634681,0.20706544549768843,1.143545507169162,-0.05072520246260631,-17.304524997141485,10.008667005216038,7.739680071926081
1760959464.4955,4.503181149804493,0.18835657341842543,1.137279428210596,-0.020274870520150805,-19.7951710930081,12.913372953844473,4.426356719718142
1760959464.5053804,4.6219879898979634,0.1664739584069697,1.1258990362622385,0.01118424330592549,-22.44490111604006,15.851087041654512,0.9495753086422398
1760959464.5153913,4.680052597638627,0.14342289955311513,1.1095110339480645,0.04209609637479748,-25.17726187856253,18.68042891090973,-2.6153298263235456
1760959464.5254352,4.678242898350633,0.12109568485833147,1.088483420073354,0.07077233816626528,-27.907921437035863,21.28448039951401,-6.200085775808573
1760959464.5353649,4.619322233589237,0.10106095262597739,1.0634980216429335,0.09557634569580872,-30.54634349815788,23.579246787548332,-9.748977952603575
1760959464.5452633,4.507442424874049,0.0843880737341877,1.0355959283254519,0.11512198832617665,-32.99796177921924,25.517189255511894,-13.222979271298716
1760959464.5553086,4.3475339887350275,0.07152966742396065,1.006180857224788,0.1284602022171857,-35.16742264051933,27.085500011899452,-16.60207854000272
1760959464.5653436,4.144661637501935,0.0622873310392321,0.9769526035960311,0.13522239735463382,-36.963049010275164,28.299607287363372,-19.885356638540838
1760959464.5753846,3.903430548955193,0.05587900889126542,0.9497658100456295,0.1356908664128624,-38.30209174274686,29.193203624541603,-23.088390726239858
1760959464.5854056,3.6275328098328257,0.05110686067260934,0.9264338020790361,0.13077468661485794,-39.11586900510561,29.8066739424576,-26.23778083168969
1760959464.595467,3.319507314905035,0.046597633180543926,0.908513034493475,0.12188436027569138,-39.35382117446529,30.175955103393868,-29.363047077319784
1760959464.6053662,2.980750843401143,0.04106527384736651,0.8971091572653556,0.1107186247403895,-38.98588679676326,30.32354449977598,-32.48678261268181
1760959464.6153815,2.61177099789563,0.033538384988901354,0.8927416246522628,0.09899905006626213,-38.00319343846469,30.25277349308101,-35.614578755295724
1760959464.62529,2.2126256392517223,0.02350664669963353,0.8952907147542501,0.0882040219568162,-36.41748169805753,29.945836831981357,-38.72661275317947
1760959464.635394,1.7834599083753702,0.01096428028662657,0.9040317759292573,0.07935603714877153,-34.259753650178745,29.36556771224356,-41.77273811105804
1760959464.6453414,1.3250368673640165,-0.003646589603201489,0.9177425527944394,0.07290430055139493,-31.57847536067071,28.460564038539587,-44.67244061000878
1760959464.6553502,0.839161914103898,-0.019571507550518206,0.9348569745416377,0.06872321184627772,-28.437490212931337,27.172953990301263,-47.32023375692472
1760959464.665388,0.3289226257848478,-0.035925419270909906,0.9536360337146692,0.06622235394113099,-24.913719499400717,25.44780872911989,-49.59612458141652
1760959464.6755512,-0.2012988528323412,-0.05188139760753178,0.9723315536833899,0.06454004576393414,-21.094703691706176,23.24295403107148,-51.379868455315844
1760959464.6856449,-0.7460402688701909,-0.06682671587012899,0.9893272960198267,0.0627748794570152,-17.076019140991143,20.537718511824682,-52.56703040234359
1760959464.695332,-1.2991569779479542,-0.08045367819472023,1.0032508836819911,0.06020245495038422,-12.9585951768227,17.339073552203534,-53.08449226341389
1760959464.7053046,-1.8543261142856613,-0.0927671388150113,1.013057240366662,0.05643083037071674,-8.84596430323113,13.683818028966,-52.9030127282127
1760959464.7153919,-2.4055637286330445,-0.1040095707070501,1.0180865815684557,0.05146677163287581,-4.841466743026435,9.636047581028924,-52.044742137541526
1760959464.725291,-2.9476634921864653,-0.11452318081753886,1.0180961149707093,0.04568942533485652,-1.0453838897963654,5.280086378012414,-50.584197783570595
1760959464.7353516,-3.4764850391052295,-0.12458344209403677,1.0132585419477258,0.03975026065395312,2.448056361338079,0.7101537607279506,-48.642097856836884
1760959464.745471,-3.989053401411149,-0.13424737358246935,1.004119874782488,0.03443164297565104,5.553835468500813,-3.9810119097147814,-46.372572226889446
1760959464.7553349,-4.483472081937137,-0.14325966507211874,0.991518350683396,0.030498785456528565,8.19943725367529,-8.711878764037566,-43.94545344445038
1760959464.7655473,-4.958691640891713,-0.15104707078382607,0.976480189540265,0.028573015340154953,10.328183872496899,-13.41775103425532,-41.52633002973496
1760959464.7755148,-5.4142030535683565,-0.1568082061897797,0.9601152765251675,0.029043303249566138,11.902413325195575,-18.050821027852635,-39.25753570092725
1760959464.785497,-5.849734033098981,-0.1596800042671246,0.943530633499901,0.03202272885533181,12.906158673312959,-22.57457659628829,-37.24310049446017
1760959464.7953281,-6.265016884738426,-0.15894267007637,0.9277668007291453,0.03734928790355698,13.346895471402123,-26.95396681770158,-35.53995122851617
1760959464.8053205,-6.659673634779075,-0.15421674715445638,0.9137511058242579,0.04462596519713415,13.255938256177217,-31.14385726301336,-34.15653247741978
1760959464.8155582,-7.033235627250048,-0.14560875885608027,0.9022571740884658,0.053291895479186266,12.687182932660443,-35.07880391200356,-33.05878131631743
1760959464.8254142,-7.385287179810648,-0.1337734923432024,0.8938617484669813,0.06271350040649132,11.714076733617796,-38.666935864154176,-32.18223150224219
1760959464.8353915,-7.715701007361091,-0.11987853170184402,0.8888957297748918,0.07228190354467688,10.424923746160955,-41.78984453018312,-31.448095603278716
1760959464.8456497,-8.02491926640228,-0.10547647757644701,0.8873941075734371,0.08150214606485758,8.916864176174494,-44.30905382118351,-30.780606475417354
1760959464.8554146,-8.314228047966822,-0.09230801672747488,0.8890572641825095,0.0900617155442271,7.289047953622482,-46.07820729872619,-30.122788884372348
1760959464.8655052,-8.585973924050009,-0.08207108545735602,0.8932418775036711,0.09786964901019335,5.635614097176436,-46.958899194255,-29.448212808642037
1760959464.8753598,-8.843678781468954,-0.07619615621247426,0.8989997922631062,0.10506102807362483,4.039080892621914,-46.837365617907714,-28.76710177902297
1760959464.8853936,-9.09202410506383,-0.07566470858713696,0.9051735779945838,0.11196471351571304,2.5646900860784863,-45.639145491770634,-28.126267223111906
1760959464.8957455,-9.33669648638452,-0.08089771292896422,0.9105387432199592,0.11903635909098646,1.2561792242796423,-43.33927416557937,-27.603437554077363
1760959464.9053328,-9.584108277004972,-0.09172623521079705,0.9139643835511082,0.12676494349352083,0.13339638680605015,-39.966465574868806,-27.297359930960408
1760959464.9155023,-9.84102668671927,-0.10744203870732887,0.9145577867287299,0.13556670562752346,-0.8078834104199272,-35.60089147079649,-27.315413080424932
1760959464.9255111,-10.114158572038749,-0.12691592328563364,0.9117664540317711,0.14568129476293995,-1.5936467300427226,-30.366332678681246,-27.76041001085815
1760959464.935354,-10.409744501381656,-0.14876488061187143,0.9054261742741807,0.15708101506547578,-2.2666596188731103,-24.418407590162253,-28.71794777760019
1760959464.9453564,-10.733211759082275,-0.17154358933324904,0.8957574464981833,0.16940085064621188,-2.8788700140862433,-17.93111959540247,-30.245260914946922
1760959464.9553223,-11.088920510508567,-0.19393173068044056,0.8833195068257023,0.1818982985743752,-3.481643509413538,-11.084071041744732,-32.36218933119532
1760959464.9654288,-11.480013196116015,-0.21488891716383401,0.8689316295081461,0.19345426135095312,-4.114818313274776,-4.052402736411779,-35.04464306525338
1760959464.975395,-11.908351280100014,-0.23375508321744065,0.853569427340053,0.20262480489498014,-4.796095449670597,2.9991010879021895,-38.220842063891006
1760959464.985471,-12.374504240289207,-0.2502848550396086,0.8382444225773701,0.20774962171484185,-5.512583107306623,9.91714766377803,-41.770589566864835
1760959464.99551,-12.8777498869004,-0.2646177962098398,0.8238798148961888,0.207118772975678,-6.216263024803828,16.55663250132455,-45.527828012901956
1760959465.0054567,-13.41605483817382,-0.27719973533436143,0.8112004436987321,0.1991925393984625,-6.824769906190094,22.774068957081774,-49.28665943439319
1760959465.01558,-13.986025069983206,-0.2886787177613223,0.8006547316124483,0.18285694801330446,-7.228248144130536,28.41961492264836,-52.810863264180306
1760959465.0253878,-14.582839881265128,-0.29979808231327437,0.7923795935218642,0.15768165372889284,-7.302212085685657,33.330002291116365,-55.84672077675411
1760959465.0355353,-15.200199578542534,-0.31129992603526746,0.7862103158001792,0.12413375939643685,-6.925323811252607,37.32475022725002,-58.138676828594775
1760959465.0453706,-15.830323495668893,-0.32384127156181813,0.7817308660661152,0.08369725269882072,-5.999908320108083,40.20771107993461,-59.447048937522574
1760959465.0553505,-16.46403084873903,-0.3379181321079275,0.7783565533281409,0.038856494900470745,-4.472021737983346,41.77531173643225,-59.56662291370939
1760959465.0655932,-17.090924379863697,-0.3537904784360019,0.7754393420248623,-0.007076484668324885,-2.3472518752355347,41.83190046791025,-58.34456499552781
1760959465.075415,-17.69967878578044,-0.37140345624516347,0.7723866935462952,-0.05028146554985203,0.3014775742980715,40.2114688407307,-55.69573137814202
1760959465.0853384,-18.278417590225843,-0.3903078100313559,0.7687867733447745,-0.08685687035099163,3.3367406866778895,36.80377901183945,-51.61334634151598
1760959465.0956638,-18.81514981130271,-0.40959454619182223,0.7645322309245127,-0.11329281506325263,6.570720605770967,31.58175205786153,-46.17331273540001
1760959465.1053402,-19.298235880282242,-0.42787056748991964,0.7599293283002044,-0.12692027828681043,9.788840982962004,24.626129523176758,-39.53114394443604
1760959465.1154473,-19.71685996698739,-0.4433071752225705,0.7557733528270475,-0.12626943488429393,12.779098546953195,16.143179806251567,-31.911526008519335
1760959465.1253953,-20.061497145111975,-0.4537880669466833,0.7533708567265149,-0.11128308497953804,15.362101537264786,6.471698384845646,-23.5916108312049
1760959465.1355681,-20.32437053212653,-0.45716643803795837,0.754494140076244,-0.08335209642092774,17.416656669426782,-3.9233632407574364,-14.880108380897829
1760959465.1454294,-20.499890187515803,-0.4516135395221281,0.7612583826860154,-0.045166190885571604,18.896397820183086,-14.471861346154874,-6.094917932744565
1760959465.1557229,-20.585053478324788,-0.43600939682012746,0.775913144312363,-0.000400425011558275,19.834166547454387,-24.53368422056305,2.4577626058934605
1760959465.165373,-20.579772661976907,-0.41029973239418926,0.8005410122622173,0.04671925702156527,20.332557256806645,-33.44638642242381,10.500316570184655
1760959465.1756501,-20.487085504161282,-0.375731073614173,0.8366681920235788,0.09191164813423335,20.541262120359576,-40.581906965852774,17.79501247256188
1760959465.185591,-20.313200762734056,-0.33488539104617376,0.8848228668432431,0.1313295124019695,20.62446904164985,-45.40755135192855,24.149449302813856
1760959465.19533,-20.06733345618729,-0.2914675273986403,0.9441192275060866,0.1619773024767168,20.724095792157954,-47.5449864225859,29.417152770866778
1760959465.2054124,-19.76129683725773,-0.2498467756768978,1.0119780963893659,0.18200373224972194,20.92635546661567,-46.81996146023947,33.49537306480043
1760959465.215433,-19.408839087761343,-0.21440755330724584,1.084101282880235,0.19083094870750558,21.239387916520624,-43.29524043150034,36.32266913203872
1760959465.2253506,-19.024741598559764,-0.18881347574879498,1.154786266984216,0.1890978958632089,21.588133040872293,-37.28009746542234,37.87867091926362
1760959465.2353654,-18.62373141738813,-0.1753256298052841,1.2175978837440264,0.17841597169965395,21.829382977622622,-29.31182205601711,38.187443227261035
1760959465.245349,-18.219300971072983,-0.17432876112039963,1.2663144883491149,0.160967080252009,21.785592794118955,-20.10799939308276,37.32431805511541
1760959465.2555513,-17.822566915570718,-0.18419667173851154,1.295966687090308,0.1390161970851392,21.29144142734744,-10.492721340615125,35.42427138732026
1760959465.2655754,-17.441325518804668,-0.20156388861508923,1.3037295524601982,0.1144486512925754,20.243384154190323,-1.304888817666319,32.68837507525541
1760959465.2753685,-17.079460835925072,-0.22197163934415148,1.2894481663967103,0.08845540578109848,18.640603241067403,6.69862754850951,29.384135809947793
1760959465.2855933,-16.736823406821213,-0.24074854704969398,1.2556705991736528,0.06146092489810239,16.606604936198906,12.929492396054115,25.83614481481714
1760959465.2954457,-16.409620250932132,-0.2539102341477318,1.2071923344652118,0.033318127046210025,14.384305994058492,17.029160362013823,22.405459419209798
1760959465.3054326,-16.091255572301527,-0.2588520350896297,1.1502300310283569,0.003705692989441683,12.303134954192737,18.894330372847755,19.45892631904157
1760959465.3153992,-15.773464112026575,-0.25467447298812934,1.091409594738117,-0.027409956844178313,10.723234807704118,18.663470042973447,17.332287225753205
1760959465.3253767,-15.447519807870568,-0.24209834484218318,1.0367709762468873,-0.05941077639304019,9.967719906428844,16.6696871265641,16.292617551526952
1760959465.335351,-15.105306838588792,-0.22304833062007318,0.9909682745197941,-0.09088969990809069,10.257423863998897,13.37191648413109,16.506138782124054
1760959465.3456333,-14.740108222990019,-0.20006382701934983,0.956786878902538,-0.11978961591189487,11.662483805609558,9.279335546087633,18.01678589315952
1760959465.355371,-14.347068687290095,-0.17571059545436565,0.9350225713265438,-0.14377858938581756,14.081368252259125,4.88275739599233,20.739300776797933
1760959465.365592,-13.92338029988663,-0.15212754458099845,0.9246913745227454,-0.16075122407323805,17.251660510199464,0.6026886314135238,24.46825406851288
1760959465.3753867,-13.468291109839857,-0.13077902945588468,0.9234827210568562,-0.16931511883397207,20.789819535374317,-3.2414136542639254,28.901590255647573
1760959465.3853254,-12.983042864230676,-0.11242070810126259,0.9283411642992654,-0.1691348445519622,24.25113713210495,-6.44091695671536,33.67468408973421
1760959465.3955495,-12.470815192432143,-0.09723923086280768,0.9360616420329557,-0.16105468878479662,27.19764285274655,-8.89059716823376,38.399277482873
1760959465.405407,-11.936706957839942,-0.08509591062982504,0.9438027463160602,-0.1469843524395335,29.261307349867963,-10.56982371138611,42.70149036414575
1760959465.4153528,-11.387735975463206,-0.07579208396201494,0.9494529981335194,-0.1295869938297879,30.192143662900605,-11.518646112844145,46.25423448838284
1760959465.4254072,-10.832798106241926,-0.06927908467769346,0.9518190457175455,-0.11184485522249009,29.88476438830909,-11.814315490523366,48.801242295858515
1760959465.4353685,-10.282504549124319,-0.06575713519061123,0.9506357891684589,-0.09659198863070306,28.38156160239831,-11.552129171109423,50.17186595322591
1760959465.445331,-9.748817066791617,-0.06564067145723516,0.9464238672764524,-0.08609855851232565,25.854944197109,-10.832473851116815,50.287267978369584
1760959465.4553916,-9.244426251356735,-0.06940586811477598,0.9402403297227008,-0.08177244610745053,22.57420833563299,-9.754081240343284,49.15939295441048
1760959465.465484,-8.781864878525694,-0.07737047859461943,0.9333828701771282,-0.08401843411122685,18.86419080418248,-8.412179363068299,46.884256743473046
1760959465.4755821,-8.372409093052143,-0.08947581792960965,0.9271110909595723,-0.09226729229290091,15.062831193210217,-6.899582592064107,43.63085579904554
1760959465.4857268,-8.024881781849256,-0.10513770247729055,0.9224350196202198,-0.10515838403189208,11.483486359432364,-5.308768225310211,39.62665836220123
1760959465.4956064,-7.744519095110348,-0.12320871681172904,0.9199955420659371,-0.12083326175139003,8.385873413265228,-3.7334306264862556,35.14041177133682
1760959465.5054514,-7.532077782060467,-0.1420593963427424,0.9200349181711115,-0.1372795036210056,5.957466524950018,-2.268595061147589,30.463002411387933
1760959465.5155003,-7.383339324053017,-0.15975437815367044,0.9224377693642912,-0.15265863081552328,4.305459587963991,-1.0088664188843575,25.887315784018245
1760959465.5256796,-7.2891093101518685,-0.17428040081147203,0.9268165660277706,-0.1655612129102782,3.4581714129748424,-0.04468797756888525,21.688307947440173
1760959465.5356233,-7.23573165124483,-0.18377905844840528,0.9326173708580439,-0.17515372632903217,3.3739508630015274,0.5433500633369072,18.104638359812338
1760959465.5455632,-7.206059435220491,-0.18674651441416742,0.9392261702004422,-0.181208765617266,3.955167709900525,0.6919512565860717,15.323170683377302
1760959465.5553916,-7.18076908819547,-0.18217989902294,0.9460607853537861,-0.18403449315667816,5.064773998471125,0.3638228361902836,13.467468693443466
1760959465.5656595,-7.139881969405534,-0.16966809742054229,0.9526385485963903,-0.18433439135346769,6.543210563687138,-0.44326903485288177,12.59113480595568
1760959465.5754223,-7.064359241228603,-0.14943446389005943,0.9586159920843532,-0.18303284436140368,8.224008280306434,-1.6885603732311887,12.676474354486203
1760959465.5854445,-6.937642232685724,-0.12233682529656616,0.9638019502970727,-0.1810987277497651,9.947077078796354,-3.2833612601345865,13.638563176271479
1760959465.5955787,-6.747009748700684,-0.08982159198768212,0.9681481068008422,-0.17939221068314903,11.569191396388547,-5.091100805368269,15.334393613097856
1760959465.6057012,-6.48462354856425,-0.053824814265043784,0.9717218822055649,-0.1785517016205988,12.971511409532194,-6.933815630483499,17.5763758612022
1760959465.615678,-6.148150399698491,-0.016618994517440786,0.9746670179087794,-0.17892897508202377,14.06419823070406,-8.605493008818193,20.1490659475962
1760959465.6255152,-5.740890485301634,0.01938396245654256,0.9771572677140083,-0.18057224004772435,14.788366303586349,-9.891288047378218,22.827620183809156
1760959465.6355627,-5.271399115819232,0.05185316571440915,0.9793482333159226,-0.18325101957713447,15.115767835781462,-10.590317512803704,25.39624874400407
1760959465.6453915,-4.752648359633738,0.07875615014604705,0.9813326601559592,-0.18651361552296344,15.046684703958428,-10.53887673213459,27.66495948608606
1760959465.655599,-4.200828116656163,0.09854479759303549,0.9831061837733166,-0.18976660911292015,14.60649729806754,-9.630718442864115,29.483142354216422
1760959465.665727,-3.6339267169294014,0.11028316526730172,0.9845522985962573,-0.19236546717005765,13.841322476072705,-7.831453869416128,30.7489380189773
1760959465.675369,-3.0702537434465684,0.11369802311130182,0.9854545284743171,-0.19370589148496267,12.813005968505568,-5.1850559500897395,31.413760004404917
1760959465.6856441,-2.5270668384229618,0.10914624484558143,0.9855386383503227,-0.19330711843310827,11.593678799863735,-1.8116721826922446,31.481775201991518
1760959465.6953368,-2.019437293605311,0.0975100732117019,0.9845389338457582,-0.19088017731946802,10.260086028829027,2.1027570763977104,31.004614564136062
1760959465.7053792,-1.559439555406818,0.08004699897810882,0.9822732395391489,-0.18637491311686383,8.887956341014492,6.323498054627497,30.072065935992306
1760959465.7154748,-1.155687818475718,0.058229895537588484,0.9787054547341552,-0.17999932853167705,7.546740872158603,10.588396189878338,28.799915538035677
1760959465.725394,-0.8131864037032982,0.033609796312966615,0.9739769701267925,-0.17220570849032799,6.2950538154996005,14.631176244359231,27.316369104040472
1760959465.7354367,-0.5334287016406756,0.007717422991561346,0.9683993893338498,-0.1636426433636252,5.177090932125568,18.204379114568955,25.748561174362525
1760959465.7456114,-0.31467856395474403,-0.018000987617413908,0.9624150082424662,-0.15507973748676615,4.220217479276918,21.099986872656526,24.21055638013822
1760959465.7554426,-0.1523849537270189,-0.04222912179533282,0.9565393740705431,-0.14731808106802532,3.4338355792997204,23.166193367279085,22.793979603449127
1760959465.7654724,-0.0396955875412511,-0.06381973607615997,0.9512986540447709,-0.1411010102865695,2.8095780450605954,24.31917578548508,21.562023692068042
1760959465.7754667,0.03196009888047148,-0.08183084137282978,0.9471684474000909,-0.13703707142606855,2.3228350188368134,24.549085915960962,20.54715011470729
1760959465.785426,0.07224970675201928,-0.09555651857938005,0.9445164792405448,-0.13554327122335227,1.9355900980126879,23.919833492243605,19.752400304620313
1760959465.7953947,0.09131093265379636,-0.10454898274741065,0.9435513903262904,-0.13681308327154573,1.6004905313485995,22.562626667177177,19.155908478820553
1760959465.8054216,0.09915152411275717,-0.10862933885765605,0.9442823885723521,-0.1408101608682561,1.2659645659852687,20.66369453512435,18.717937147050243
1760959465.8156426,0.10510727069107122,-0.1078855865333125,0.9464979141560739,-0.1472851917898879,0.8820268145472282,18.447127272468833,18.389524986034424
1760959465.825437,0.11738583917902778,-0.10265781805899035,0.9497734004341724,-0.1558104834502282,0.40622624100783256,16.154265326247685,18.121647910936833
1760959465.8354778,0.142718719113864,-0.09351196895166954,0.9535164624202815,-0.16582549267747237,-0.19094574755178864,14.021465733709757,17.87368189181538
1760959465.8455591,0.18613598011401739,-0.08120445722443242,0.9570515613252466,-0.17668673564701445,-0.9219111198131907,12.25830884698489,17.619979217847032
1760959465.855569,0.2508692853913196,-0.06664030750383045,0.9597365507740396,-0.18771686902310883,-1.779774887939446,11.028342308221607,17.353585103871144
1760959465.8654263,0.33837834293973296,-0.05082641495232005,0.9610930085654019,-0.19824981710088682,-2.7384736395952967,10.434264751954103,17.086534852177408
1760959465.8754342,0.4484867299682916,-0.03481875570310864,0.9609239020652409,-0.2076712340325966,-3.7554937223355576,10.509040348471174,16.84671778875463
1760959465.8854241,0.5796078150267475,-0.019658501736757688,0.9593899214493833,-0.21545542645978533,-4.777008804185571,11.213861813960463,16.67186569126864
1760959465.8955598,0.7290416568643716,-0.006291301381167609,0.9570240277884594,-0.22119984039293106,-5.744895590663943,12.443209217611535,16.601709708128222
1760959465.9055111,0.8933265085721757,0.004529479458751613,0.9546814296437762,-0.22465577895270658,-6.604685440449527,14.036540334866086,16.66964655523631
1760959465.9154687,1.0686277906240287,0.012342802678354069,0.9534398108490716,-0.22575062257315917,-7.313209525084912,15.795461871344228,16.895281792883566
1760959465.9254887,1.2511379159015439,0.0170602620246833,0.9544726433869454,-0.22459537010758346,-7.844666033207978,17.50466532916536,17.27897282392264
1760959465.9355304,1.4374440722488575,0.019001410354055292,0.9589167605792068,-0.2214730370237688,-8.19417882788375,18.95455093216771,17.799074736088105
1760959465.9454644,1.6248093810808184,0.018867026637741292,0.967749465023076,-0.21680636999492928,-8.378519766848411,19.963317971961008,18.412132629707262
1760959465.9554448,1.8113187396057018,0.01764931578658037,0.9816834432241953,-0.21110512082497673,-8.434264968512204,20.39633033442774,19.05585494665249
1760959465.9655025,1.9958667222671025,0.01649532621159613,1.001080969041046,-0.20489398984738813,-8.414032525243943,20.180771152121995,19.6543740569762
1760959465.9757447,2.178000985043655,0.016551236167142533,1.02588433249398,-0.19862440341189355,-8.381566133186029,19.31402435964164,20.125057371990035
1760959465.9854686,2.357666234767873,0.018817395787226705,1.055559391444657,-0.19257802484545888,-8.406359746483323,17.86486580491887,20.385981622853258
1760959465.9956517,2.534910738747826,0.024037810396035232,1.089055333770747,-0.1867766443188112,-8.558344538039192,15.967335437143591,20.363137694356993
1760959466.005831,2.7096156787119376,0.032635686838366006,1.124794957366611,-0.1809191825956827,-8.902955503222678,13.80798103390121,19.996503146827273
1760959466.015622,2.8812893889890727,0.04469314826363808,1.160718788924158,-0.17436836372615833,-9.496742585931356,11.607903180404325,19.244306822057048
1760959466.0254655,3.0489417306478046,0.059964098360117075,1.1944038481209482,-0.16620370577517782,-10.383639048378646,9.601598884686904,18.085105369260873
1760959466.0354903,3.2110303141470733,0.07790799979322734,1.2232616684407287,-0.15534301208310006,-11.59202745579597,8.014926390200987,16.5176510701339
1760959466.0454638,3.3654584032750425,0.09773668579282775,1.24479757448492,-0.14071629426702564,-13.132794921884434,7.044540652423133,14.558863566917147
1760959466.0554967,3.509604110799095,0.1184703972456491,1.2568941519550265,-0.1214622742856053,-14.998594464242167,6.8408519858966965,12.240434385289092
1760959466.0654635,3.6403665922473722,0.1390000189506395,1.2580728034016446,-0.09711303461457682,-17.164485242570187,7.495983924495288,9.60466517123128
1760959466.0754416,3.7542228489443645,0.15815196818646976,1.2476900731021654,-0.06773549044154749,-19.589976975540633,9.037467632690282,6.700101828144397
1760959466.0854514,3.8472963851429443,0.1747530729134655,1.2260382151224294,-0.034005520911351915,-22.22225362390598,11.427661437186668,3.57742432483957
1760959466.0954685,3.915444856237796,0.1876950604573179,1.1943377245606244,0.002800183033782766,-25.00004912287301,14.56827780755978,0.28592930281142903
1760959466.1053784,3.954376610943719,0.19600056542890568,1.1546275650587912,0.04089906563747003,-27.857385401584928,18.309043805296632,-3.1291570108004025
1760959466.1156118,3.9598048495521905,0.19889325263371613,1.1095723742202965,0.07817810325484278,-30.726272345478115,22.45942648660089,-6.628349069461671
1760959466.1254041,3.9276426384241723,0.1958715338577651,1.0622134451352236,0.11243203365358881,-33.5376192736237,26.80243438830442,-10.178387809825333
1760959466.1354895,3.8542333290656625,0.1867784110768932,1.015691684887066,0.14163437917710744,-36.22008323026821,31.109602289600634,-13.751418112719051
1760959466.1455758,3.7366027252811898,0.17185428430506333,0.9729676290849124,0.16419892947933987,-38.697325423282116,35.15622099637841,-17.322866009160084
1760959466.1555383,3.5727150681498054,0.15176014563456286,0.9365607753218739,0.1791823881367336,-40.88491654718707,38.73567825146248,-20.868261061410255
1760959466.1654425,3.361713660286136,0.1275633953135706,0.9083321270665577,0.1863837404171705,-42.688552297595535,41.67163852474833,-24.35952392910114
1760959466.1754074,3.1041252139208466,0.10068208258690406,0.8893364699259331,0.18631531784284253,-44.00505548341124,43.82694383564107,-27.761425141952813
1760959466.1853588,2.8020037307457475,0.0727848200455629,0.8797667007905857,0.18005087215431767,-44.726915488799825,45.10859828732771,-31.028930114347236
1760959466.1953719,2.458987309690139,0.045646547072851804,0.8789996148632889,0.1689880765110054,-44.750174633500855,45.468849803150846,-34.10599218364347
1760959466.2056136,2.0802430364257796,0.0209678779077587,0.8857358082292637,0.15458528442148692,-43.98465815749509,44.903008845693954,-36.926130187974664
1760959466.2156615,1.672283199847023,0.00017759346489393794,0.898210219574777,0.1381363297442992,-42.36505506472873,43.44507479674184,-39.41491322885778
1760959466.2255933,1.2426503331248127,-0.01575115585688566,0.9144369047533861,0.12063186979862425,-39.86122492371493,41.16232788370299,-41.49428984747395
1760959466.235623,0.7994861667022837,-0.026437016707698806,0.9324454524219199,0.10272911453408945,-36.48627684274636,38.14971706609283,-43.088512418733494
1760959466.2456565,0.35101681657666844,-0.03215153364134058,0.9504703459863387,0.08482378860091512,-32.30136196267146,34.52423701469509,-44.131202112204704
1760959466.2555864,-0.09499877399871426,-0.03379021463282445,0.9670687045979557,0.06719426173710988,-27.416625297106823,30.418838379837478,-44.57288383559673
1760959466.2656317,-0.5317987168125337,-0.03275241074320511,0.9811621376013343,0.050169966398615824,-21.988212554657686,25.97510096537894,-44.38812260867369
1760959466.2754066,-0.9540610853347512,-0.030741929296721416,0.9920176105857835,0.03426886599282781,-16.21150172557572,21.33410654646284,-43.58126602000795
1760959466.2854588,-1.3581947935155505,-0.029511796706920352,0.9991935426746096,0.020257844638403567,-10.31087099831733,16.625625255447588,-42.18980133398575
1760959466.2954376,-1.74242406931031,-0.030586175946095747,1.00247888814862,0.00911497838511659,-4.5265053792471885,11.956655828350579,-40.284506365766234
1760959466.3056042,-2.106635990758614,-0.0350000032672336,1.0018465452004337,0.001903122194090022,0.9008895372090456,7.401238411134565,-37.965924451099184
1760959466.3153632,-2.45199781898994,-0.04310069201480569,0.9974308832211677,-0.00041260184425761457,5.7461672511453115,2.9939760213043765,-35.35722769493897
1760959466.3254917,-2.780397304043432,-0.054452781420384434,0.98952703377173,0.0028397371118879544,9.815101950250746,-1.270394462083901,-32.59421464906218
1760959466.3354118,-3.0938053552620857,-0.06787361076938131,0.9786025155737679,0.011872956977153714,12.95768754744028,-5.4298496763647925,-29.813891292539157
1760959466.3454795,-3.39369314447711,-0.0816072403898722,0.9653109482599196,0.026337600397106337,15.07843020878226,-9.540250761000147,-27.143569111605576
1760959466.3555243,-3.6806410843737956,-0.09361827973716158,0.9504978885798149,0.04530058204870049,16.14301996351815,-13.654538443736696,-24.692438597170188
1760959466.3654485,-3.9542468515466864,-0.10196142260000551,0.9351857783257598,0.06731057828311379,16.180847615316694,-17.7993642172081,-22.547059018580022
1760959466.3753688,-4.213376702126645,-0.10516239816209229,0.920521906160667,0.09054372193650934,15.282761623831663,-21.953695914684495,-20.771270869601917
1760959466.3854396,-4.456724389388478,-0.10253841142728919,0.9076784810691584,0.1130132335959374,13.593526679771692,-26.034112085882022,-19.409942717240046
1760959466.3954012,-4.683567686698249,-0.09439445198536298,0.8977115339123247,0.13281602872167228,11.298916733475036,-29.89062483000248,-18.495022430951423
1760959466.4054878,-4.894564261940595,-0.08205420381436333,0.8914086228137782,0.14837923387914836,8.608297800535098,-33.3151077597109,-18.051859600005848
1760959466.4155586,-5.0924172421296525,-0.0677151560905125,0.8891682955708979,0.15866482593496256,5.7346735749600715,-36.06211445136875,-18.10384307663881
1760959466.4254806,-5.28226529331492,-0.05415016663018963,0.8909444997242887,0.16329599189222804,2.874999899824255,-37.879515227094444,-18.673994356521032
1760959466.4354475,-5.471703150397171,-0.04430579679819476,0.8962624596275507,0.16258376500411892,0.19371849536259306,-38.544399343109184,-19.78306263883284
1760959466.445411,-5.67040430763174,-0.04086648833890046,0.90428985611666,0.1574512560995696,-2.1881344891093533,-37.8984429313653,-21.44461767872159
1760959466.4554148,-5.889386260058738,-0.045859502004600004,0.913941861148974,0.14927014432145444,-4.1969747477937265,-35.876730760062635,-23.658394843196227
1760959466.465558,-6.140018759566642,-0.0603654786540687,0.924004343479351,0.13963871686012463,-5.803855809430013,-32.52502670170419,-26.403547790215473
1760959466.4754357,-6.432916913182637,-0.08437491646125123,0.9332636059854802,0.1301415245957866,-7.015920030709697,-28.002558407240148,-29.633441595220535
1760959466.485489,-6.7768774713546875,-0.11680075119358622,0.9406302208149342,0.12213298997982719,-7.864071012669667,-22.56995391316632,-33.273219532704566
1760959466.4954386,-7.178006934581415,-0.15563214272709922,0.9452436613311045,0.11657727811475624,-8.38929382160392,-16.56437254340345,-37.22074647272203
1760959466.505554,-7.63915610953156,-0.1981980436940237,0.9465465205943678,0.11395882027126393,-8.630160256560774,-10.365685220987894,-41.350862168731275
1760959466.5156763,-8.159722663649678,-0.24149874623787881,0.9443212332849992,0.11426212452675019,-8.613758992430407,-4.358652993863118,-45.52232697194729
1760959466.525627,-8.735821282427825,-0.28255806498484354,0.9386869449726728,0.1170111399564296,-8.351563420795536,1.1035892312294353,-49.58649306880414
1760959466.5356145,-9.360764359846257,-0.3187490677028563,0.9300590514623448,0.12135489214864476,-7.840706870025335,5.729864613591799,-53.39660166879652
1760959466.545397,-10.02575682459249,-0.34805226286774504,0.9190784549019133,0.1261839270476974,-7.069983222025997,9.311451269599162,-56.816649030236874
1760959466.5553565,-10.720691805864133,-0.36921624771406253,0.906520738196842,0.13026156516608584,-6.028856199351988,11.730922508782283,-59.72890304721947
1760959466.5654707,-11.434938033206736,-0.381807145685788,0.8931968724502137,0.13235698859528358,-4.717074605643228,12.95951493526072,-62.03935252383942
1760959466.5755582,-12.158030444917802,-0.38615307083409484,0.8798579612959825,0.131373338936821,-3.1523626774811877,13.044948117860296,-63.68067849487258
1760959466.585478,-12.88020615921512,-0.3832081007811187,0.867118330821819,0.12646917246009332,-1.3741626125747015,12.092802928833049,-64.61276846786983
1760959466.5954547,-13.592761563975499,-0.37437075129627795,0.8554123499326436,0.11717107473090517,0.5575851711696899,10.24508367799305,-64.82124355739245
1760959466.6055295,-14.288235829320842,-0.36129157844507154,0.8449956434808046,0.1034684338308866,2.568416256047324,7.659463978339729,-64.31476436779188
1760959466.615596,-14.960446590404029,-0.3456950177611038,0.8359886578095848,0.08587290375004976,4.578727998232594,4.492058068648856,-63.121911453735414
1760959466.6254504,-15.604413131022516,-0.329227750013351,0.8284455841728191,0.06542141696697731,6.514432566427432,0.8855450115387795,-61.288204940927116
1760959466.6357205,-16.216202582816905,-0.31333571538253413,0.8224227028740264,0.04360738883695162,8.316447670370579,-3.0366709627601547,-58.87344204913679
1760959466.6454406,-16.79272893587606,-0.29916707436715795,0.8180202373988191,0.02224006754330883,9.946903804792784,-7.1706225484839194,-55.949151783690915
1760959466.6556654,-17.331527484513426,-0.28749877964976744,0.815379303031018,0.0032508031807423885,11.390773863351912,-11.427377940405012,-52.59576173061941
1760959466.6654978,-17.830522922285546,-0.2786883453944188,0.8146290303801188,-0.011521849321613674,12.652758980297229,-15.725574797039252,-48.89915009497024
1760959466.6754642,-18.287809693719414,-0.2726570122821947,0.8157961174805234,-0.02053430721443514,13.750388193056626,-19.982469937962733,-44.9465681763067
1760959466.6856,-18.701467000428075,-0.268912552744301,0.818703883827052,-0.02270089062545906,14.705104107213653,-24.105048470173568,-40.822261213117244
1760959466.6955667,-19.069434408036113,-0.2666178665826995,0.8228936033649142,-0.017501880332712532,15.533441760475675,-27.98272067823293,-36.603294211425485
1760959466.7054415,-19.389474041298786,-0.2647063498626371,0.8275959376228116,-0.005030996714231095,16.240298163978572,-31.483103687785114,-32.356068348978994
1760959466.7154942,-19.65924015913143,-0.2620385586970065,0.8317689088767015,0.014015947704235992,16.815862259006437,-34.452182993518186,-28.133881661953943
1760959466.725522,-19.876465529899022,-0.2575871379628632,0.8342062519206366,0.0384041431293792,17.2370936350285,-36.71967272742456,-23.97572713925525
1760959466.7354736,-20.039256107594902,-0.25062804801381955,0.8337082799790134,0.06646407067710829,17.473727343435247,-38.10968480865291,-19.906359753029115
1760959466.7455807,-20.14646268113482,-0.24090797997370822,0.829295924891734,0.09622521782783724,17.49775556376956,-38.45602068766022,-15.937511719509017
1760959466.7556357,-20.198075089924608,-0.22875528128489692,0.820437516991367,0.12556829143344309,17.294428884891882,-37.62066536837985,-12.07000741089907
1760959466.7655072,-20.195567778447572,-0.2151083890872469,0.8072503953844372,0.15238607709075172,16.872283639238322,-35.51348294426491,-8.296454014288985
1760959466.7755253,-20.142120773936778,-0.20145063817081782,0.7906397808671255,0.17474256262103707,16.26970822356107,-32.110714954607175,-4.604214349751164
1760959466.7855458,-20.04265087282767,-0.18965794041196773,0.7723461201643743,0.19101835613894552,15.556169400087903,-27.469690064969143,-0.978533204711872
1760959466.795658,-19.903614273435338,-0.18178024186414862,0.7548841628417972,0.20003078864032392,14.827336230031255,-21.737233309792728,2.5940844830978507
1760959466.8055182,-19.73258176963488,-0.17978583426278688,0.7413660929294758,0.20112088345286863,14.19466005657316,-15.149693569211365,6.122015346422971
1760959466.8157206,-19.537634460429295,-0.18530002759840908,0.7352078782900071,0.1942033731654989,13.771071742642347,-8.023310960748207,9.604058777035364
1760959466.8257406,-19.32666982167792,-0.19936841662812985,0.7397300161521844,0.1797765437387889,13.655063549987334,-0.7347790787588936,13.024628389850749
1760959466.835597,-19.106730659490793,-0.22227130617120697,0.7576848190714501,0.1588878356120495,13.91553632878837,6.306768351775718,16.34936273749891
1760959466.8454673,-18.88346362121029,-0.25341005340062134,0.7907669002115887,0.1330532273630067,14.579579613692632,12.693651828285878,19.52237534736842
1760959466.8554556,-18.66078096527464,-0.29127832195522535,0.8391821904129193,0.10413402705630914,15.624963689752944,18.055431584520466,22.466525158202312
1760959466.8659534,-18.440749832952733,-0.33352165824970625,0.9013569600215864,0.07418139054043227,16.97862619458086,22.091854283375653,25.08782881347021
1760959466.875589,-18.223681065877685,-0.37707819335377973,0.9738598729622617,0.045264607248676675,18.521842131865636,24.598412758967566,27.28447854576598
1760959466.8854103,-18.008348128280563,-0.4183855997840932,1.051588606078396,0.019301615552865404,20.10208508070243,25.48117170535862,28.960018114945616
1760959466.895571,-17.79224872210087,-0.4536400390689785,1.1282403083962693,-0.002093605510929358,21.550845454688417,24.75948248460141,30.039246429843367
1760959466.9057653,-17.571835672653695,-0.4791007444201656,1.1970416124615377,-0.017742350510639698,22.705870385352174,22.557483255848155,30.484532802037936
1760959466.9155347,-17.342686919784146,-0.4914386840372535,1.2516570421384876,-0.027017413254997683,23.43539391909147,19.087289023343093,30.309615438520456
1760959466.9255242,-17.099640530631454,-0.4881178376615282,1.2871310838649312,-0.02995070773475852,23.660971312580237,14.627929970280064,29.587836896092654
1760959466.9354975,-16.836965045865536,-0.46777216583554543,1.3006732363426818,-0.02732138075223965,23.37477759592443,9.503936914295183,28.452356696851037
1760959466.9454966,-16.548646928832106,-0.4305138663142669,1.292100424670703,-0.02068467142761517,22.64716393876324,4.065918292819405,27.087203160330485
1760959466.9554753,-16.228847433338252,-0.3780970695153819,1.2638230503477994,-0.012282625766640362,21.62133733182186,-1.3269137729099754,25.709803925850053
1760959466.9654455,-15.872519295539572,-0.3138746636053526,1.2203782731238948,-0.004791085619301936,20.494299195214182,-6.324325975175836,24.547349233608195
1760959466.9754982,-15.476101027378808,-0.24252127550020386,1.1676289765031282,-0.000908463012618792,19.486167186938495,-10.60521178598774,23.810506888821582
1760959466.985504,-15.03815159853905,-0.16954338384194673,1.1118164548456342,-0.002860555159434872,18.802884581999102,-13.901157979992368,23.66840603868485
1760959466.9957895,-14.559775202086904,-0.10064548156995214,1.0586635109621991,-0.01194679524219027,18.599262930589553,-16.021500502843832,24.228483220799074
1760959467.005509,-14.044722257771413,-0.04105361185832591,1.0126821615520554,-0.02825783639484111,18.949713617367205,-16.875467967536366,25.523889642206367
1760959467.0154915,-13.499125805942107,0.005095949813753441,0.9767691852082097,-0.05064743851638,19.832668407759346,-16.48606297792151,27.50989019565054
1760959467.0255928,-12.930917452424564,0.035211817605201236,0.9520990357017058,-0.07696446509036203,21.131823463331678,-14.9912692907338,30.06929572573639
1760959467.0356953,-12.349039599320767,0.04848451545998172,0.9382683694033985,-0.10447604747830322,22.653749131075628,-12.630557894363392,33.02570716222526
1760959467.0455306,-11.762611793659495,0.045877605470057294,0.933619349659317,-0.13036791029321845,24.158131353579083,-9.7176556770471,36.16239164139304
1760959467.0556028,-11.180208371803708,0.029881556256348942,0.9356667791431641,-0.15220461239643107,25.394786133842306,-6.603268957384603,39.244088324233864
1760959467.065471,-10.609364367936045,0.004074354815211389,0.9415656236875389,-0.1682647900190874,26.140925273637283,-3.633294108820657,42.039025028114736
1760959467.0755587,-10.056360622580613,-0.027437550040297073,0.9485673525039368,-0.17771420607282504,26.232746461339605,-1.1087355645866777,44.33884880839316
1760959467.0854537,-9.526266655823603,-0.06060453386602323,0.9544167011624013,-0.18062052465088796,25.586856325499518,0.7468905271140699,45.974845657885794
1760959467.0954924,-9.023160194712235,-0.09194665916151958,0.9576372682743142,-0.17783686942309745,24.2089701490272,1.8082906673932082,46.829542224020095
1760959467.1054387,-8.550408988385245,-0.11891080786001808,0.9576592644116295,-0.17078985223403653,22.189512261054478,2.0549661489712796,46.84339141928825
1760959467.1154878,-8.110898998540188,-0.14002479486998723,0.9547689225059878,-0.1612123266388604,19.687850709966593,1.5636738199798754,46.0166612370796
1760959467.1254754,-7.707120064885053,-0.15484791417652205,0.9499018882697209,-0.15086600232540925,16.908551135678533,0.4890018101065039,44.406884463198764
1760959467.1355517,-7.3410667959750295,-0.16376030873248826,0.9443416896170745,-0.14129935999054927,14.07392110913914,-0.9641202562802789,42.12238027712473
1760959467.1454442,-7.013966655700338,-0.167661124039033,0.939400967722237,-0.1336770103970736,11.397148197001178,-2.5713982276785314,39.31252702852188
1760959467.1555223,-6.725895394388228,-0.16765173301543665,0.9361541774277967,-0.12869934364812355,9.059644735171604,-4.119156008737655,36.15566960626983
1760959467.1657653,-6.475369894583639,-0.16476620582362994,0.9352645082500988,-0.12661129051185643,7.195051392289026,-5.4296123033503925,32.84571068857518
1760959467.175637,-6.259014286597185,-0.1597850515929744,0.9369173078515303,-0.12728089924158187,5.881002377409341,-6.378888299397557,29.57847693725387
1760959467.1855116,-6.07137971255616,-0.1531423402102001,0.9408479513807113,-0.13031627034593532,5.138485282018633,-6.906401814793648,26.538855529737532
1760959467.1955245,-5.9049694051260735,-0.14491844267829435,0.9464389144079046,-0.13518695018483667,4.937626513975443,-7.015382194549163,23.88950457359358
1760959467.2055786,-5.750486895378483,-0.1349009365117103,0.9528572139618595,-0.14132402355285412,5.208073081722782,-6.7651216453361736,21.76169802286967
1760959467.2155945,-5.597293352408807,-0.1226922319691969,0.959205038318272,-0.14818768334813923,5.851840192621048,-6.256308365831158,20.248622806163215
1760959467.2255945,-5.434036740438406,-0.10784301975537991,0.9646607049560774,-0.15530467243277213,6.7565590974488465,-5.611424046304681,19.40125676438178
1760959467.235526,-5.249403316507234,-0.0899938805919522,0.9685932007982466,-0.16228497197057226,7.80744950693952,-4.952744817961453,19.22683993688041
1760959467.245573,-5.032937215890766,-0.06900976681028914,0.9706399385541715,-0.16882675021311563,8.896930493287481,-4.380896009677906,19.68988773305756
1760959467.25556,-4.775869485906274,-0.04509150264156963,0.9707420427366341,-0.17471444616556225,9.931402311610864,-3.9570443884593565,20.715650259338236
1760959467.2655625,-4.471890334104313,-0.018846799709932197,0.9691343807048408,-0.17981106635588073,10.835236908700852,-3.691513319504274,22.195869595187663
1760959467.2754881,-4.11779070887507,0.008695472394828449,0.9662909622958724,-0.18404429948878082,11.552349319837463,-3.540778812177739,23.996602320505232
1760959467.2856326,-3.713898796399119,0.0361374225889851,0.9628322927505979,-0.1873869355103679,12.045907741405422,-3.413498480780746,25.967740819989416
1760959467.2955766,-3.264249041928345,0.06182931260956397,0.9594090389266416,-0.18983450166006713,12.296812899004411,-3.184685986553338,27.953685929268932
1760959467.3056228,-2.7764462383917787,0.08403794260116103,0.9565829874510808,-0.19138550685222183,12.301540952452779,-2.7157324157481932,29.804433240580387
1760959467.3153865,-2.261221514583524,0.1011412570828245,0.9547290226756198,-0.19203033913820516,12.069797197680609,-1.8770150299508686,31.386198510602103
1760959467.3254673,-1.7317155900097423,0.11181668329659682,0.9539794179706906,-0.1917527647689271,11.622207439002686,-0.5695041894117505,32.59066684556702
1760959467.3354406,-1.2025605079843706,0.11519051035236323,0.9542234045172806,-0.19054404855682533,10.988052265402604,1.2578847130263968,33.34200863986817
1760959467.345507,-0.6888546739474495,0.11092594751910509,0.955161109083087,-0.18842586909871045,10.202901038991302,3.597556515170108,33.60096355602095
1760959467.3554072,-0.20512871897860951,0.0992462143942047,0.9563953370542279,-0.1854757936443354,9.305977066161164,6.380291145256437,33.36558104838861
1760959467.365475,0.2356191270504305,0.08090702018170519,0.9575340294253699,-0.18184830806324584,8.337193640342566,9.48008935503908,32.66863584642845
1760959467.3754425,0.6227680602844627,0.057139502091535906,0.9582756164346284,-0.17778499072110393,7.334006315487039,12.725892418027776,31.57223665568321
1760959467.3854713,0.9487702591492535,0.029576567447858467,0.9584589656532845,-0.17360931465626497,6.328445097371763,15.918662605658149,30.160556394686445
1760959467.3954036,1.209668714511104,0.00016029330547449847,0.9580741398216458,-0.16970463001919978,5.344807849101904,18.851955492263794,28.531778976706157
1760959467.405503,1.405398440754038,-0.028981057057871358,0.957242152950646,-0.16647741658144194,4.398431199635524,21.33385840043816,26.790236384140425
1760959467.4154458,1.53982632476309,-0.055692776558269194,0.9561760876278314,-0.16431087231603217,3.4957216167422462,23.207953244360617,25.039388841269414
1760959467.4257486,1.6204971704923068,-0.07798085747032098,0.9551333492388305,-0.16351560052114633,2.6353405447060942,24.370884042222414,23.37594116824707
1760959467.4355183,1.6580839211850744,-0.09420201184990626,0.9543651801740134,-0.16428459323097805,1.8102306673495347,24.784324400157338,21.885131454006796
1760959467.4454267,1.66557764454112,-0.10322669855985105,0.9540691097518442,-0.1666593806711111,1.0101083862387938,24.479713769582624,20.63712877785155
1760959467.4554822,1.6572862852408172,-0.10455025655824642,0.9543519079788945,-0.17051330432551887,0.22409112007973375,23.55500034985568,19.68450047552096
1760959467.4654744,1.6477348487475645,-0.09833720769347054,0.9552113187465086,-0.17555606104148866,-0.5568038140702756,22.163649332534654,19.060778567001567
1760959467.475485,1.6505717559254465,-0.08539439993773297,0.956542490538947,-0.1813608804303122,-1.3375118812551114,20.497176486107115,18.7801880921299
1760959467.485599,1.6775857437101174,-0.06707809539715279,0.9581701631042312,-0.18741248061399465,-2.117345798366257,18.76329174053664,18.838541951069583
1760959467.495535,1.7379250984096253,-0.04514735920435446,0.9599017220782118,-0.193170961635766,-2.889228808201597,17.162271603554714,19.215159802745937
1760959467.505502,1.8375879907953285,-0.021580647547881075,0.9615907256555003,-0.19814434234950157,-3.6399759147410746,15.864368170464928,19.875498952875866
1760959467.5156043,1.9792228361966981,0.001625649814936804,0.9631971655678663,-0.20196070582605435,-4.351800271130725,14.990915621966016,20.774087716931692
1760959467.5254838,2.162245620367097,0.022658207891143412,0.964831042658525,-0.20443020952043386,-5.005047673868783,14.601363726813654,21.85738946384721
1760959467.535445,2.3832502081700238,0.040069661466344726,0.9667699624581788,-0.2055874631368866,-5.581868150471803,14.687799839677176,23.066377565105174
1760959467.5456219,2.6366581323717444,0.05292573211766429,0.9694475583965283,-0.20570538909716404,-6.070192292207538,15.177653030080442,24.338770989916803
1760959467.5554268,2.9155261445198812,0.060898336546283634,0.973415130007189,-0.20527286495121672,-6.467142284226703,15.944286161231263,25.61097734097432
1760959467.5654821,3.212405527129076,0.06428751117544258,0.979282998288679,-0.2049316235646192,-6.781035298189703,16.824222312410104,26.819805958786905
1760959467.5759141,3.520133387169807,0.06396081130221452,0.987650929246429,-0.20537367199109424,-7.031487529999364,17.63896309815524,27.90399781476768
1760959467.5855372,3.8324425994510136,0.061212041495223524,0.999037263220303,-0.2072075141157706,-7.2476799508620555,18.21880224792292,28.805601824761055
1760959467.5954843,4.144311276393191,0.05756055285273209,1.0138122983775228,-0.210808148316785,-7.465362127751016,18.425750516700607,29.471201977438817
1760959467.605525,4.452029891394419,0.05452920558720159,1.03213551404747,-0.21617193067729687,-7.723442209118813,18.17273813871709,29.85296467754821
1760959467.6157277,4.753024068876434,0.05344169594298785,1.0538950773604352,-0.22280308376310512,-8.060969357396408,17.436712568611252,29.909450123978107
1760959467.6257327,5.04551043778216,0.05526594875026792,1.078654765631389,-0.22966240309697183,-8.51502534064945,16.26406191780232,29.606131842250548
1760959467.635646,5.328073679207674,0.060511551307567545,1.1056222293502642,-0.2352063076788588,-9.119658568426882,14.767814704276104,28.915603909459822
1760959467.6456058,5.5992439939073,0.06918021172655306,1.1336544206841739,-0.23753052176723916,-9.905676226035503,13.117105702575852,27.81753105806023
1760959467.6557417,5.857138639131366,0.08077219669322182,1.1613074918486264,-0.23460666411440115,-10.900913280975976,11.520299585300359,26.298485395860464
1760959467.665429,6.099215212268243,0.09435941615912012,1.186924242263918,-0.22457122305417235,-12.130462173127869,10.203827389944164,24.351852994608713
1760959467.675638,6.322167904008152,0.10873352296129087,1.2087422523470186,-0.2060118909820281,-13.616260357848196,9.38916874739114,21.97795354573766
1760959467.6856053,6.521978896038267,0.12261779261828072,1.2250081917197224,-0.1782059031230332,-15.37551971535174,9.270486350159105,19.184426751099725
1760959467.6954815,6.694114230393352,0.1349030724733813,1.234095876074754,-0.14128764431246765,-17.417837819240976,9.995176269920938,15.986829906446845
1760959467.7054996,6.833828658192428,0.14484948907650178,1.2346354208828492,-0.09633668071571502,-19.74133822445346,11.649072461895368,12.409261037052826
1760959467.715453,6.936522462573741,0.15219830168107248,1.2256591598154112,-0.04537534717715105,-22.32860002822035,14.24735656020525,8.48468726186469
1760959467.725488,6.998081569248337,0.15715981153371367,1.2067583159528406,0.00874165195963963,-25.143289273673286,17.731540052179454,4.254585131684159
1760959467.73548,7.015135302517888,0.16027518772465812,1.1782299858014733,0.06256104717458598,-28.128275882524488,21.972339415703594,-0.23241921542796073
1760959467.745587,6.985185271432379,0.1621843916680635,1.1411828347488078,0.11238663694779331,-31.205677990328176,26.777917022818617,-4.922925043034678
1760959467.7555583,6.906591361978267,0.16336213233493316,1.0975652402092053,0.1547242409425736,-34.278828993611775,31.906781443006228,-9.761700310396526
1760959467.7657351,6.778439786855523,0.16390108675272347,1.0500837358444863,0.18674793211599255,-37.235772725743466,37.08450347112406,-14.694334894736762
1760959467.775651,6.600352569452928,0.1634158229756814,1.0019949300754998,0.20669699436181635,-39.95375937003184,42.02313512222625,-19.668652341805448
1760959467.7857876,6.372315682631129,0.16110671033866614,0.9567803995314699,0.21411827573527034,-42.30442424452985,46.441755996377516,-24.63424946069655
1760959467.7957964,6.09459781604249,0.1559724981349374,0.9177445609755023,0.2098998926172485,-44.15969728019611,50.08611964492724,-29.540107696622318
1760959467.8056536,5.76780537746809,0.1471146663070413,0.8875993594145536,0.1960853354689136,-45.39865849339563,52.74529974759173,-34.33078949586094
1760959467.8155065,5.39307874783899,0.13404783991650243,0.8681096715616601,0.17550103504526673,-45.915315179946134,54.263746977621935,-38.942129767958605
1760959467.8255956,4.972388801883247,0.11692136232605217,0.859868227416416,0.15127060837931894,-45.626763229167416,54.54811771087214,-43.297543810181665
1760959467.8357668,4.508853279088213,0.09657513753960406,0.8622483488364729,0.1263164499119347,-44.480761348427265,53.56923423645635,-47.30615726633498
1760959467.8455567,4.0069737900942135,0.07440273556344831,0.8735469734896959,0.10295151822498437,-42.46165216915529,51.36018905384534,-50.8639070883522
1760959467.855825,3.4727045565350716,0.05205962862230359,0.891286047300783,0.0826378264770301,-39.59378955672204,48.01172544975107,-53.85844887487982
1760959467.8655906,2.913300164457821,0.03110334533735723,0.9126037774739212,0.06594382077891,-35.94199250931305,43.66566879716896,-56.17806060956591
1760959467.8757167,2.3369392252404744,0.012666368960294732,0.9346539253183485,0.05268566084695483,-31.608911583812347,38.5065509242604,-57.723849863226455
1760959467.8855472,1.7521698591330752,-0.002755707157652558,0.9549424591704175,0.042198912305075546,-26.729552561456774,32.75096819709184,-58.42366970109692
1760959467.8956976,1.1672611994446598,-0.015355553322757287,0.9715554982508818,0.03366454269729136,-21.46356157767368,26.63401231553052,-58.24545260705179
1760959467.905618,0.5895672535975673,-0.025902125669349244,0.9832606437012944,0.026409745680566768,-15.986174410213165,20.392557131772858,-57.207364583265196
1760959467.9155993,0.02501287727530931,-0.03549894817565183,0.9894909016791791,0.020118789364119136,-10.478886460986239,14.246204239804053,-55.38239799919283
1760959467.9256458,-0.5222051081955469,-0.04527119385581213,0.9902415890288042,0.014916632936024356,-5.12086731644283,8.377921235474961,-52.895810948507794
1760959467.935796,-1.0496455175249555,-0.05605258802899456,0.985920903726335,0.011320813806027808,-0.08187214268330922,2.9173702066137546,-49.91510519088118
1760959467.9457295,-1.5563766695918322,-0.06814334023533969,0.9771950354765776,0.01008675233260148,4.48315589458497,-2.0697820307470876,-46.633785658486964
1760959467.955648,-2.0425156015269916,-0.08119709032358519,0.9648629773268255,0.0119918842197537,8.438286756018208,-6.583834192738689,-43.251578702877026
1760959467.965426,-2.5086665189474515,-0.09426823986244544,0.9497842085120033,0.017612499646828685,11.670528586300168,-10.682888973477414,-39.95466061371307
1760959467.975614,-2.9554036378551007,-0.10601524833836487,0.9328620561244026,0.02714444148009794,14.094252020612442,-14.464983718525843,-36.89945992710327
1760959467.9856367,-3.3829379941774715,-0.1150185323845408,0.9150626411915835,0.04030642915121345,15.656236389298215,-18.042908663736807,-34.20273352084649
1760959467.995623,-3.7910622183047655,-0.12014269292479716,0.8974352142809517,0.056345010357630024,16.340644287946382,-21.51578023878474,-31.939149157315892
1760959468.0054502,-4.179393272942526,-0.1208599842616092,0.8810998737775096,0.07413739095593357,16.17260784610921,-24.94239868858873,-30.145969249141963
1760959468.0155752,-4.547854127532755,-0.11745961608285967,0.8671805184899928,0.09236833876028437,15.218907356428948,-28.321388592627564,-28.833036003306898
1760959468.0255594,-4.897275303067017,-0.11109342903025125,0.8566803169601721,0.10974400536010141,13.584528940653033,-31.582042339741204,-27.9953677168233
1760959468.0355558,-5.229970164829535,-0.10364450778199626,0.8503210752727417,0.12519988669762447,11.404662466291482,-34.587860482664155,-27.625398982355758
1760959468.045423,-5.5501455911590405,-0.0974419574294612,0.8483904545349119,0.13806160356049327,8.832788521677982,-37.15240972387836,-27.722247261513793
1760959468.0557494,-5.86404581922309,-0.09487539745203336,0.8506493868175876,0.14812550812547579,6.026631459280206,-39.06480695231704,-28.296273214984083
1760959468.0655923,-6.179781223754771,-0.09798202215858297,0.8563361235428402,0.1556421266254358,3.1345431756609763,-40.12038963584675,-29.36838482911334
1760959468.07573,-6.506852919813414,-0.10808371272323232,0.8642701235079833,0.1612081988980296,0.2849880311197632,-40.15130314557,-30.964677379364744
1760959468.0856721,-6.855436131413401,-0.12554013478689058,0.8730292564689933,0.1655962668516086,-2.4188552518385977,-39.05192878592721,-33.107813706760865
1760959468.0954936,-7.235521164235364,-0.14965891010256582,0.8811608307519492,0.16956441250440002,-4.898566013001369,-36.79519168608692,-35.80692089781152
1760959468.10564,-7.656026572049992,-0.1787731892468952,0.887387315036879,0.17368683217883876,-7.094650404943354,-33.43760664203412,-39.04776874303163
1760959468.1154382,-8.123995610415847,-0.21046877714513015,0.8907734560896198,0.17823167889565308,-8.95733733088662,-29.11308864759561,-42.78473321181943
1760959468.125541,-8.643968577569938,-0.241922869609109,0.890831169267276,0.1830949696954518,-10.436803157202379,-24.017581384199868,-46.9356624114714
1760959468.1355584,-9.217595567958915,-0.27030482413513235,0.887552686545844,0.1877861699878782,-11.475855890529397,-18.38798605827044,-51.380343260858076
1760959468.1456466,-9.843520825884841,-0.29318301669377717,0.8813769833177959,0.19145629296364794,-12.007637341452948,-12.479491111177442,-55.96284827736889
1760959468.1557071,-10.517534140220587,-0.3088788744170521,0.873103153586175,0.19296287954913857,-11.959773813210917,-6.545241408846767,-60.49761978798794
1760959468.1655967,-11.232950044527918,-0.31671219448611304,0.8637654040199527,0.19097389843386056,-11.26479769795186,-0.8214632695988145,-64.77874522886376
1760959468.1754992,-11.98114761337637,-0.3170948903353281,0.8544822595361399,0.1841179635205967,-9.874936369966882,4.480207756849067,-68.59157147865884
1760959468.1855528,-12.75218871680488,-0.3114542102905589,0.846293677790988,0.17118537977963563,-7.7779907974752,9.173197511192711,-71.7256725352448
1760959468.1955752,-13.535434379078826,-0.30199753952361846,0.8400058190600219,0.1513708838895285,-5.010395537994543,13.091069440063777,-73.98821261077258
1760959468.2055492,-14.320095819238645,-0.29136124175856287,0.836069135759852,0.12452765699388466,-1.663873030990332,16.080450587958474,-75.2168603964036
1760959468.2154915,-15.095682314203522,-0.2822058431593903,0.8345137114013693,0.09138117781306462,2.116613108029558,17.995741684877316,-75.29152382038058
1760959468.225484,-15.85233352615722,-0.2768231224009901,0.8349539589503875,0.053640214734891126,6.1438727128516755,18.69925849390485,-74.14418817665079
1760959468.2355783,-16.581041881498372,-0.2768091924966638,0.8366578733831462,0.013949020295982504,10.20652935821553,18.069141509557113,-71.76597613521652
1760959468.2458498,-17.273777590284382,-0.28283904950954647,0.8386607973863021,-0.02434621336260807,14.090486908952707,16.01525094392067,-68.2102735462551
1760959468.2555032,-17.923527355192373,-0.29456022479465427,0.839894112447837,-0.05759692645316227,17.599697684946893,12.500865273239125,-63.59064201075301
1760959468.2654524,-18.52425473647764,-0.31061099667615116,0.839299963143884,-0.0823493730746065,20.57287881604704,7.566060687684642,-58.072581717711714
1760959468.2754302,-19.07079247932145,-0.3287626827681589,0.8359192980001482,-0.09584102298044488,22.894530938692057,1.3477681509627537,-51.85914263810049
1760959468.285609,-19.55868690843725,-0.3461814281489137,0.8289670937713027,-0.09639989540358523,24.500446884148396,-5.908182894012102,-45.17171084068586
1760959468.2958384,-19.984028009955885,-0.3597956262005681,0.8179260892112148,-0.08368101074811089,25.37900185885629,-13.846551987505178,-38.228587081730645
1760959468.3058276,-20.34330964276967,-0.3667374263387239,0.80268164111941,-0.05871542303761938,25.569553399077826,-22.015644622378762,-31.224783321403535
1760959468.3157482,-20.633366628724968,-0.364805319184613,0.7836894120897738,-0.02378177783530165,25.158599272466017,-29.893966264931517,-24.316500239935927
1760959468.3261588,-20.85142589129619,-0.35287859584194453,0.7621356051607723,0.017868534520386923,24.27358551323659,-36.92903404616592,-17.612960418837982
1760959468.3355756,-20.995287952685928,-0.3312106176229507,0.740034744412579,0.062390283298891736,23.073862701426318,-42.58503862555667,-11.176850792625503
1760959468.3455024,-21.0636277167006,-0.301538920201305,0.7202158517603409,0.10577820344084755,21.738355523630787,-46.394493991445245,-5.032912752434782
1760959468.355666,-21.056375776124383,-0.26697498337030173,0.7061663441347011,0.14430260372887707,20.44997603920075,-48.008015141981836,0.8174207823952254
1760959468.3656983,-20.975118458971906,-0.23167073897855028,0.7017250245868535,0.17489467126500632,19.377602796283313,-47.236161851329065,6.378616078307922
1760959468.375744,-20.823440469484098,-0.2002965575434808,0.7106372545462848,0.19543777293327633,18.657420074110455,-44.07788260718665,11.64451395367325
1760959468.38569,-20.60713189290887,-0.1773995624633841,0.7360079569182231,0.20493641786556083,18.376215734179205,-38.7313468903114,16.585884868288648
1760959468.3956625,-20.334193005857177,-0.1667340567332658,0.7797128288805923,0.2035525031458235,18.55943758971898,-31.584728974492727,21.144240123895617
1760959468.4057534,-20.014594073741897,-0.17066245813707473,0.8418517357728018,0.19251364125747233,19.166245966111806,-23.186715204305973,25.23289572947729
1760959468.4155188,-19.659779505065377,-0.18971569850543274,0.9203440676894986,0.17390901833254876,20.09276125311128,-14.199022594815656,28.745189859009788
1760959468.425601,-19.281941491955415,-0.2223805942713328,1.0107686820666806,0.15039702283220158,21.183650023156993,-5.335716807561433,31.568810971642062
1760959468.4355128,-18.89312173523313,-0.26515353929545554,1.106537781018496,0.12485818025969803,22.25134723271044,2.703897619785027,33.604397841230536
1760959468.4457347,-18.50422684162543,-0.3128702510451568,1.1994600390039956,0.10003457781445692,23.101453688753907,9.301031996986849,34.785905644136626
1760959468.4555113,-18.124062722412507,-0.35929141255049946,1.2806874578589236,0.07819823368572146,23.56193727426626,13.974270749031271,35.099697462315284
1760959468.46553,-17.75850526550701,-0.3978893169213217,1.341951755283367,0.0608845491807358,23.512650116844537,16.42150084058763,34.599013744209856
1760959468.475718,-17.40992516181796,-0.422738913496204,1.376892344338367,0.04871828095260419,22.91059619576698,16.543288024985902,33.41059666494005
1760959468.4856021,-17.076969224552272,-0.42937728216463383,1.3821929903641705,0.04135510373723393,21.8057827561673,14.446607851908373,31.731030536709476
1760959468.4956036,-16.754765594254398,-0.4154771174557109,1.358229583612928,0.037560847401435726,20.342872142169178,10.429756437705956,29.811902353889863
1760959468.5055895,-16.43556578552701,-0.3812003878047267,1.309027347884713,0.035441352462820166,18.745665647452196,4.950360249225731,27.93498018799577
1760959468.5155993,-16.109768662335107,-0.3291628620144929,1.2415171922980979,0.03280770871874275,17.28475288213244,-1.4208566958313344,26.380690257720747
1760959468.5256567,-15.767204572815658,-0.26402973477321345,1.164287252383308,0.02761929707097546,16.23273587782021,-8.056824210898162,25.39456455662546
1760959468.5356433,-15.39851060902606,-0.19184107983417267,1.0861516359119325,0.0184107021000953,15.814949626215196,-14.3361048491338,25.156628987450866
1760959468.5456026,-14.99641361743644,-0.1192051954368017,1.0148607027020815,0.004598436290756395,16.165334968753825,-19.703333298109982,25.75801696442923
1760959468.55566,-14.55675844562328,-0.05249559204151767,0.9561817176180241,-0.01341264696083724,17.296584033194183,-23.720846511557202,27.187882805333935
1760959468.5657153,-14.07916795542702,0.0028400011659417794,0.9134447124250008,-0.03435188091483836,19.091062381744475,-26.105198067549775,29.33236108301097
1760959468.5757518,-13.567285822992766,0.04278535300487591,0.887528751051949,-0.05639969655097683,21.31491567635983,-26.744526426598732,31.985993671338537
1760959468.5855994,-13.02861609594609,0.06503788858209686,0.8771889231945416,-0.07760906487734302,23.653098890149995,-25.69575509109884,34.874650667066796
1760959468.5956533,-12.474017805517793,0.0690623929178725,0.879599881757493,-0.09631389318470579,25.758890742086876,-23.16367252401183,37.68746747559844
1760959468.6056705,-11.916929951303244,0.0559414575996152,0.8910013207060155,-0.11141933602430276,27.30870392680264,-19.466479248255673,40.11387738043582
1760959468.615516,-11.372396909980447,0.028071401001832263,0.9073500947558876,-0.12251690410545304,28.05224058048114,-14.993927128817324,41.88082956363065
1760959468.6256363,-10.85595102981631,-0.011232390155025772,0.924899383955811,-0.12982777944580373,27.849379178987807,-10.164458508424165,42.785162696819704
1760959468.6355104,-10.382401043942187,-0.05815007590441636,0.9406411986364477,-0.13402511617467391,26.688197278118945,-5.386844314378054,42.71698055181934
1760959468.6456077,-9.96457830820297,-0.10872622963853362,0.9525724534292346,-0.13600637471826646,24.68238844621743,-1.030031440620538,41.671465881504105
1760959468.6556127,-9.612108647092297,-0.1591483687192667,0.959774235009641,-0.13668046886733395,22.05006465738428,2.597336483396926,39.74836575795886
1760959468.6656284,-9.330302276325812,-0.20592417634932134,0.9623197825135545,-0.1368120033371181,19.078821533223635,5.258464633453622,37.139944243657034
1760959468.6755202,-9.119278603030033,-0.24597796332057104,0.9610469839720726,-0.13693948987680066,16.08362698047412,6.793370870262176,34.109324144700416
1760959468.6855159,-8.97345470387397,-0.276703799455293,0.957249040022197,-0.13736508154679533,13.364493122016391,7.120193930241565,30.961854953590986
1760959468.6955392,-8.881517696927276,-0.29601414841680823,0.9523491917935694,-0.13820118170582696,11.170074710191715,6.235179596447002,28.01257152782061
1760959468.7055855,-8.826968013536412,-0.302412668416552,0.9476230323982539,-0.13945161176814316,9.671557131059316,4.2122392288788815,25.55304720627297
1760959468.7155087,-8.789259841741243,-0.2950996981512318,0.944011801246044,-0.14110114593537126,8.948951340824326,1.2013517052781333,23.821022432100047
1760959468.725557,-8.74547928936375,-0.2740934903141627,0.9420405770535941,-0.14318867491006643,8.989781925560179,-2.576040668976943,22.97603790616936
1760959468.7354817,-8.672405106491512,-0.24033003463388045,0.9418291895065224,-0.14584600040238818,9.698530296799602,-6.836702014535526,23.083797278468634
1760959468.7455149,-8.548715617902598,-0.19569779619353214,0.9431680182079105,-0.14929365419006171,10.914189738766378,-11.251672454324737,24.11107479388492
1760959468.7555273,-8.35706258095613,-0.14297213056602767,0.9456256381742825,-0.1537950449522577,12.43283954186873,-15.468701811982736,25.931756668629966
1760959468.7655587,-8.085742627555119,-0.0856343387942281,0.9486583427291735,-0.15957998819959357,14.032138943737575,-19.139465047677625,28.343231083756837
1760959468.775457,-7.729759763616138,-0.027586765868699858,0.9517007582050866,-0.16675642308501343,15.494963506852358,-21.948707536721653,31.090998036125633
1760959468.7857106,-7.2911714722117305,0.027199874665903716,0.954228968565279,-0.1752318080329586,16.6299405423482,-23.641773631684938,33.89824466555345
1760959468.7955375,-6.778718865726221,0.07505585251199016,0.9557985174557116,-0.18466279301939786,17.28727432355777,-24.04696969868123,36.49643903187094
1760959468.8054602,-6.206832332340895,0.112946466764338,0.9560654040136216,-0.19444632700721845,17.368905738506836,-23.08988643888148,38.65293616176804
1760959468.8154695,-5.594165209888187,0.1387291925719338,0.9547978807347205,-0.2037599124044342,16.832690783230817,-20.798010207954853,40.19223965247206
1760959468.8255985,-4.961840251046391,0.15130698802276923,0.9518835802300393,-0.21165221606214565,15.690890406789354,-17.295398986711742,41.00877444822122
1760959468.8354673,-4.33160424361549,0.15066475449236555,0.9473341100906774,-0.2171755800611279,14.003794583921476,-12.7885318613749,41.0704856842063
1760959468.8456213,-3.7240796654456805,0.1377892650453135,0.9412885405568688,-0.21954051579982747,11.869677538172036,-7.545422218175816,40.41396094691664
1760959468.8555353,-3.157277489865948,0.11448836163657604,0.9340156282795066,-0.21826430987486378,9.412430704777409,-1.870663237521153,39.13284938855271
1760959468.8655453,-2.6454891771722373,0.08314292192004662,0.9259103095106708,-0.2132858269090878,6.768152109009202,3.9207313762345892,37.36199224747475
1760959468.8756032,-2.198611868846458,0.046438391260254015,0.9174755474296491,-0.20502520100894983,4.07180762904869,9.528024269496521,35.25985301694461
1760959468.885553,-1.8218937297351225,0.007121842182958779,0.9092809786539128,-0.19437504740881334,1.4449988991365232,14.685858947862473,32.99159643216178
1760959468.895612,-1.5160367948787747,-0.03218723473696693,0.9018966207814884,-0.18261564995897325,-1.0140472949220813,19.18034851098347,30.71461886043344
1760959468.905701,-1.2775752815860024,-0.06912959923039046,0.8958105973140901,-0.1712525719094422,-3.2370452987303597,22.859409799139616,28.567603765705403
1760959468.9160273,-1.099454779455254,-0.10169771326641482,0.8913513479044983,-0.16178899994614207,-5.187703213101044,25.63717589391596,26.663401477690304
1760959468.9255772,-0.9717569402129601,-0.1283036417256935,0.8886433581340165,-0.15547052602813094,-6.858827321091058,27.492768729606457,25.085358560661142
1760959468.9356468,-0.8825298132024221,-0.14783164636078108,0.8876231749887915,-0.15306270964211546,-8.265080102464838,28.46405158971,23.88629366286977
1760959468.945796,-0.8186881814336232,-0.15967336583739083,0.8881231529150776,-0.15471857121671725,-9.433066899047976,28.637244011138403,23.0892264703756
1760959468.955569,-0.766942085876986,-0.16373884414207449,0.8900017474638816,-0.15996269850865985,-10.391129294548705,28.133516728478533,22.689175163801544
1760959468.9655206,-0.7147011422504298,-0.1604367662613384,0.8932797491055694,-0.1677845233317335,-11.161301775639112,27.093909240511305,22.655671679133146
1760959468.9758022,-0.6508937861215944,-0.1506184266469566,0.898241669559868,-0.17681328552523906,-11.755299630231343,25.664115149778105,22.935908204601535
1760959468.9855967,-0.5666381980597195,-0.13548125252491,0.9054741938522745,-0.18553812898229013,-12.175329547704273,23.980825032486592,23.45853223206703
1760959468.9955704,-0.455707862813571,-0.11643267748422294,0.915828407415685,-0.19253179439290252,-12.419288358544929,22.161304247136464,24.138086553388344
1760959469.005575,-0.31475302324183196,-0.09492729865937531,0.9303058405098892,-0.1966380242941014,-12.48887480890293,20.297565054423924,24.880022886595288
1760959469.0155673,-0.14327023855209853,-0.07230450279162864,0.9498819221084847,-0.19709432466177262,-12.398489661292341,18.45579856447396,25.586142489729774
1760959469.0254884,0.05665301288404618,-0.049658160313814294,0.9752936580596541,-0.193578161946309,-12.1826244753267,16.68077684420083,26.16023795850002
1760959469.0355663,0.2807669878720988,-0.027759640729084527,1.0068272199429489,-0.1861789179291178,-11.899749410722814,15.003975936726565,26.513635904187215
1760959469.045712,0.5232012451579786,-0.007038406384072257,1.0441424397604024,-0.17530808657688393,-11.631437497251973,13.45347406800091,26.570282182303917
1760959469.0554974,0.7770608351029927,0.0123881789861589,1.086165401617427,-0.16156733734299983,-11.476454712640022,12.063416781210815,26.27096649080976
1760959469.065556,1.0350227735452104,0.030648770032743102,1.1310707857470674,-0.14559857053828854,-11.540601653144677,10.88104637848401,25.576249927949945
1760959469.0755267,1.2898809666074633,0.048028568571143945,1.176365550238435,-0.1279420364668432,-11.92400068026608,9.969884711150613,24.46766895693881
1760959469.0855315,1.5349919675312267,0.06486898956781381,1.2190748761012689,-0.10892810504402947,-12.708079664233052,9.408484189594812,22.946901531915728
1760959469.0954995,1.7645839666266887,0.08146888287991821,1.2560175938457394,-0.08862473070687842,-13.944568752505047,9.285035359716897,21.032833076110826
1760959469.1056678,1.973907413213115,0.09799761441441383,1.284141060730178,-0.0668550250965641,-15.648384229497085,9.688843013841664,18.756818428185266
1760959469.1155975,2.1592248914411165,0.11442670149266641,1.3008691343415675,-0.04328716079653005,-17.795446721222724,10.700090749428226,16.156804274737535
1760959469.1255379,2.317658128483665,0.1304858135497196,1.3044095448974464,-0.01758289404615484,-20.325478710104562,12.37934014024272,13.271246486439948
1760959469.1355164,2.446929728784689,0.14565164309490133,1.293974288695338,0.010425165910378502,-23.148864226958548,14.757937809356395,10.133856417139008
1760959469.1455271,2.5450534776579707,0.15917859086573907,1.2698857680380295,0.04056767140805085,-26.155902690075745,17.83013509338536,6.770132239223429
1760959469.1556273,2.610036096091614,0.1701736890240856,1.2335625563608639,0.0722244711638392,-29.22639219218166,21.54747176078454,3.1964107616171082
1760959469.1655982,2.639652490063141,0.177707330102676,1.1873942385478222,0.10429477919372114,-32.23758539460067,25.815918797335748,-0.5781866269088385
1760959469.17571,2.63134477282051,0.18094178402398853,1.134524101362206,0.13527083977962664,-35.06925047446985,30.496312590155686,-4.547078856292433
1760959469.1856492,2.5822737381386225,0.17925520678835213,1.0785640524784423,0.1634155407570037,-37.60567929477035,35.408545799642596,-8.699643377115182
1760959469.195598,2.4895241089526086,0.17234186238841515,1.0232695308418824,0.18701905188763918,-39.73560283721979,40.339676370823916,-13.01410398312368
1760959469.2056148,2.3504376004603573,0.1602774326236174,0.9722044179977298,0.20468340557538167,-41.351647527702966,45.05561163086165,-17.451464008520983
1760959469.2157366,2.1630257822258554,0.14354620364155588,0.9284276841794056,0.21556789923088823,-42.35096364653122,49.3155004663535,-21.95181854700192
1760959469.2255995,1.9264012410309992,0.1230311178607406,0.8942327442158307,0.21953041874471105,-42.638092870406325,52.887605001752775,-26.433815135061856
1760959469.23565,1.6411612565802345,0.09996665572066679,0.8709654717629411,0.21712288502962374,-42.13036512862999,55.56527157150222,-30.797369276052333
1760959469.2455907,1.309661148858854,0.07584879495086336,0.8589401614270689,0.20943968016829004,-40.765432927671675,57.18162753750558,-34.92918327555466
1760959469.2555892,0.9361235353113666,0.05229360794997458,0.8574668188818819,0.19786308140601924,-38.510054535275486,57.621760109196934,-38.71027207522295
1760959469.2660162,0.5265469999529465,0.03084641277870885,0.8649937404709669,0.1837803609207365,-35.36887013226466,56.83137242803505,-42.024567321662126
1760959469.2760537,0.08840456085262938,0.012764810051201704,0.8793512138258218,0.16835160788389955,-31.391648662851143,54.8212156132347,-44.76770059004465
1760959469.285651,-0.36984502439741834,-0.001182307818718981,0.898059022847832,0.15238660338965843,-26.677402940871946,51.66688524841476,-46.85521258714792
1760959469.295674,-0.839379429010209,-0.010852350251793165,0.9186435683743991,0.13635120153840338,-21.3740186036775,47.503785850191996,-48.22963424756375
1760959469.305602,-1.3116927031649066,-0.016764966597988387,0.9389092229315461,0.12048074089153347,-15.672666136610237,42.517243234855506,-48.866040520888326
1760959469.3155718,-1.7792467530329017,-0.020017987274668952,0.9571237774168626,0.10494608012400299,-9.797120839837307,36.92803276032914,-48.77571364834893
1760959469.3255897,-2.236009270022751,-0.02209100964844028,0.9721016650925728,0.09000891736357695,-3.9889556533972748,30.974120220829388,-48.00748246628236
1760959469.3356059,-2.6778055459397216,-0.024570413537205932,0.9831908584439272,0.07611640010904527,1.5097763392612285,24.890146167348068,-46.64622835720586
1760959469.3457258,-3.102434855647389,-0.02884891482519174,0.9901847478180086,0.06391033265520038,6.4743403404847335,18.886930771065877,-44.80810481303884
1760959469.3558822,-3.509534366443196,-0.03585960093349062,0.9931894514658737,0.05415304149401587,10.71344821194327,13.133772577884336,-42.63232494658787
1760959469.3656578,-3.9002120498204067,-0.04589711325289762,0.9924808093439696,0.04759356275873586,14.081849477882072,7.746328239349232,-40.26997361563568
1760959469.375636,-4.276510838751533,-0.05856039985661298,0.988383410402244,0.04481029064044955,16.48824989758252,2.782284848361407,-37.87108858476594
1760959469.3856175,-4.64080244592737,-0.07282802691806048,0.9811972694828937,0.046067957869845605,17.89841634784064,-1.754094504920237,-35.57193057678115
1760959469.3957484,-4.995230607214907,-0.08725346006723624,0.9711868940862006,0.05121995244840061,18.334191000934094,-5.899009003607755,-33.48457702032219
1760959469.4056478,-5.341320342504899,-0.10024690352100947,0.958630932506154,0.05967618989349565,17.869499095424512,-9.709854641636962,-31.69057216132651
1760959469.4156733,-5.679838448040494,-0.11039415936848253,0.9439101239792214,0.07044522187791742,16.62419623216818,-13.243142836649735,-30.23947645585206
1760959469.425782,-6.010935580078365,-0.11675412351591448,0.9275959479731299,0.0822470084276632,14.756024329345777,-16.533830610107366,-29.15207886284254
1760959469.4357588,-6.334534285832308,-0.11907790984878874,0.9105009500819666,0.0936796204889063,12.450469939451075,-19.58020132977232,-28.427077233369555
1760959469.445622,-6.650867124446824,-0.11790543322857053,0.8936640144058334,0.10341163235334559,9.908280613766753,-22.33749648076261,-28.049430106839022
1760959469.4556205,-6.961031008942658,-0.11451770153240787,0.8782630921131431,0.11036651383128689,7.3308624251619605,-24.721844854789822,-27.998454556758084
1760959469.4657009,-7.267418360656451,-0.11075073650138334,0.8654677457063233,0.11386848356541471,4.904565911447237,-26.62397435628917,-28.254067416951543
1760959469.4755785,-7.573913443066555,-0.10870448735464047,0.8562604825950124,0.11372927806028969,2.785626102445539,-27.930171146981884,-28.80020120309037
1760959469.485539,-7.88579494385905,-0.11040131188490429,0.8512664353790188,0.110267623330423,1.0878908675785186,-28.54642452572452,-29.625175283137228
1760959469.495802,-8.209349102873999,-0.11745800103106856,0.8506328552367614,0.10426420827940289,-0.1247833975713502,-28.420989821769812,-30.719490467349512
1760959469.5055604,-8.551256206699657,-0.13083003797053483,0.8539905669459805,0.09686320712285475,-0.8404458590308853,-27.560859239641257,-32.072026169353435
1760959469.5157065,-8.917855917829447,-0.15066874062406674,0.8605088700560041,0.08943636318654771,-1.09541000982615,-26.03879907447081,-33.665890863380284
1760959469.5256495,-9.314418032359855,-0.17630722257192516,0.8690298446785292,0.08342686767161366,-0.9662026854861583,-23.989441619915652,-35.47516772556978
1760959469.535662,-9.7445426194991,-0.20636642420535725,0.8782487756819777,0.0801881977193088,-0.5587424286518983,-21.595005097959987,-37.46349148654468
1760959469.5458705,-10.209786760041247,-0.2389522871187103,0.8869012596903929,0.08082981211808668,0.0037274032624158952,-19.063096086287253,-39.584839960768136
1760959469.5558228,-10.709567921218248,-0.27190229112578457,0.8939227702396831,0.08607991364469776,0.5929280110810193,-16.600362179739136,-41.786264340225976
1760959469.5659127,-11.241336708140128,-0.3030365750207622,0.8985574569159565,0.09617654100459846,1.087562639999947,-14.38632959241288,-44.01171146600397
1760959469.5755858,-11.80095968171845,-0.33037652212577245,0.9004057938108824,0.11079971394449423,1.384835585034338,-12.551561608601459,-46.20579577250163
1760959469.585571,-12.383220079141697,-0.3523089008536271,0.8994138743374963,0.1290554455861789,1.4111715286100703,-11.163402603649997,-48.31646106791671
1760959469.5954607,-12.982336763460696,-0.36769040283864507,0.895818983964819,0.14951720929194937,1.131511019375808,-10.22124121440134,-50.29588871375357
1760959469.6057885,-13.592416650944214,-0.3759001801715922,0.8900729520388613,0.17032578501929166,0.5561457532069572,-9.661729810690797,-52.09958821299603
1760959469.6156197,-14.207785205464265,-0.3768537163323809,0.8827634966892446,0.18934579472912594,-0.25626526262745475,-9.372991928644488,-53.684151070969854
1760959469.625659,-14.823174599950097,-0.3709892161687838,0.8745448010878313,0.20437339330211732,-1.200886746995734,-9.215670228277007,-55.00451508877077
1760959469.6356587,-15.433781624751894,-0.35922950465386044,0.866076500413475,0.21338102609313497,-2.135067187209024,-9.04776252838964,-56.01169668799388
1760959469.6457024,-16.035230280922573,-0.3429146973912852,0.8579623757172883,0.21477318629481462,-2.892925646734962,-8.749609582677206,-56.65178877263073
1760959469.655636,-16.623483531456305,-0.32370116904075724,0.8506819091061774,0.20761762159913869,-3.304984972590313,-8.245235680521159,-56.866657376774505
1760959469.6655734,-17.194745831737205,-0.30343023021903154,0.8445175413992636,0.19181477994961413,-3.2203903990687497,-7.516628675506794,-56.59634575834602
1760959469.6756399,-17.74538657299264,-0.2839774050804069,0.839490161550244,0.16817508167144574,-2.528316020115538,-6.6085342276554275,-55.782856173836656
1760959469.6856325,-18.27189857087898,-0.26709498349988214,0.8353199583208776,0.13838582550751546,-1.1749161569683368,-5.622825587237553,-54.37478763574928
1760959469.6955233,-18.770888814634596,-0.2542583369865383,0.8314298418492283,0.10486384216298414,0.8272340868680906,-4.703238530682803,-52.33223055763839
1760959469.7057014,-19.239084315058218,-0.24652465807056567,0.8270053979603372,0.0705054314947979,3.3989755499255763,-4.012893779172951,-49.63130388400116
1760959469.7156496,-19.673327860930975,-0.2444145547635386,0.8211178811170227,0.03836251123414664,6.403775184559294,-3.7082249210046263,-46.2677550629326
1760959469.7257059,-20.070540254366282,-0.2478323048331106,0.8129044283152722,0.011291048800422282,9.664734532983214,-3.9134293055283633,-42.25914796257937
1760959469.7355528,-20.4276381462056,-0.2560448069735099,0.8017843949507617,-0.008372914783541777,12.986514156978147,-4.6992731749413075,-37.64534414505031
1760959469.745616,-20.741416961572806,-0.267736316334489,0.7876771421129023,-0.01905986837406068,16.178634368348394,-6.069122816623961,-32.48722177637646
1760959469.7555172,-21.008430377670305,-0.28114487772313196,0.7711805674701482,-0.020105127788486634,19.076706895497097,-7.953715200010515,-26.863858307598278
1760959469.7656627,-21.22491452294361,-0.29427207697646507,0.7536745589118955,-0.011771340607713293,21.558858266648112,-10.214773150134457,-20.86870208993228
1760959469.7756076,-21.386811533504147,-0.30514582230919324,0.7373265576310439,0.004832750903342512,23.555601398358938,-12.656420310014422,-14.60551505534644
1760959469.7856684,-21.489941011133013,-0.3121067726070951,0.7249889524034097,0.027912956925068656,25.052352993801918,-15.042637872757576,-8.184999285422666
1760959469.79573,-21.530348655805106,-0.31407993916481686,0.7199825391452869,0.05520022339624118,26.084519907838985,-17.118752337807695,-1.7229203078319646
1760959469.8058038,-21.50482930601897,-0.31078431682120616,0.7257591945299207,0.08418351904069765,26.725696645458164,-18.63503727821879,4.659876735347121
1760959469.815785,-21.411579581085252,-0.30283107269809284,0.7454434647115701,0.11234470939994791,27.07025975246577,-19.370734415741705,10.83585761353246
1760959469.8259094,-21.25089063788752,-0.29167173013883163,0.7812789881357871,0.13738225753866054,27.212615998489383,-19.156920885796204,16.668676928531806
1760959469.8361626,-21.025756182396677,-0.27938390319359674,0.834048605052308,0.15741127924639237,27.226389653093012,-17.896558712534937,22.012243266842173
1760959469.8465033,-20.74225733886844,-0.2683180941342707,0.9025783900949038,0.1711221274723936,27.147524215465197,-15.579832629707656,26.712919148302785
1760959469.8557198,-20.409601374927895,-0.2606638644441584,0.9834551886660189,0.17787616704149217,26.965220723946025,-12.292733207008258,30.61652372039627
1760959469.8657727,-20.039734137037545,-0.2580159572880495,1.071074574072733,0.17772214144031714,26.623650404561744,-8.217023405295222,33.58093113026035
1760959469.8761315,-19.64650887856829,-0.26102504919811703,1.1580928257618073,0.1713273962986611,26.03554821701346,-3.620377014271095,35.493690315170504
1760959469.8857565,-19.244468307473362,-0.2692054312189285,1.2362868795922666,0.1598287568490441,25.106386849325247,1.16347064926494,36.29252412737861
1760959469.8956826,-18.847373034202047,-0.2809478168861958,1.2977337980190777,0.1446157562971399,23.765243517432616,5.763512239513716,35.98518720476263
1760959469.905592,-18.466674869711618,-0.29375185013205674,1.336116883416523,0.12706845623878307,21.99621157327433,9.807022807479079,34.66437121413727
1760959469.9156144,-18.11016988683093,-0.3046487838639142,1.3478783229517286,0.10828965376289242,19.862865872584926,12.958664854728092,32.51347604314423
1760959469.9257152,-17.781059316067235,-0.31073503742129316,1.332915981430778,0.08889516548085519,17.518487433261583,14.958835234143924,29.800261220841172
1760959469.9356763,-17.477593009087517,-0.3097012665334424,1.2946069513700063,0.06893805219708475,15.196971401487374,15.655895276440813,26.857487222388563
1760959469.9456794,-17.193378974359067,-0.3002416013482147,1.2391270758767958,0.04801910824690024,13.183498094796427,15.02652415616974,24.05214492287819
1760959469.9556444,-16.918329628022516,-0.2822652560664326,1.1742505459087507,0.02557295317803581,11.769121208056777,13.1794837063927,21.747060738092927
1760959469.9655404,-16.64010201302333,-0.256885735564518,1.1079563128712595,0.001243771135319712,11.197796247092908,10.34088002723686,20.260029360209796
1760959469.9755607,-16.34579944650983,-0.22620854939653,1.0471813830052874,-0.024782595053983517,11.616717935937004,6.822895651061863,19.826067165413967
1760959469.9855952,-16.023659637430516,-0.1929694079077938,0.9969624925769001,-0.0516157112269173,13.040664117738155,2.9815967576647537,20.568078603294655
1760959469.9956083,-15.66447588022274,-0.160095080458537,0.9600603608843822,-0.0777317034415118,15.338473660697458,-0.8284566489307881,22.4803034298666
1760959470.0055637,-15.26258117666459,-0.13027093349709704,0.9370270526389908,-0.1012594592481283,18.24531254123452,-4.294975005554635,25.427326408178786
1760959470.01564,-14.816340508798483,-0.10559772438693174,0.926593635997426,-0.1203914020177657,21.398951471840483,-7.177937497110753,29.159192106190325
1760959470.0255108,-14.328198621727648,-0.08739885180702543,0.9262305147330678,-0.13379280370706886,24.393227434940066,-9.325458605298971,33.34056898466708
1760959470.0357656,-13.804386608154308,-0.07620012261932521,0.9327521321462386,-0.14089227273446575,26.83850233673563,-10.675244812661854,37.589557714418206
1760959470.04584,-13.254396866970874,-0.07185940108856366,0.942875711654327,-0.14198355219495787,28.41802278864672,-11.244084341578656,41.52029870972426
1760959470.0556214,-12.690310317418366,-0.07378703498719474,0.9536782196735,-0.13813397451713935,28.930571066635633,-11.109666662269898,44.783361496449466
1760959470.0656278,-12.1260232308899,-0.08117951422918561,0.9629176586328947,-0.13094894896601553,28.313037359165673,-10.389710492766426,47.0989300299987
1760959470.0758827,-11.57638966139794,-0.0931943899241312,0.9691990976648436,-0.1222662783079159,26.640719219399838,-9.222818488687334,48.27965022615094
1760959470.0858333,-11.05627993431458,-0.10902416296660086,0.971983574968539,-0.1138507332645213,24.107408236142795,-7.753921539022599,48.24210292380934
1760959470.095629,-10.579561500024008,-0.1278705917218447,0.9714633089568878,-0.10714218015636909,20.990747961120473,-6.1251844094410774,47.00761047414327
1760959470.1056032,-10.158034020744608,-0.14886003787945215,0.9683513040208708,-0.1030910469368608,17.610201530036313,-4.471480208544159,44.69411051147842
1760959470.1156712,-9.800386689696632,-0.17095730940562384,0.9636440663837524,-0.10209632592370846,14.285019161194413,-2.9184906787183897,41.50114076602032
1760959470.1256154,-9.511278884877145,-0.19292403895639723,0.9584061210457645,-0.10404401159690949,11.298187237221159,-1.5813153904787267,37.68985644311385
1760959470.1358697,-9.290662153625311,-0.21333832926441457,0.9536010686680121,-0.10842896253321799,8.870153685132506,-0.5620257448239447,33.55977910657356
1760959470.1455703,-9.133454665119215,-0.23066516802074077,0.9499720125551008,-0.1145310813594952,7.143866123553549,0.054478953035970834,29.42385575306289
1760959470.1556892,-9.029649932801894,-0.24335681905322912,0.9479663529734424,-0.12160773505591009,6.18080930283571,0.20605117242464388,25.583421692562723
1760959470.1656368,-8.964896931120819,-0.24996792026435796,0.9477040096254663,-0.12906150212231088,5.966433532188462,-0.1406054053776893,22.304731759542438
1760959470.1756268,-8.921534495407986,-0.24927810553718965,0.9489920232596782,-0.13654977595621656,6.422555975518939,-0.984569673481656,19.798738085841254
