timestamp,angle,linear_acceleration_x,linear_acceleration_y,linear_acceleration_z,angular_velocity_x,angular_velocity_y,angular_velocity_z
1760597426.0123725,3.5382026638963078,0.06223312532170193,0.8719270652520793,-0.04868406725686502,22.991536062234285,3.3920859055744406,-50.93354291305518
1760597426.0223322,3.132693414127087,0.11806284654013939,0.9245187227438048,-0.04482874417430304,20.10982711325806,4.706713854687161,-45.52191755582375
1760597426.0324311,2.804704157669913,0.15412692432979386,0.9712665701888461,-0.04338170027477923,16.714459473998446,8.015316699514663,-39.8490312474395
1760597426.0424232,2.545532182067924,0.17009916182411158,1.009245158159189,-0.04513528931481265,13.094578150456424,12.807215394060263,-34.21558401947518
1760597426.0523484,2.34233669369102,0.16709246739020758,1.0367257608419025,-0.05031723699785082,9.566313168867433,18.506581016601974,-28.90916678637926
1760597426.0623589,2.1788256223950957,0.14724568949315386,1.0531153275893992,-0.0586603266723565,6.41920953477538,24.53729279998484,-24.176038194786383
1760597426.072343,2.036351378832661,0.11339057650679664,1.0588131477932803,-0.0695717681089103,3.8732083758629354,30.371310602802325,-20.1989579455253
1760597426.0823896,1.8953936111251084,0.06883713244479316,1.0550109836256254,-0.08232411445978945,2.0533266889171817,35.55982154525054,-17.08434636908042
1760597426.092367,1.7373226304139713,0.01725180303594409,1.0434691735064254,-0.09620836643859294,0.984345794468514,39.7496261572004,-14.860044666223317
1760597426.1023414,1.5462465265099505,-0.03744054474307873,1.0262983767049512,-0.1106248202208316,0.6034045925581719,42.6885301806906,-13.482954653308022
1760597426.1123424,1.3106887114670847,-0.0911974371437765,1.0057647992371492,-0.12511182991027484,0.7853652904248224,44.22330671302327,-12.854286705796333
1760597426.122331,1.0248485969293624,-0.1400692829404719,0.9841227575062412,-0.13932094897375727,1.3744267390378953,44.29282274691713,-12.839220517295882
1760597426.13236,0.6892614488381668,-0.18046138414584892,0.9634694198831102,-0.15295025479317312,2.2154798415500636,42.91792930725403,-13.287507368096193
1760597426.1423943,0.31076755185588695,-0.20940359974926775,0.9456158110497644,-0.1656541665686548,3.179740489408188,40.18914368256935,-14.051875683598784
1760597426.152332,-0.09820108397059822,-0.22478112997113464,0.9319740323616632,-0.17695502995345228,4.1808845881282535,36.25304165607386,-15.00193575281631
1760597426.1623368,-0.5209245942205262,-0.22549275339025723,0.9234681873571574,-0.1861843328223356,5.179936186108536,31.298396104321657,-16.032408930534377
1760597426.1723452,-0.9381397337035875,-0.211522813580843,0.9204808889603847,-0.1924782436843838,6.179265394270974,25.543176092835818,-17.065670282436265
1760597426.1823282,-1.330044716698778,-0.18393207919124802,0.9228464154314943,-0.19484265781926782,7.207980291688159,19.22338841248325,-18.049547389744134
1760597426.1923583,-1.6783747803956064,-0.144783054941201,0.9298962115838869,-0.1922868002553309,8.302437609978625,12.584353372253295,-18.951890592373566
1760597426.2023377,-1.9683604221846083,-0.09701508191119008,0.9405543411916889,-0.18400505063155428,9.486262556543682,5.8744065214731,-19.753570338627842
1760597426.2123537,-2.19038752603833,-0.044277152618177086,0.9534718932459035,-0.16957084018294433,10.754048860646886,-0.6596521255765496,-20.441346578936265
1760597426.2223225,-2.3411923231226854,0.00928222853209744,0.967182571900241,-0.14909997872885927,12.061923136746277,-6.776574212261073,-21.00165050208535
1760597426.2323267,-2.4244486337019544,0.05927331781240888,0.9802587424391103,-0.12334563000519608,13.326661874754757,-12.245580034534916,-21.415879220699786
1760597426.2423804,-2.4506448083713983,0.10137398728773053,0.9914489394942024,-0.0937019475126895,14.433360899197796,-16.853452819013345,-21.657450894954668
1760597426.2523284,-2.4362059563921727,0.13168124871045042,0.9997836712464521,-0.06211381495267029,15.2500997285065,-20.4145535974143,-21.69066635979383
1760597426.2623844,-2.4018924329830034,0.14708211630710671,1.004644657435058,-0.030909942303898204,15.646882477564388,-22.78363014383757,-21.471359256009304
1760597426.272327,-2.370592216278745,0.14560473020761017,1.005801380428768,-0.002589692940313527,15.515504191117463,-23.870208440881786,-20.94929610721859
1760597426.2823877,-2.3647124759605878,0.12669924177425615,1.0034253873280838,0.0204029136184783,14.786867366791572,-23.65233448760331,-20.072191439474196
1760597426.2923908,-2.4034523008036506,0.0913941428625343,0.9980939687376351,0.03589100285007635,13.442587642554374,-22.186840298930104,-18.790972747863233
1760597426.3023493,-2.500291609702734,0.04228046114810689,0.9907884665740467,0.04214744829157061,11.518491296638121,-19.613399256554995,-17.065620764881352
1760597426.3123462,-2.6610469111613373,-0.01670409742833255,0.9828795852558491,0.03804568968107644,9.098878909374637,-16.150434252863846,-14.870662555579415
1760597426.322352,-2.882810048377057,-0.08068827962398563,0.9760778914475481,0.02318448196066244,6.3021180863771775,-12.082247868919872,-12.199358110145276
1760597426.3324187,-3.153994861960169,-0.1444401753243109,0.972320263386659,-0.0020065321581731912,3.2598981831230627,-7.73826561435808,-9.065881018275604
1760597426.342331,-3.455570595759305,-0.20303058127462384,0.9735702301004019,-0.03618027219515576,0.09388894752689021,-3.466730305029194,-5.505314496869509
1760597426.3523347,-3.763370706690827,-0.2524924774408218,0.9815346886059052,-0.07701699669960752,-3.1057473946517304,0.39373544204658306,-1.571892243568019
1760597426.3623915,-4.0511597693586685,-0.29036800785476524,0.9973340573412137,-0.12122738699123885,-6.295663327011087,3.5408389084418803,2.6636324777163605
1760597426.372575,-4.293972769729945,-0.31603759195601366,1.0211906473461774,-0.16465582754324842,-9.485033809707755,5.7300734415290115,7.116516689826101
1760597426.38252,-4.4711721088533,-0.33075069985217415,1.0522055193599684,-0.20253791963049686,-12.729835739397373,6.788455933194756,11.68987468634757
1760597426.3923743,-4.568729410866952,-0.33732412282766894,1.088276307657998,-0.22996149279660807,-16.115975456703197,6.619629788864636,16.276071027035727
1760597426.402397,-4.5804094537769595,-0.3395402022464572,1.126180016406581,-0.24253133334875157,-19.733838686136764,5.201078876410148,20.758790595721358
1760597426.4123392,-4.507752732965875,-0.34135459154048486,1.161818837288164,-0.23713580564423767,-23.648891806124237,2.575574331619528,25.01740292818554
1760597426.4223475,-4.358959830583747,-0.34607888322750596,1.1906075326534684,-0.2126116636577231,-27.87436011026764,-1.1602435817100185,28.934922735434785
1760597426.432336,-4.146935320476512,-0.3557033483634389,1.207962951981658,-0.1700912296758378,-32.35232101581831,-5.867257241616353,32.409748098133896
1760597426.4424083,-3.8868390106726447,-0.3704720518817441,1.2098359090935364,-0.11292129260782674,-36.948348687840834,-11.37314223126993,35.36980384548895
1760597426.4523757,-3.593525127103551,-0.38875666055092317,1.1932110237634248,-0.046190010602777304,-41.46210642839448,-17.47868091686993,37.786275139806285
1760597426.4624135,-3.2792387828543754,-0.40723014699803556,1.1565057575501327,0.02400651151998404,-45.652723186914194,-23.961493970252935,39.68331507259267
1760597426.472406,-2.9518921368291497,-0.4213189591451825,1.0998279557901511,0.09140336474792449,-49.274492140940396,-30.578383311629985,41.14031441524984
1760597426.4823673,-2.6141617862673527,-0.4258942661545222,1.0250863661124845,0.15037246513660632,-52.11615032459088,-37.06791816247733,42.284564125008046
1760597426.492335,-2.2635348146717633,-0.4161342992230552,0.9359714086586742,0.19658169647725363,-54.03600506894789,-43.15516145903011,43.27408990708048
1760597426.502342,-1.8932904183379051,-0.388448613729393,0.837823244973329,0.22742631501648106,-54.98553893014469,-48.56058830495261,44.272602953859
1760597426.5124016,-1.4942545708044073,-0.3413138966278853,0.7373820149411476,0.2421899907602522,-55.01593471570165,-53.01498450136135,45.42047656282052
1760597426.5223987,-1.0570316980835175,-0.27584983216036163,0.6423826373120667,0.24193817355562,-54.265213421010145,-56.28095786543091,46.807095415852885
1760597426.5323815,-0.5743242331047412,-0.19597885463446174,0.5609350166506605,0.22919105627807526,-52.927998891280225,-58.179548044948184,48.45043562212843
1760597426.542374,-0.042917998283496864,-0.108073412609177,0.5006477715230595,0.20745355148362282,-51.21435623140968,-58.617857756045346,50.288872869346456
1760597426.5523877,0.5350455893686553,-0.020097878942714736,0.46753510744940946,0.18068858756840897,-49.307257545742374,-57.61165146369039,52.18787330718445
1760597426.5623512,1.1517640493055004,0.059620244806764235,0.4648922464602,0.15281205513719628,-47.328646480021064,-55.29642577320999,53.96097116862933
1760597426.5724711,1.794497535916016,0.123748874400272,0.4924703392048555,0.12726801759818707,-45.321419322702404,-51.9220401953109,55.40128645758293
1760597426.5823777,2.4471751140546827,0.16715966742138497,0.5462955547092921,0.10671590360684584,-43.250048331415485,-47.829326621628674,56.31762267744554
1760597426.5924175,3.0925725327125084,0.18774444716056093,0.6192756746682235,0.09283934690091314,-41.01800784013686,-43.41113578806646,56.5683328346131
1760597426.6024063,3.7146716931455055,0.18668902732384987,0.702423785906734,0.08628019062416167,-38.49704543569935,-39.06379010060573,56.08676824823407
1760597426.6124146,4.300819508161779,0.16817103830095773,0.7863218928766309,0.08670232177404252,-35.56195361609325,-35.13705496139499,54.89401899591416
1760597426.6224184,4.843372775953616,0.1385710240251061,0.8624546796262503,0.09297869434700248,-32.12444236217279,-31.891165765912366,53.09725771070623
1760597426.6323538,5.34061951842651,0.10538172653454365,0.9241866616043735,0.1034696671223026,-28.16049976671415,-29.468102889976283,50.874656476305475
1760597426.642361,5.796884904397247,0.07603751627433153,0.9673068524598012,0.11633933323372966,-23.726940563676756,-27.881465267724487,48.45007057219524
1760597426.6524074,6.221845118455796,0.05686482022856454,0.9901636150983789,0.1298505914625808,-18.96454773797221,-27.025669332061426,46.062164424854565
1760597426.6624477,6.62917453255621,0.05230277173342135,0.993462213179759,0.14258881479891444,-14.08724020480249,-26.701738825259554,43.933239549307224
1760597426.6724424,7.034732973566163,0.06448191995136839,0.9798211064045116,0.15358505974681907,-9.358905136899784,-26.654390079230758,42.24273374689411
1760597426.6824389,7.454552703488285,0.09318083728202789,0.9531936180662036,0.1623360965017375,-5.061573078132649,-26.613777844216198,41.109326075748136
1760597426.6924298,7.902900940092822,0.13611172850373804,0.9182561737730774,0.1687387624917238,-1.4599810308301142,-26.335179627656977,40.58393576853836
1760597426.702624,8.390671389411864,0.18943626683657264,0.8798348046627985,0.1729656351853913,1.2320685155569076,-25.630954171991117,40.65381108401742
1760597426.7124465,8.924303151167456,0.24839857471663634,0.8423990297472806,0.17531436493592878,2.878687415894484,-24.391034112907843,41.255679680922
1760597426.7223518,9.505345451003887,0.30797983251403965,0.8096311921295889,0.1760696038871472,3.4384899291970803,-22.59049394315379,42.29409049078462
1760597426.7323241,10.130689260454783,0.3635068167062723,0.7840988523109388,0.17541779238017446,2.968597440866771,-20.284770868002543,43.66024629327317
1760597426.7423377,10.793384160255833,0.4111626303582108,0.7670844829436375,0.173439373460385,1.6157562243968147,-17.594549406983013,45.24721530783623
1760597426.7524302,11.483870575123014,0.44834949100294397,0.7586106069495778,0.17017098876324122,-0.4036615684697029,-14.68322492557697,46.9591968544258
1760597426.7623692,12.1914027143894,0.47385938724425014,0.7576425557659332,0.16570059255532754,-2.831145896580534,-11.730507908542421,48.71466377188629
1760597426.7724135,12.905425417233724,0.487834130381802,0.7624041071852093,0.16024986786818302,-5.396244486104237,-8.906194172674084,50.444817175790945
1760597426.7823546,13.616698744954418,0.49153598600900195,0.7707319471258876,0.15421122160394188,-7.84454330053847,-6.348177464145613,52.08945849452213
1760597426.7924228,14.318030931048533,0.4869871039937845,0.7804112023234563,0.14812840657709336,-9.959400973786304,-4.148094738831317,53.59226491443582
1760597426.802403,15.004568012052554,0.47655851219563133,0.7894557743999066,0.14262934343594863,-11.575090184792494,-2.346466235466634,54.89695427845807
1760597426.8123865,15.673675321598925,0.46259226952331206,0.7963148885950817,0.1383313955597053,-12.581004051337908,-0.9371464926486883,55.9452608069694
1760597426.8223674,16.324512249469727,0.44712332856833437,0.7999998311288333,0.1357418804347546,-12.918352221986162,0.12102977911143319,56.677130966979725
1760597426.832371,16.95743659718003,0.4317363475942487,0.8001330588133357,0.1351725248791115,-12.571897797239702,0.8887751433935497,57.03309336665829
1760597426.8423636,17.573377451063553,0.4175566980059714,0.7969270185219263,0.13667997331716644,-11.559657260808084,1.430749659528799,56.95834822929394
1760597426.8523588,18.17329152862092,0.4053440822738759,0.7911034842541436,0.1400381998809462,-9.923196656192717,1.8030252150259327,56.40778354983741
1760597426.8623466,18.757777535555885,0.3956387996015698,0.7837667750681407,0.1447440483530903,-7.720392894482047,2.0457357720690275,55.35092078474905
1760597426.8723526,19.326877898453027,0.3889076468619251,0.7762457813731254,0.1500543398968316,-5.021509915061216,2.181752840448503,53.77579866332949
1760597426.8823361,19.88005754148317,0.385646952852386,0.7699201850165206,0.1550512773668223,-1.9084032226213108,2.221037562611278,51.691050311694994
1760597426.892372,20.416321538552328,0.38641918226168503,0.7660457180358912,0.15873117405962436,1.5241709405682249,2.169421637634595,49.12586054494342
1760597426.9023418,20.934418722391168,0.3918195595807326,0.7655916586145792,0.16010948426457502,5.166660365233109,2.040030200143558,46.127967724273816
1760597426.912362,21.433073382679726,0.4023829600136068,0.7691013807560922,0.15833304094715295,8.8938521780006,1.8653500268749326,42.76023524395907
1760597426.9225976,21.91118782778861,0.4184466922191093,0.7765855914067169,0.15278861387308898,12.566375020740495,1.707955786746683,39.096458409908585
1760597426.9323637,22.367963747837226,0.43998695351034167,0.7874598621162963,0.14319564898713502,16.035334892747752,1.6679979572326913,35.21699175335847
1760597426.942351,22.80290241727165,0.4664523988585802,0.8005418617610841,0.12967110539561136,19.15015791533547,1.8856577407184922,31.20455529411451
1760597426.9523778,23.21566550761603,0.49662826518629705,0.8141248429954812,0.11275652718228613,21.769098793396594,2.5369472523609637,27.14030237872699
1760597426.96235,23.605809144661716,0.5285733693193414,0.8261386397017244,0.09340161023665133,23.771482504914417,3.8216349970148062,23.099994294315923
1760597426.9723475,23.97243831137608,0.5596725676266641,0.8343967593390834,0.07290335017586044,25.070577932222665,5.942864869352909,19.150006924852306
1760597426.9823475,24.313857143632372,0.5868334629619566,0.836909684717604,0.05280478530921534,25.62593006024493,9.079282086417434,15.342940570907325
1760597426.9923687,24.627302912491324,0.6068274757245073,0.8322245688587707,0.03476233898834761,25.453878437289546,13.352093509112805,11.712809336514608
1760597427.0023832,24.908840561970614,0.6167367155783995,0.8197371130567471,0.02039459436782483,24.634855826758727,18.791176664174507,8.270106756457423
1760597427.0125294,25.153459797349925,0.6144305630199276,0.7999192771953122,0.011126137203549187,23.315992076530925,25.30565248877646,4.997412144567744
1760597427.0223544,25.355365552792165,0.598975719241858,0.7744187021458089,0.008038746696042317,21.707655566328942,32.66479678155625,1.8465311441655459
1760597427.0325391,25.508401126583436,0.570893137477806,0.746007705893185,0.011742456535366328,20.0729181403335,40.4945323183486,-1.2616238412866925
1760597427.042356,25.606511778503865,0.5322119011939334,0.7183820211492145,0.02228234883504689,18.709573638293946,48.29306951975201,-4.433170489169789
1760597427.0523832,25.644161275526763,0.486316246894964,0.6958242287587805,0.03909988861854716,17.92527494502818,55.4668506465422,-7.792379358166176
1760597427.0623877,25.61665397539167,0.4376182738810992,0.6827548597480645,0.06106557064645732,18.00747998357636,61.385181511726614,-11.467326902629996
1760597427.0723655,25.52036820872759,0.39110529787831266,0.6832038520984681,0.08659073465192524,19.191025333698015,65.44909535236357,-15.570657155923074
1760597427.0823379,25.352942371329213,0.3518084938652938,0.7002524978605449,0.11381099786549671,21.62705715939895,67.16729084350608,-20.177441625679446
1760597427.0925007,25.113455252307695,0.32422888397577854,0.7355165809422773,0.1408147772415832,25.357498728403193,66.22973556725755,-25.303554354547924
1760597427.1025946,24.802610853834047,0.31175193955104447,0.7887519349065866,0.16587482071067108,30.29898404340751,62.56823582957324,-30.88889403914337
1760597427.1123576,24.422895464146066,0.3160916484444549,0.8576527195631759,0.18763659642291855,36.23916143355227,56.39345247659672,-36.789754965362654
1760597427.1223905,23.97864383580033,0.33682646292256535,0.9378829429673466,0.20522766320212515,42.84668043325533,48.19978032906471,-42.7835355605726
1760597427.1323888,23.47594616816494,0.3711115734777048,1.0233512818818675,0.21827235661696706,49.69440434240477,38.73316667901004,-48.58695796866832
1760597427.1423602,22.922349522903485,0.4136590803991466,1.1067219739072307,0.2268179283501454,56.29377376303161,28.921873041225112,-53.8864751645352
1760597427.1523747,22.32634812535715,0.4570589201537794,1.1801410330283872,0.23119504017082915,62.13701910972624,19.775585839098714,-58.37711411706207
1760597427.1623824,21.6967055465895,0.4924704277536277,1.2361273797224805,0.23184680460788265,66.74331077054651,12.263273661492581,-61.80417467353055
1760597427.172454,21.041697938897585,0.5106596344035167,1.2685319311080354,0.2291685942822099,69.70506934425502,7.184095847106164,-64.00132930193429
1760597427.1823747,20.368402753597522,0.5033023478885783,1.2734281849775828,0.22340048147985686,70.73120662278744,5.048216036963874,-64.91882022351507
1760597427.1923802,19.682173653134573,0.46441691002275975,1.2497884565407344,0.21459410384399183,69.6842006612401,5.985554221191086,-64.63645424960119
1760597427.2027323,18.98643110720607,0.3917229127973126,1.1998189795138763,0.20263652257055076,66.60702965443043,9.699934930266574,-63.35782310758305
1760597427.2140493,18.28285120993026,0.2876474057137167,1.128858725031344,0.18728042849563495,61.73459697403995,15.4826120149561,-61.38480338569788
1760597427.2223918,17.57194973534938,0.15966008976796953,1.044792749223537,0.16813902169280628,55.48384378188456,22.2916191432558,-59.0751003241813
1760597427.2323897,16.853946243124643,0.019678478111563518,0.9570120356100876,0.14466516071262758,48.41862005322495,28.891989464565274,-56.78986840785995
1760597427.2424388,16.129688803799542,-0.11751917984140939,0.87507022342265,0.11620285831639368,41.189752888726666,34.038738798380145,-54.841740119929106
1760597427.2523708,15.401374572438698,-0.23663915463891946,0.8072993674656748,0.0821997398430645,34.45644140871337,36.67313075983836,-53.45406515450198
1760597427.262394,14.672852096666709,-0.3244663109603526,0.7596846286413143,0.042573554345362835,28.800283097695402,36.09680684646692,-52.73892351405849
1760597427.2723696,13.949427353740976,-0.3720830530662449,0.7352265705943907,-0.001902153540591741,24.646240931064707,32.09035911676208,-52.695623067580094
1760597427.2823503,13.237258790067706,-0.3761967349178027,0.7338709059367968,-0.04938589503522935,22.2047017944317,24.953061677070636,-53.225673316010095
1760597427.292428,12.54254831858591,-0.33933294017908355,0.7529325871624228,-0.09706386582863714,21.445380241631625,15.456364252756709,-54.15723492593208
1760597427.30251,11.870773590057869,-0.26896998983542997,0.7878447781115763,-0.1415573335734154,22.108101506697984,4.721184649918422,-55.27245270682065
1760597427.3123746,11.226158301590788,-0.175938425404423,0.8330402991411571,-0.17952667265044836,23.74893337204501,-5.956502083238761,-56.33360051720591
1760597427.3223588,10.611469009290587,-0.07252285893500329,0.8828034418298071,-0.20830033458476033,25.814037484673797,-15.299128206783923,-57.106697925475565
1760597427.3323874,10.028105606000649,0.029327463957834903,0.9319795548700279,-0.22636187113318848,27.728800274266376,-22.22671808283711,-57.38286445677629
1760597427.3424134,9.476367847151653,0.11940818946838856,0.9764740473002036,-0.23357354124567622,28.986922025211054,-25.994271250388994,-56.997736504092174
1760597427.3523753,8.955759933237292,0.19018028448799917,1.013510198606393,-0.23109109642602124,29.223931696153514,-26.269942086410847,-55.84815632376133
1760597427.362365,8.465231082455684,0.23720768146955457,1.0416563934744174,-0.22101824616229926,28.262594740904078,-23.148496906135886,-53.90396349626874
1760597427.3725839,8.003311067273364,0.2591682825011431,1.060672867973203,-0.20592374065226182,26.123573308252805,-17.10570036277979,-51.21210635382562
1760597427.3823483,7.568157023725556,0.25751326260100715,1.0712465923606995,-0.18836331590231062,23.002054769180464,-8.907689174656127,-47.89102954635882
1760597427.3923867,7.157566104205804,0.23587049488017808,1.0746759736943707,-0.17051678861490452,19.217873349896642,0.5061820685977331,-44.11520367376629
1760597427.4023538,6.7690211850286195,0.19930828152110003,1.0725511414653717,-0.15399640701031916,15.151196002635507,10.148131428932059,-40.09200113747211
1760597427.4123874,6.399821701359993,0.1535767313972386,1.066465432143764,-0.13982641958503517,11.177274800191249,19.098048138616782,-36.03504160804985
1760597427.4223845,6.047312406137518,0.10441955478976044,1.0577894405931798,-0.12854748610970249,7.612128339931924,26.598626439889085,-32.13899010050695
1760597427.4323637,5.709171601783331,0.05700969817847694,1.047533569156226,-0.12037633036801966,4.677053111474105,32.12163689471954,-28.560315896597015
1760597427.4423583,5.383677208626645,0.015527202943265117,1.0363128394343346,-0.11535645085377988,2.4848350457655557,35.40151440205218,-25.406891665294758
1760597427.452359,5.069854516961108,-0.017119484460914842,1.0244082050212602,-0.11346005227041252,1.0458318232328827,36.43604606655928,-22.737078893121033
1760597427.4623563,4.767433627619884,-0.03942767784017295,1.0118970022017242,-0.11462888331519734,0.2887833261811558,35.45712090710843,-20.56678805526367
1760597427.4724355,4.47660126073746,-0.05128368918781284,0.9988102153719259,-0.11876211551517117,0.08970506950340902,32.87727156798944,-18.88151002626256
1760597427.4823673,4.197601963921005,-0.05379028495706678,0.9852723266250448,-0.12567041118738256,0.30237647763230946,29.219925416281015,-17.64982553063399
1760597427.492455,3.9303024048111785,-0.04894942376386399,0.9715906038749449,-0.13501856301097256,0.7852478210989036,25.042610480088392,-16.835378144224148
1760597427.5023608,3.673854295465885,-0.03924033362833483,0.9582787531984539,-0.1462768581971048,1.4214420135900023,20.86263394987294,-16.4053726636588
1760597427.512383,3.4265635448646843,-0.02716250838926176,0.9460172370868637,-0.1586959698169704,2.1303974995172315,17.093962092631376,-16.334847017683902
1760597427.5223765,3.1860057242139748,-0.01482626662459436,0.9355644591835277,-0.17131410298556138,2.8712491702207052,14.002314478535807,-16.606910590096387
1760597427.5323927,2.94935107732554,-0.0036618210045544514,0.9276390604706991,-0.18300004726999708,3.6391192670947943,11.683010988123767,-17.2097270064953
1760597427.5423946,2.71380743806823,0.005712797492543866,0.922795987953566,-0.19253196960706587,4.4560808865274995,10.063106840443249,-18.131290858672774
1760597427.5524056,2.4770708787502596,0.013460332132680173,0.9213196974577371,-0.19870819662249684,5.358764112636508,8.926214356376338,-19.35310352759674
1760597427.5623624,2.237686485477321,0.020353624167781737,0.9231565972591713,-0.2004817689806897,6.3845480246787725,7.955646911800064,-20.84377849908419
1760597427.5723946,1.995251294201839,0.02750708848354181,0.9279038526631838,-0.19710501841030836,7.5581489431507265,6.789537070971584,-22.553461873823462
1760597427.5823758,1.7504265340168919,0.03605900540155993,0.9348619620735487,-0.18826472214675533,8.880241595263142,5.080548123475436,-24.409792449239156
1760597427.5923676,1.5047613353603317,0.046854527714136236,0.943145530629288,-0.17418448221341432,10.319530392089463,2.552674556549164,-26.31599638187654
1760597427.602586,1.2603624033905423,0.06017697123256793,0.9518339946625596,-0.15567152383545793,11.809372364078383,-0.9517468795486705,-28.15162771184294
1760597427.6123922,1.0194709447343941,0.07556923367113601,0.9601355450359078,-0.13409207065415202,13.249591224698861,-5.440487143514458,-29.776385173698426
1760597427.6224263,0.7840265495165586,0.09177773424464382,0.9675351888232624,-0.11127213796171648,14.513495421783519,-10.759317835203863,-31.03727532741989
1760597427.6324174,0.5553055252834859,0.10683750430787571,0.9739013153159897,-0.08933500750824953,15.459354850845319,-16.601201053542237,-31.779075067472256
1760597427.6424155,0.33371471449394896,0.11829740265863607,0.9795324636115246,-0.07049754649938396,15.944819312560416,-22.536173903966255,-31.85755762035068
1760597427.6523793,0.11879734691752998,0.12355894565440091,0.9851354010799124,-0.05685154672799764,15.842184027202913,-28.05878839665245,-31.1543593505982
1760597427.6623757,-0.09053340380194771,0.12027567563173511,0.9917355927532469,-0.05015341859536234,15.05222943223868,-32.64767615243999,-29.591812285607094
1760597427.6724465,-0.29556608324953265,0.10674010667170963,1.0005301595505085,-0.051638551364973535,13.514668960020888,-35.83008766100782,-27.145690931219022
1760597427.6824594,-0.4972457400770265,0.08217939244324726,1.0127003737366482,-0.06186899003068792,11.213953080683035,-37.24341658457916,-23.85374783274147
1760597427.6923993,-0.695622563841437,0.046893441608933065,1.0292057196818811,-0.08061779653719471,8.18010682987915,-36.68600381940212,-19.818225265644504
1760597427.7023718,-0.8894212656953463,0.002200362672520482,1.050584962624622,-0.10679331236821929,4.485179149089578,-34.15094780515327,-15.201231875575584
1760597427.7124026,-1.0758524528456261,-0.04980065901588691,1.0767900145638174,-0.13841371893367024,0.23650852833550143,-29.838918687493027,-10.212852144687293
1760597427.7223663,-1.2507509799723047,-0.10658907595574843,1.107073773352714,-0.1726541145936935,-4.431839572847982,-24.14857739241642,-5.092918401260826
1760597427.732386,-1.4090541528973892,-0.16560610555254918,1.139946443960436,-0.20599457647196856,-9.368439860463772,-17.645712457485484,-0.08833176186134928
1760597427.7423904,-1.545535693224649,-0.22455132377162487,1.1732127266411136,-0.23448823166694532,-14.414179898887443,-11.014381806484565,4.571460658332501
1760597427.7523704,-1.6556200989476721,-0.2815103049268984,1.2041051231712903,-0.25414365654672644,-19.4120641638193,-4.994997703555766,8.6978670030603
1760597427.7623837,-1.736055047201952,-0.33488965443331103,1.2295264322173793,-0.2613859454030976,-24.21694497884892,-0.3152745186945349,12.162602073600816
1760597427.7724323,-1.7852429534445415,-0.3832040479668149,1.246396699781743,-0.2535358709554973,-28.704733061158468,2.379706157101449,14.910998385563639
1760597427.7823691,-1.8031236493975655,-0.4248132146041333,1.2520680186022073,-0.2292327504599496,-32.78040125055512,2.592166561733753,16.96792402434711
1760597427.7924783,-1.790626002505927,-0.45772865041645694,1.244739305602616,-0.18872684208902085,-36.383988084447296,0.025233467056864585,18.4359853147537
1760597427.80236,-1.7488236834721982,-0.47959452147149284,1.2237893190066476,-0.13398180586858058,-39.4938803793188,-5.379817185745829,19.486378918229075
1760597427.8123827,-1.6780063089807353,-0.48789947384963356,1.1899563524293117,-0.06855442086006121,-42.12688493277389,-13.42712266745791,20.343138581899805
1760597427.8224263,-1.5768990836240013,-0.4804098941814583,1.1453215352799195,0.002747482019339558,-44.33488249509214,-23.67373581239024,21.261702061620625
1760597427.8323731,-1.4422347761903525,-0.4557477269175496,1.093089708327274,0.0743924989638907,-46.19805567875896,-35.462368797121975,22.502893951630025
1760597427.8424177,-1.2688111404720939,-0.4139803378373235,1.0372003539297603,0.14077117841417383,-47.8147478503919,-47.978402934556705,24.30378645534201
1760597427.8523881,-1.0500665890692689,-0.3570563654849517,0.9818345153741557,0.1968721427837957,-49.2880644871774,-60.32745949465027,26.847637649521833
1760597427.8624027,-0.7790924013833697,-0.2889242284270305,0.9309030938809575,0.23889545031203566,-50.70964630222645,-71.62663202404912,30.236218098851808
1760597427.872412,-0.4498937420412977,-0.2152246742329397,0.887600039253571,0.26471555262568963,-52.141862207991814,-81.0992027509184,34.46891048477688
1760597427.8823597,-0.05864375191035628,-0.14255613828132163,0.8540821307762665,0.2741199973646641,-53.600889673905485,-88.16032300097974,39.43318536922793
1760597427.892382,0.3953301391231242,-0.07744152057519606,0.8313069762038694,0.2687749114864566,-55.04421938892616,-92.48092853242117,44.909753617251035
1760597427.9024389,0.9090269778068724,-0.025223820705183617,0.81903632073065,0.2519108202043945,-56.366331015259036,-94.01960694724707,50.59303522695713
1760597427.9123876,1.475813654648399,0.010856362202509809,0.8159964808372852,0.22777784564313605,-57.40524077185913,-93.01680315915179,56.12454614834052
1760597427.9223793,2.086005183918683,0.03019842159280138,0.8201730330626376,0.20096898089848067,-57.96046634466749,-89.95170656812779,61.134450393862906
1760597427.9324522,2.7278665396787463,0.034887980011111465,0.8291938951391533,0.17574002716530743,-57.820328406654255,-85.46828842620214,65.28534799058536
1760597427.942704,3.3888586731660943,0.029257092641879076,0.8407277667012848,0.15546208566225314,-56.79437154490813,-80.28191782833578,68.31229778457485
1760597427.9524152,4.056931826199481,0.019067001150223736,0.852810156722232,0.14231569956197304,-54.74583731491616,-75.0806179298902,70.05383275144729
1760597427.9624236,4.7216863490809935,0.010495188055883306,0.8640242344577894,0.13725926949350656,-51.61948873172344,-70.43505766215756,70.47007053965638
1760597427.9723701,5.375264612949909,0.009134264362459732,0.873511827612785,0.14020227030116655,-47.460803338852756,-66.72944598138737,69.64577934268463
1760597427.9823906,6.012893380375347,0.019184604143266618,0.8808492554155501,0.15025557365753842,-42.42306646070862,-64.12233080541967,67.77827898972166
1760597427.9924316,6.63305062962872,0.04295839245907143,0.8858588830023928,0.16595944132402132,-36.75968519340793,-62.542143191247916,65.15212588454716
1760597428.0023751,7.237276391930035,0.08073453588016866,0.8884271228230374,0.18546516331684976,-30.800944915622722,-61.717235615517,62.104351203404164
1760597428.01241,7.829682951930619,0.13093488942697573,0.8883788452088204,0.20669746974131512,-24.91748740473547,-61.23465786965181,58.985305874527896
1760597428.0223606,8.416247058934923,0.19054252002517708,0.8854338095303113,0.22752697902086083,-19.475985597493572,-60.617099823012516,56.12068237680229
1760597428.0323653,9.003983695461322,0.25565347846969194,0.8792469399601099,0.24595790969862777,-14.794505764919958,-59.40455573971312,53.7798497242391
1760597428.0423727,9.600104278030045,0.32204892116524636,0.869512815422657,0.26031279141946706,-11.105148703389343,-57.227124716239544,52.15422405219142
1760597428.0523815,10.211252557171665,0.38569907014011023,0.856099190582921,0.2693865490990559,-8.529861723471193,-53.85792516437163,51.34730317141488
1760597428.062352,10.842893051162218,0.44315436228526467,0.8391663127357609,0.27254882106083217,-7.0724871632322825,-49.239540033661946,51.37582732518917
1760597428.072386,11.498901515994856,0.4918159079925209,0.8192311142440789,0.26978560867994344,-6.626994469516251,-43.48251237578092,52.17989631654615
1760597428.0823784,12.181373626365817,0.5300886253007677,0.7971522025810153,0.2616784699928873,-6.999149554679583,-36.83908275631536,53.63906210063754
1760597428.0924125,12.890630324104121,0.557415122754058,0.774037659109127,0.2493225203891617,-7.937078776051354,-29.658872172807545,55.59135716461798
1760597428.1023684,13.625368233853273,0.574188676866131,0.7510984808530436,0.23419000239662757,-9.165450178029035,-22.33521752216449,57.85265491953619
1760597428.1123786,14.382892455760857,0.5815583205208423,0.729479368490319,0.21795446699375845,-10.41818605142592,-15.251337033537222,60.23439100179454
1760597428.1223605,15.159377251299098,0.5811604013734063,0.7101012472158306,0.2022978161944344,-11.46546116148193,-8.734613740579823,62.55827612208942
1760597428.132425,15.95011914593187,0.5748281903847087,0.693549947420508,0.18872609709519078,-12.132010275388591,-3.0252356033120207,64.66713627792845
1760597428.1423821,16.74976802895798,0.5643370574893892,0.6800380793029941,0.17841876404483742,-12.305334481382507,1.7375603278701248,66.43149478639708
1760597428.1523864,17.552539245590665,0.5512330962425113,0.6694491754200333,0.172129581770941,-11.934113325091502,5.511914129664123,67.75202646614723
1760597428.1623538,18.35241932808451,0.536767746692965,0.6614497044168335,0.17014617762849701,-11.018751045115671,8.336065568228909,68.55853057404613
1760597428.1723928,19.143377238168874,0.521927060122873,0.6556350011902721,0.17230270488825228,-9.597148531334053,10.303330042240892,68.80647084575098
1760597428.1824214,19.919582757519667,0.5075154431688292,0.6516675303060631,0.1780318598932853,-7.729181138887549,11.535944454018319,68.47229728728003
1760597428.1924572,20.67561945268769,0.4942432092941954,0.6493727408628555,0.18644139478462554,-5.482945660491331,12.163309191713696,67.548645628745
1760597428.2023666,21.406668903649773,0.4827792115957871,0.6487747660783136,0.1964026211799975,-2.924890197756282,12.307880034770852,66.04017619173509
1760597428.2123857,22.108641009343838,0.4737570480870762,0.6500734243153088,0.20664028652536673,-0.11479826024603214,12.079402552142113,63.960417949336104
1760597428.2223818,22.778232966633233,0.4677512767709689,0.6535780578638867,0.215815585210571,2.8944934655937287,11.576125560643542,61.329666457978504
1760597428.2323713,23.412912669555336,0.4652522991890596,0.6596176422571693,0.2225988573844591,6.053645273308336,10.89050658480553,58.17379530597902
1760597428.24238,24.010833322660982,0.4666554894354924,0.6684397862070448,0.22573474638559077,9.311216091216021,10.116722526502137,54.52372680146009
1760597428.252394,24.570689223411577,0.47225074952195484,0.6801011419484686,0.2241075288577484,12.607783426067849,9.357695553427384,50.41518414213575
1760597428.262363,25.09151848057644,0.4821790709211924,0.6943506473731662,0.21681550971914557,15.87166630725671,8.72993301898779,45.88820398419003
1760597428.2723784,25.57245342794587,0.49633329185038366,0.7105204475480738,0.2032598540205198,19.017888185231122,8.364996101410634,40.985821912752954
1760597428.282363,26.012421183220376,0.5142155238792532,0.7274587913930113,0.18324629142676152,21.95149121759857,8.406793716903412,35.75147163992905
1760597428.2924187,26.409808535270965,0.5347992885759797,0.7435495333366688,0.1570899979092058,24.57554776860241,9.004218436908285,30.22499709871045
1760597428.302395,26.762124352325177,0.5564597105255605,0.756854650149842,0.1257065056806478,26.803304392436754,10.299019332564429,24.437707359638875
1760597428.3124208,27.065711706528965,0.5770250986450368,0.7653893697621341,0.0906667537192097,28.57295833349671,12.40937084843001,18.40749296088846
1760597428.3223858,27.31557254743129,0.5939741724993813,0.7675012913503066,0.054194406526211956,29.862743371964097,15.41043986651367,12.13549542248911
1760597428.3323936,27.50536433831436,0.6047651663007577,0.7622883235445015,0.019088805400169235,30.70345060353876,19.314336723937718,5.605977947766789
1760597428.3424182,27.62761033551303,0.6072462966640073,0.7499697186609405,-0.011433778709408569,31.185401019567294,24.052909355368207,-1.2092467338302761
1760597428.352405,27.674137597509944,0.600070092158004,0.7321265605223173,-0.03397646662153915,31.457367271153498,29.467483868523423,-8.341230239810052
1760597428.3623927,27.636724737069954,0.5830229609869846,0.7117486261318888,-0.04526093379397538,31.716056319939447,35.30945439630604,-15.809656909112176
1760597428.372417,27.50790940990275,0.5571904207677918,0.6930551404022465,-0.042467933570037274,32.1863580824202,41.25437747683454,-23.60569983610747
1760597428.3823981,27.281878527608423,0.5249077849724758,0.681091069078345,-0.023594380703108896,33.094290838718706,46.93008453017336,-31.674672323434585
1760597428.3924313,26.95534708557763,0.48948815873476414,0.6811339269313074,0.012202517171522402,34.63602851357753,51.95677796826679,-39.90164564677106
1760597428.402439,26.528326209243026,0.45476153364950594,0.6979751755449118,0.06431394994406127,36.94724663623295,55.994733770660815,-48.10311015395359
1760597428.412404,26.004685318843116,0.42448901996965827,0.7351626571104152,0.13049415811116027,40.07708306770485,58.79355385922464,-56.027214939483535
1760597428.4223804,25.39242325040847,0.401729048949531,0.7943034938435559,0.20684091939981625,43.970304647349025,60.236064665064994,-63.36425104880909
1760597428.432394,24.703577387265256,0.38823203904486603,0.874526580388922,0.2879931969320692,48.46009063294615,60.36990878144149,-69.76792446179665
1760597428.4424105,23.953722022253356,0.3839393038754674,0.9721902345173923,0.3675706582727987,53.27261601237501,59.420530151719326,-74.8866455208684
1760597428.4524024,23.161042936177143,0.38666897453429633,1.0809027937523508,0.4388359120972186,58.043657607317954,57.78054228805097,-78.4025689803312
1760597428.4623911,22.345026354473617,0.3920800236366116,1.1919089121041564,0.4955012682412887,62.346775602781605,55.97245081613841,-80.07454121146704
1760597428.4724085,21.524862931232878,0.3939992156521565,1.2948712067454893,0.5325385257909788,65.73201172523248,54.58462314600731,-79.7796399951408
1760597428.4825828,20.717732610374412,0.3851597641372679,1.3790273379987574,0.5468142683557792,67.77322350501107,54.184504681467516,-77.54686103518942
1760597428.4924119,19.937191604757754,0.35832865906244465,1.434624516008141,0.5374027376071246,68.12098012850197,55.218218701350025,-73.57602029100198
1760597428.5023916,19.191912086924475,0.3077007689929664,1.4544427910892674,0.5055231961418075,66.55630094229308,57.911038920761776,-68.23560397647489
1760597428.5123887,18.48501073665071,0.23033227332452552,1.4351382620831914,0.45415563286332733,63.03852063313177,62.18733546500039,-62.03571348405724
1760597428.5223873,17.81412961657342,0.12730083411224527,1.3780984852085663,0.3874569433855724,57.73874289554854,67.62970114907921,-55.57671104912358
1760597428.532378,17.17230032021352,0.0042527768816565965,1.28954306412582,0.3101263098222301,51.049636142895935,73.49361745782777,-49.48005121921065
1760597428.5423734,16.549453386644963,-0.12892788489805562,1.1797457321727791,0.2268684040359553,43.56374782485566,78.78570522206482,-44.313192109995725
1760597428.552404,15.934281511575662,-0.25939882801376324,1.0614764412371447,0.14206848570114156,36.01677244515227,82.40106671567577,-40.522854987763154
1760597428.562371,15.316089422441701,-0.37338515769684955,0.9479837660830374,0.05971035262209441,29.199111236307665,83.30071096288353,-38.3886277428075
1760597428.5723789,14.686302478186073,-0.45850402903575793,0.8509632900034484,-0.016543926973204066,23.846987626264983,80.69739656379774,-38.00273074441971
1760597428.582414,14.039443919475685,-0.5058348142399385,0.7789383918082623,-0.08327592101352659,20.53073798851954,74.21193938799041,-39.274554380061666
1760597428.5924273,13.373563350956758,-0.5112660990173014,0.7363421185659003,-0.13739267788140205,19.56055133379438,63.96533310805283,-41.953542650863746
1760597428.602509,12.690231629511906,-0.47588354343922634,0.7233977708620821,-0.17642842256641056,20.928225364385217,50.58507067760134,-45.662799398462106
1760597428.6124127,11.99426371571902,-0.4054368799460807,0.7367105706278889,-0.1989920156295926,24.29799960936641,35.1234180869732,-49.93789564246123
1760597428.6223903,11.29329242170832,-0.3091322592282861,0.7703442258579575,-0.20519249326439556,29.05120093466422,18.905158558931443,-54.268663446532756
1760597428.6323888,10.597233552430701,-0.1980830793647122,0.8170917026733597,-0.196861884643923,34.379398144313825,3.336593103075324,-58.1439183207213
1760597428.6425138,9.917611581125055,-0.08373038774570404,0.8696685023170232,-0.17745349916146022,39.41063959829238,-10.287003610500763,-61.09873156189314
1760597428.652413,9.266692916362302,0.023535171733627708,0.9216407673147106,-0.15159217799103403,43.345614545035104,-20.94187704821555,-62.76141665960209
1760597428.6623843,8.656406773177475,0.11540305232123259,0.9680081972102587,-0.12435659185190528,45.57786818578796,-27.981138650553667,-62.894432472807516
1760597428.6724553,8.097101929250366,0.18624672240592258,1.0054528295900211,-0.10045340328275434,45.7758206242293,-31.17577682428259,-61.421832503676036
1760597428.6823735,7.5962638951784145,0.23328615070856254,1.032319685953036,-0.08347574703138069,43.913333260874225,-30.695500683030314,-58.43686616647972
1760597428.6924303,7.157378038870629,0.25635961498116794,1.0484135200663092,-0.07541394790432353,40.24714661641179,-27.04313975001235,-54.18677780514888
1760597428.702419,6.779152751225375,0.25741861440706865,1.0546864610166642,-0.07651413093007679,35.25039129815196,-20.96058776241361,-49.036562838454536
1760597428.7124279,6.455300476270063,0.2398950254941992,1.0528695038613902,-0.08548568827082019,29.519000514114214,-13.323730766563552,-43.417860668929805
1760597428.7224061,6.175006461306595,0.20808058928387899,1.0450849343317092,-0.09997237670379314,23.67097510710248,-5.040274479625156,-37.77206423463099
1760597428.7323995,5.9240969138292,0.16661038989480206,1.0334774836917333,-0.11714971362282628,18.257008046298733,3.039996223376882,-32.49745162217993
1760597428.7424326,5.686766122394895,0.12007639036991244,1.019911897541755,-0.13430481281082413,13.695862299372145,10.196755389577412,-27.908606018088552
1760597428.752405,5.447574905369512,0.07274313254087421,1.0057841043176516,-0.14928767645977212,10.240826970086516,15.889373974851349,-24.21311112746621
1760597428.76244,5.193347359789604,0.0283192090482101,0.9919702310893047,-0.1607755338054591,7.976625110544446,19.784656048184768,-21.506508477642754
1760597428.7724328,4.914613187471277,-0.010241992757651336,0.9788999488376232,-0.16834223615307178,6.840941916153757,21.762501592789576,-19.782892656474516
1760597428.782381,4.606364041047515,-0.04090349180327912,0.9667078263495872,-0.17236024597412483,6.661952560870826,21.901493076467563,-18.95613387611799
1760597428.792416,4.2680624500658855,-0.06263703963403477,0.9554039819926888,-0.1737822163207108,7.202686224854839,20.4477764156048,-18.885934745594952
1760597428.8023891,3.9030005973485213,-0.0754174472056562,0.945015111003249,-0.173857285550301,8.204187676506354,17.771596945509916,-19.403627493941162
1760597428.8124876,3.5172160663250027,-0.08010729965746546,0.9356693395493335,-0.17383809491060512,9.421566043023436,14.316397626582583,-20.3342535282995
1760597428.8223948,3.118220717302186,-0.07824195414908224,0.9276207219116643,-0.1747289521686014,10.649548592848433,10.545540507946788,-21.5133185161162
1760597428.8324425,2.7137913894454226,-0.07174262216914179,0.9212235738698656,-0.17711299401606098,11.73658779728839,6.891550502493878,-22.798097978863733
1760597428.8424041,2.3110204183776903,-0.06259657987827325,0.9168725281360781,-0.18107820655362128,12.58853269814158,3.712338373870669,-24.074218930338947
1760597428.8523946,1.915745890463017,-0.05254850289240988,0.9149249049976418,-0.18624277485506724,13.164161824781527,1.2581327658394064,-25.258508766301006
1760597428.862406,1.5323909873541828,-0.04284703653312688,0.9156211320506084,-0.1918633270423792,13.465453969952017,-0.34814917471373713,-26.298997103639497
1760597428.8724005,1.1641536665004935,-0.03408577553373422,0.9190175394860249,-0.19699716909306947,13.525450688707696,-1.1155932457968232,-27.172715613950885
1760597428.8824847,0.813418185797159,-0.02616639849122667,0.9249433335293278,-0.2006825964191496,13.396104600411482,-1.1749490039339163,-27.88173125266579
1760597428.8924131,0.4822220481759035,-0.0183939008357627,0.9329893716556746,-0.20210129606048308,13.137780408139653,-0.7546687202199772,-28.447736213273505
1760597428.902714,0.1726123271471699,-0.009692426387467788,0.9425309647109957,-0.20069463001361396,12.811243608133822,-0.1461949173830942,-28.905499363078977
1760597428.912414,-0.11323768996671837,0.0010909673329368924,0.9527816087624539,-0.19621940698611698,12.4721908632833,0.33738848189123133,-29.29553477548463
1760597428.9226322,-0.37321587660633526,0.01484428377207654,0.9628705519863636,-0.1887442613966065,12.167788707326384,0.4043978576010347,-29.656442450591463
1760597428.9323857,-0.6057487340588243,0.031869305438050013,0.9719348045654715,-0.1786006509443414,11.934400381552074,-0.17589586261868514,-30.017497942529797
1760597428.9424553,-0.8104796441821253,0.05163962093179771,0.9792153165496679,-0.1663102610420551,11.795728795446228,-1.5419511413606182,-30.39217084075378
1760597428.9524033,-0.9890003018815298,0.07268681598754112,0.9841474212073255,-0.1525124241941533,11.760929269779828,-3.720595234343726,-30.773294012987456
1760597428.9624116,-1.14545625938629,0.09264669556321176,0.9864370905086426,-0.13791135773244134,11.82271687619847,-6.621861165242487,-31.130558844342605
1760597428.9723837,-1.2868491679837601,0.10847458558298055,0.9861161904352752,-0.12325500128717941,11.955943922259163,-10.048559618592087,-31.410867299497333
1760597428.982379,-1.4228964726683653,0.11681123898785223,0.9835706848632915,-0.10934696454443434,12.117396482016053,-13.71941770063706,-31.541831493486715
1760597428.9923854,-1.565381847601401,0.11445184846932453,0.9795356062202489,-0.09708226501150352,12.247552214051744,-17.30310919252701,-31.438387456191638
1760597429.002395,-1.7270252266235826,0.09884662061087855,0.9750508534465869,-0.08748743842683504,12.274743658272651,-20.459315560622965,-31.012104703047562
1760597429.012439,-1.9200000114690499,0.06854963053844927,0.9713741348031641,-0.08173799840556609,12.121660302740517,-22.882157518248448,-30.182355081586024
1760597429.0223958,-2.1543049205639666,0.023537255090915005,0.9698525933786002,-0.08112399666834882,11.713529999110145,-24.340989574387415,-28.88808518328398
1760597429.0323822,-2.4362423899449452,-0.03466288742424453,0.9717624911873821,-0.08694069273753323,10.986794616827822,-24.713748383047918,-27.098574264447457
1760597429.0424297,-2.7672565028004024,-0.10306158564545892,0.978135380581283,-0.10029703961781558,9.896787631082383,-24.00884199899287,-24.821362925580896
1760597429.0524004,-3.143340163460082,-0.17751016197356026,0.9895974168331516,-0.12185704628476822,8.422961110267979,-22.37286847041403,-22.105635712616564
1760597429.062495,-3.5551375645181795,-0.25317309056390735,1.0062526812527666,-0.1515526581654914,6.570632882836316,-20.083020880703216,-19.03979662089623
1760597429.0724037,-3.988753866722554,-0.3250977364326861,1.0276375338587984,-0.18832576360474546,4.368904585594026,-17.524617682599818,-15.742742523612499
1760597429.0824234,-4.427158344838569,-0.3887874913713197,1.0527598973279522,-0.2299653432862512,1.8650822311212638,-15.155629966372198,-12.349291149103319
1760597429.0924067,-4.851956299924806,-0.44068190059226503,1.0802202338547278,-0.2730977784145015,-0.8836011849337289,-13.461287062188113,-8.991203153550902
1760597429.1024222,-5.245233672966268,-0.478466144094246,1.1083978462814947,-0.3133624745336213,-3.8199208610441584,-12.902797001224164,-5.776103609583523
1760597429.1123965,-5.591162581000663,-0.5011699538596995,1.1356791769322034,-0.345768611739933,-6.897044370537875,-13.86491772981722,-2.76724748753708
1760597429.1224668,-5.877103630836824,-0.5090631553211804,1.1606979168715748,-0.36519457779546166,-10.087932458176985,-16.60758514442235,0.03259114485585309
1760597429.132433,-6.0940503643542705,-0.5033987531749409,1.1825443685922232,-0.3669683084290122,-13.39209588348217,-21.227060981599497,2.689888281140644
1760597429.1424983,-6.236412704235901,-0.4860833298452653,1.2008891225458853,-0.3474556269179172,-16.837994078808812,-27.63202394192225,5.339155165556867
1760597429.152383,-6.3012883173224905,-0.4593593030678554,1.2159695449653491,-0.30458239963095896,-20.479633345789058,-35.53942419706197,8.170265064982402
1760597429.1623886,-6.287476077130544,-0.42555947054096466,1.2284185237399812,-0.23822304946225395,-24.386587461506835,-44.4933580345325,11.404583471904951
1760597429.1724389,-6.194514060426331,-0.38694785810396093,1.2389667126072232,-0.1504008725869193,-28.62777661302758,-53.907397620508696,15.262316641694317
1760597429.1824222,-6.02197423811186,-0.34561465227178756,1.2480995293355515,-0.045262606159413334,-33.25089979175725,-63.126837486170615,19.925708237054014
1760597429.192428,-5.769141863536575,-0.3033762584793572,1.2557767489156617,0.0711889472656648,-38.2611139171056,-71.50300171480379,25.504342298532958
1760597429.2024317,-5.435088988537129,-0.2616585992390501,1.2613171230388347,0.19159285171361415,-43.60367711523391,-78.46857499661336,32.00909888150406
1760597429.2124891,-5.019056585778099,-0.22139408334256397,1.2635135694701858,0.30791512035876856,-49.15507719467358,-83.60227094795144,39.33989439945917
1760597429.222424,-4.52100988946522,-0.1829967000114251,1.2609758630908778,0.412246483720021,-54.72545035048846,-86.67331210720727,47.289571367882594
1760597429.2324257,-3.942225879123584,-0.14646039582070228,1.2526010393604503,0.49761127227827834,-60.07244135724794,-87.66016680039097,55.563043422132324
1760597429.242438,-3.285793756822023,-0.11155938707902557,1.2379828366595276,0.5586688573634351,-64.92411574524625,-86.74233064290374,63.807988202721
1760597429.2524111,-2.556940709245162,-0.07806602322397704,1.2175696105691547,0.5922048365034129,-69.00698788231227,-84.26769850825465,71.6517262447351
1760597429.262407,-1.7631274850797707,-0.045896428694972354,1.1925100958545207,0.5973744850504328,-72.0748475971,-80.7010288005637,78.73871248873824
1760597429.2724242,-0.9138909237151716,-0.01514651286618814,1.1643015662241216,0.5757370998143798,-73.93440517164963,-76.56119884244322,84.76400778908923
1760597429.2824192,-0.020442591019268513,0.013963110990106626,1.1344260157609474,0.5311288006459948,-74.46445666470589,-72.35610530245356,89.499515838832
1760597429.292529,0.9049396920385017,0.041196123828627765,1.1040947498020874,0.46934953923007,-73.62635790860642,-68.5237265152716,92.8110904404719
1760597429.302416,1.8496683764041548,0.06643250694046827,1.0741239056970204,0.39758679699165356,-71.46514708395213,-65.38610232146857,94.6656510622229
1760597429.3124144,2.80167242023035,0.0897937792183144,1.04491835782426,0.3235636794954727,-68.10228152077681,-63.12051902413273,95.12830422366685
1760597429.3224156,3.750199232819227,0.11172336274610924,1.016537516013922,0.2545445812490558,-63.72202555999375,-61.749757296516,94.35032612696371
1760597429.332437,4.686492030959152,0.13298350139854095,0.9888137863487201,0.19642349275392607,-58.553779010761644,-61.151137295222945,92.54974286565164
1760597429.3426192,5.604251569250808,0.15455022524406423,0.9614895895982808,0.1530910263259673,-52.852405577626854,-61.08220274135879,89.98699157543471
1760597429.3524885,6.499818603919424,0.1774235118051798,0.9343442329622085,0.12617296599026537,-46.878374644675986,-61.219203657907826,86.93856804017535
1760597429.3623896,7.372056124549484,0.20240311183374848,0.9072927728390386,0.11513017447378814,-40.87934489094943,-61.20322620826201,83.6715790884955
1760597429.372427,8.221959325531401,0.22989381251289212,0.8804441263640029,0.11764399077695313,-35.07452198122393,-60.68807519425591,80.42175731978676
1760597429.3824968,9.052063502205446,0.25979139222626413,0.8541064167327493,0.13018372660096844,-29.64268369958954,-59.38397052837902,77.37685846909974
1760597429.3926375,9.865744492735516,0.2914706978566638,0.8287336342042608,0.14864945260049375,-24.71428898249683,-57.091831573821366,74.66655132630868
1760597429.4024494,10.666509814771436,0.3238661578256582,0.8048238970182411,0.16899176304996757,-20.367655673337538,-53.72434620617653,72.35903655395788
1760597429.4124,11.45736685868222,0.3556161855233865,0.7827992030498739,0.1877277062651944,-16.628890714350092,-49.31196586698024,70.46384133167234
1760597429.422389,12.240336269131188,0.3852409130274342,0.7629065490441402,0.20229925461584158,-13.475170669746406,-43.994122668891386,68.93967778178141
1760597429.4324505,13.01615947457973,0.41133189569526324,0.7451722752651135,0.2112525141812936,-10.841064080313977,-37.99793251119334,67.70597656083478
1760597429.442589,13.78422886865325,0.43274078304074487,0.7294189745414656,0.21424271220665053,-8.627679900669106,-31.608039911178057,66.6566413582858
1760597429.4524148,14.54274362222224,0.4487518715811047,0.7153314163500124,0.2118874502229394,-6.714324300877667,-25.131911162828267,65.67459096205101
1760597429.4624107,15.289061477389737,0.45921260901010424,0.7025480108156879,0.2055031335707951,-4.971989785199703,-18.864953773619515,64.64568854628828
1760597429.4724069,16.02018163411568,0.46458861084802167,0.6907569384294563,0.19677215271486126,-3.277498997904402,-13.059583173545777,63.47072869271611
1760597429.482413,16.733266853174513,0.4659171841448044,0.6797805928539492,0.18739939428747618,-1.52669887120381,-7.901825259653229,62.07434626835005
1760597429.4924436,17.42610502320262,0.46465681809876047,0.6696339749787225,0.17881865107439682,0.35502934481405746,-3.4980969811054585,60.41008417892695
1760597429.5024464,18.0974252823278,0.4624599613550871,0.6605468877470755,0.17199752582462183,2.4063813879054767,0.12666258674137948,58.46138458325445
1760597429.5125453,18.74701631509264,0.46091968176489173,0.6529481467858349,0.16736547200874521,4.628625484634002,3.020195767335331,56.23885433729741
1760597429.522437,19.375635335217336,0.46134822781769386,0.6474178604748502,0.1648607447975681,6.988917088072988,5.285963022124822,53.77467585999135
1760597429.5324094,19.98473626126613,0.4646344255146652,0.6446177419223131,0.164065650149294,9.427622863975406,7.061767795162603,51.115380874716756
1760597429.5424085,20.576077150639733,0.471201629735059,0.6452104691530279,0.1643811477286947,11.868290247007295,8.498123740881779,48.31430948772682
1760597429.552548,21.151284869059193,0.4810583660352999,0.6497782578800936,0.16518703501394535,14.228562734520777,9.740061296499135,45.42492063848139
1760597429.5624027,21.711456811443536,0.4939101233013824,0.6587471904147081,0.16594686355503535,16.43027105880861,10.914954591596866,42.4957422196189
1760597429.5723882,22.256865292953062,0.5092887796337673,0.6723186235965644,0.16624379322094385,18.40718584432229,12.127459228194319,39.56726023934929
1760597429.5824049,22.786802679959646,0.5266566489799561,0.6904065527261144,0.16576187684572521,20.109493392403557,13.461086829709627,36.67058249642434
1760597429.5924668,23.299571454552485,0.5454538167085591,0.7125832012095898,0.1642439153559467,21.504848043564234,14.984574844480436,33.82737177262132
1760597429.6024008,23.792594227718613,0.5650780730349547,0.7380421674574751,0.16145777748892812,22.57667300062414,16.760264131884778,31.050373026476073
1760597429.6124074,24.262603119171683,0.5848111963629479,0.7655931046417627,0.1571916316745615,23.321012096798533,18.85134831888178,28.34386992889321
1760597429.6223886,24.70586573195163,0.6037250241433354,0.7936995773937106,0.15128149886146589,23.743508120481806,21.325195578478347,25.703584647257035
1760597429.632394,25.118408817166003,0.6206085881052914,0.8205640606495909,0.14365866787167683,23.857924583427447,24.250875267936607,23.11584341006606
1760597429.6424458,25.496205510526835,0.6339529380420013,0.844256715175135,0.13439610064891258,23.687083396906562,27.69027840890431,20.556198761846534
1760597429.6524003,25.835299650888622,0.6420171432805234,0.8628802602526335,0.12373539794460955,23.26630321334582,31.683515982025106,17.988023364197502
1760597429.6624203,26.131855430709294,0.6429814968480718,0.874759757758057,0.11208642001067176,22.64857763196111,36.23046032915461,15.361762535520533
1760597429.6724381,26.382141928187842,0.6351760124093719,0.878642235463659,0.10000279586421289,21.910031435857462,41.27130765576096,12.615500183400348
1760597429.6824007,26.58248256806076,0.6173577799572331,0.8738894463304585,0.08814274108515316,21.153826277554288,46.66980777798456,9.677292784025795
1760597429.6924393,26.729210222984936,0.5890010716435288,0.8606483956335979,0.07722623033568783,20.510755252237637,52.20320195670387,6.4694551905989375
1760597429.70241,26.81866665419454,0.5505580787113074,0.8399838564197433,0.06799936861934767,20.13522358412267,57.56277895340397,2.9147322027433082
1760597429.712422,26.847275294489624,0.5036455699590159,0.813951522246476,0.06121431218536754,20.196015659045397,62.36814948727143,-1.055881031370237
1760597429.7225263,26.811705181358718,0.4511151398844009,0.7855842953072499,0.05762583673357206,20.862059218878386,66.19675199548614,-5.493991583884215
1760597429.7324526,26.709132344792067,0.3969724732791529,0.7587654987073833,0.05799435107240828,22.284235736529748,68.62781032741707,-10.423734483128579
1760597429.742502,26.537590181590293,0.34612273377504343,0.7379738211916985,0.06307467527999747,24.575087527302195,69.29726720336647,-15.83139671061591
1760597429.7524195,26.296379801575366,0.30393411487778527,0.7279016021031472,0.0735662674528281,27.78892850972497,67.95756089191585,-21.655838847642894
1760597429.7624183,25.986486195747887,0.27563162876053765,0.7329670066324826,0.09000816576126106,31.905220809264108,64.53397130472418,-27.781448406774196
1760597429.772425,25.610922059279428,0.2655608110379109,0.7567593071712215,0.1126210969037946,36.817982283103454,59.16812605386796,-34.03587164888559
1760597429.7824144,25.174907046660756,0.2763946377127464,0.8014702294944952,0.14112460606862826,42.33336900185456,52.2395903268354,-40.19482737593593
1760597429.7924345,24.685794455602988,0.3083895306984408,0.8673710152502133,0.17457812569171996,48.17652128936188,44.35847056994515,-45.99568568809297
1760597429.8024142,24.152684064215393,0.35882048684719514,0.9524011907773109,0.2113002396480078,54.007547510276176,36.32538999587067,-51.160189972544586
1760597429.8124201,23.58570822390141,0.42173607453797585,1.0519479819461548,0.24890515754759937,59.44548543374067,29.059474167804165,-55.42490843591978
1760597429.8224478,22.99504223412189,0.4881631380985715,1.1589083214547564,0.28446589284160134,64.09843246968987,23.49952288288373,-58.576051787860536
1760597429.8324394,22.389757588808685,0.546846810751092,1.2641201106093052,0.31478366607768615,67.59776170772808,20.487846413900897,-60.4836077971782
1760597429.842437,21.77669199448841,0.5855294792183916,1.3572093732744777,0.3367251061932857,69.634247374652,20.64989591565866,-61.12878048966154
1760597429.8524323,21.15953818527635,0.5926627665312676,1.427821281824861,0.34758580634049924,69.99370724674147,24.285449325201718,-60.61884797009716
1760597429.8624203,20.538344749419608,0.5593301519437172,1.4670991725174407,0.3454395219635426,68.58918014101539,31.288306269214896,-59.18492311088794
1760597429.8732452,19.909572957523793,0.48106041190559984,1.4691751933298685,0.32941974573431176,65.48573191441669,41.11059802300062,-57.16064265822311
1760597429.882457,19.266766437365902,0.3591607398767932,1.4323711147912426,0.29985902662838676,60.91310950118885,52.78419181746234,-54.943240735425135
1760597429.892429,18.601775218720643,0.20121776091251034,1.359804301132084,0.25822173950387683,55.26117688317708,65.00478953231503,-52.942207919475294
1760597429.9024284,17.906353518104748,0.02052651003218334,1.259175527374554,0.20683997368779375,49.05386639972036,76.2745959520436,-51.5238096219242
1760597429.912428,17.173857139701695,-0.1655773397662384,1.1416945251630506,0.14856059028095647,42.89967800113351,85.08841779869121,-50.96095144230965
1760597429.9224446,16.400739928599865,-0.33822177220235883,1.02033925602074,0.0864480277114316,37.420770203939405,90.13805878022741,-51.39659098968644
1760597429.9324148,15.587604365435942,-0.47982720302587356,0.9078451180176337,0.023624182397457966,33.168058279721016,90.50330739037895,-52.82565557948316
1760597429.9424431,14.739673991174797,-0.5766523460729698,0.8148776721558524,-0.03678686428785273,30.535218829509738,85.79672052480188,-55.09665439609932
1760597429.9524305,13.86667519629701,-0.6205581464102365,0.7487398936284332,-0.09172037622836154,29.688086809709063,76.23498475292536,-57.931130064616546
1760597429.962419,12.98220210490743,-0.6097399592560401,0.7127783048455383,-0.13834178122285704,30.52568052251111,62.621622696602905,-60.95728764824403
1760597429.9724662,12.102677365230035,-0.5484528280848304,0.7064737447412782,-0.174347450159644,32.68430740486789,46.24210571220259,-63.75346781750048
1760597429.9824007,11.246024355786412,-0.4459568997866108,0.726078492573789,-0.1983216402379916,35.5879833459187,28.68926238142192,-65.897110552748
1760597429.9924452,10.430155571904015,-0.31499353815188336,0.7655970759772242,-0.21002835969626313,38.53889370742019,11.649757224738963,-67.01480819096982
1760597430.0024545,9.671380194476276,-0.1700803531099525,0.8178951179069477,-0.2105298488631314,40.83288640430189,-3.3120162432945395,-66.82852135761956
1760597430.0124447,8.98285216011724,-0.02583803749677193,0.8757485918139924,-0.20207250703109664,41.87868963659782,-14.938837773534349,-65.19223543152513
1760597430.0224283,8.373211927326087,0.1045094005789242,0.932700326253736,-0.18774169203431382,41.29735382358235,-22.409633306377657,-62.113115439286396
1760597430.032429,7.845598329554947,0.21035609804539762,0.9836520666002414,-0.17094789092806487,38.981656148635835,-25.400420205002057,-57.75250054412154
1760597430.042419,7.397196603774855,0.2845641404415649,1.025171456006897,-0.1548572740880384,35.103758107856436,-24.07788545192348,-52.405154478198604
1760597430.0524228,7.019433603220808,0.3238689644062126,1.0555290253543492,-0.1419012014950707,30.071194023967728,-19.0361506509587,-46.45940672373543
1760597430.06242,6.698838688864514,0.3288169341308761,1.0745071710450362,-0.13347786060582428,24.442946177443087,-11.192825945900584,-40.344899402052896
1760597430.0724285,6.418479790785381,0.3032772386676661,1.0830461781447225,-0.1298996298330349,18.82555150095656,-1.6620237134779592,-34.47726733025316
1760597430.0824604,6.159787169438515,0.2536294357022861,1.0828088768915942,-0.1305666238563146,13.771722976555212,8.37898523499281,-29.209400484382897
1760597430.0924277,5.904520038541135,0.1877681516122846,1.075750173066824,-0.1342900048292562,9.700750686736647,17.814996582433185,-24.796968747221307
1760597430.102407,5.636626581293245,0.11408016210435107,1.063767136449052,-0.13966559259762729,6.8527062677260915,25.698331134743775,-21.382338850844707
1760597430.1125164,5.34378694420112,0.04053032368560177,1.0484789292785208,-0.14540865037001158,5.279705162616888,31.326276799669678,-18.996927345788006
1760597430.1224296,5.018488323520646,-0.026052669851288637,1.0311481600328898,-0.15059095672890818,4.869508551086481,34.28608366325419,-17.578475107391142
1760597430.1324222,4.6585414085916375,-0.08045265792622518,1.0127178209545036,-0.15475469964388505,5.391274214405101,34.466865645982615,-16.997518889160407
1760597430.142429,4.2670023677412,-0.11930827285342953,0.9939142784865638,-0.15790464109771202,6.551081041310697,32.040998843582535,-17.08679914758968
1760597430.152446,3.851519285436401,-0.14114878562614014,0.9753635584813843,-0.16039970405818502,8.045720599375716,27.41997720113522,-17.668268120121866
1760597430.1625202,3.4231822900888678,-0.14626005384841356,0.9576816222885032,-0.16277933291702645,9.606207858612457,21.191147072107988,-18.574195952246924
1760597430.1724312,2.9950210004900986,-0.13641695875948465,0.9415190371970806,-0.16556784521368412,11.026328041766988,14.042505653654079,-19.66095799681868
1760597430.182447,2.5803498278238655,-0.11451614366845263,0.9275570510698392,-0.16909946767201875,12.17527471586752,6.683103874443468,-20.815839398252898
1760597430.1924226,2.191192434341293,-0.08414312968792047,0.9164624648125332,-0.17339775200114566,12.996334911268319,-0.23331631303695904,-21.95826532385974
1760597430.2024746,1.8370035639572284,-0.04911323980188812,0.9088146894641785,-0.1781285414326172,13.495314896110981,-6.174093694529965,-23.037232028271095
1760597430.2124453,1.523844705662802,-0.013033379303353465,0.9050220193950037,-0.1826299922105402,13.722999400835848,-10.77637411230457,-24.026591529243344
1760597430.2224224,1.2540755686067413,0.021065675194878807,0.90524532707648,-0.18600973088910924,13.755649778074691,-13.87407965994623,-24.919489362606377
1760597430.2325842,1.026526294105547,0.050984887901950764,0.9093452581099177,-0.1872894626516191,13.67671639792779,-15.500898981434972,-25.72283164115105
1760597430.2424645,0.8370422772834731,0.07547591345537767,0.9168641249481873,-0.1855715754280488,13.561894093477576,-15.869914028487157,-26.452235127637213
1760597430.252487,0.6792556381114138,0.09421854673255829,0.927047755919512,-0.18020063518366614,13.468632349953195,-15.33319864436947,-27.127550545293836
1760597430.262437,0.5454336883072367,0.10767052088449884,0.9389067910307607,-0.1708948079271324,13.430374623780018,-14.32697226353506,-27.768821715779307
1760597430.2724376,0.4272792916846724,0.11682046609946659,0.9513118736395116,-0.15782733008682237,13.455205037266456,-13.309427783642453,-28.392503267636158
1760597430.2824411,0.31660102618364355,0.12288750205751306,0.9631134328225265,-0.1416456418616011,13.52820778347749,-12.699014868958175,-29.007887283327204
1760597430.2924309,0.20581737269147768,0.12701445474336331,0.9732744560817284,-0.12342562343829475,13.616631567445728,-12.820660348180228,-29.613903304463964
1760597430.302429,0.08829355720907434,0.12999490469924824,0.9810029864762713,-0.10456963374480027,13.676840712160306,-13.866174587597108,-30.196663276945156
1760597430.312436,-0.041473052414107654,0.13206317896005773,0.9858693015836605,-0.08666699726200623,13.66200285021031,-15.87313110204566,-30.728249730154815
1760597430.3224287,-0.18779572710224834,0.1327686908864079,0.9878916551333203,-0.07134077774302626,13.529510854747002,-18.724159085424194,-31.167244007529042
1760597430.3324385,-0.35383916588489683,0.13095258861835735,0.9875758355067081,-0.060103519729916566,13.247258544329112,-22.16619100641531,-31.461337857217504
1760597430.342453,-0.5417200777207049,0.12483971190517122,0.9858981909644232,-0.05423834800003777,12.798061418377793,-25.846981699510916,-31.552066867240104
1760597430.3524296,-0.7526243047551836,0.1122480894273268,0.984227780742663,-0.054713004549834306,12.181705817677496,-29.36428880526493,-31.38128095317044
1760597430.3624506,-0.9868981362059797,0.09090246106744213,0.9841891260919543,-0.06212553866379715,11.414302997949354,-32.32160134733499,-30.89850387289229
1760597430.3724382,-1.2440793314786023,0.058819835047876357,0.9874724846247609,-0.07667349201217187,10.524818210761484,-34.383411583627925,-30.067959205131125
1760597430.382456,-1.522849989884713,0.014715880954455599,0.9956051358616163,-0.09813508542586052,9.548877316810323,-35.32295501210941,-28.873900418606343
1760597430.3924513,-1.820919303741987,-0.04163427358581769,1.0097057714820206,-0.1258517783508536,8.520299831994656,-35.05619662531144,-27.32306742333927
1760597430.4024458,-2.134874233231154,-0.10915093388032523,1.030253051852837,-0.15870657618016698,7.461305546979285,-33.657539252120436,-25.443578423516268
1760597430.4124472,-2.460059689403269,-0.1853776903920124,1.0569050065745247,-0.19510132420681944,6.37289187790501,-31.35504776133353,-23.280231910230615
1760597430.4224472,-2.7905562478253922,-0.26661216127057297,1.088405360362758,-0.23294756862333243,5.227230718955035,-28.505603767731582,-20.886871233630227
1760597430.4324389,-3.1193064310729097,-0.3482335404075812,1.1226060613998665,-0.26969479023876564,3.9638200660764613,-25.552968883505965,-18.31698922598158
1760597430.4424481,-3.438400548648981,-0.42518182846565883,1.1566238343172084,-0.30242014644558685,2.4904734667466513,-22.97391985563655,-15.614021806206214
1760597430.4524505,-3.739480325353088,-0.4925093542085794,1.187132674795373,-0.3279927080950586,0.6892625351380669,-21.219202679986406,-12.802806690335371
1760597430.4624455,-4.0141744554600916,-0.5459080153001957,1.2107722392597684,-0.3433079927415284,-1.5733729206754952,-20.656881301941496,-9.883552383425258
1760597430.472452,-4.254467606633488,-0.5821247802753137,1.224624400101562,-0.3455730391084696,-4.433680739481881,-21.525583876109806,-6.82944084338523
1760597430.4824522,-4.4529313783401765,-0.5992097386421346,1.2266834758790153,-0.33261112600728504,-8.016281941233512,-23.90403106739406,-3.588666325424955
1760597430.4924524,-4.602799427760463,-0.5965815867675118,1.21623140518261,-0.30314796664102467,-12.419762936993271,-27.701031578360016,-0.09124024889189605
1760597430.5024304,-4.697925356801644,-0.5749318639272166,1.1940368178465872,-0.25703881040608906,-17.703144416029176,-32.6671090184505,3.7397611632123775
1760597430.5124302,-4.732700108079405,-0.5360141696023166,1.1623275495593606,-0.1954008921971236,-23.874006236078596,-38.42568829975526,7.9736283090957185
1760597430.5224519,-4.702015313852952,-0.4823747701417434,1.1245307451239144,-0.12062876760524516,-30.8791090034073,-44.51903316833928,12.656071844236155
1760597430.5324547,-4.601341014296537,-0.41707670339044767,1.0848181299743476,-0.03628790276207565,-38.59856922803861,-50.46236753827447,17.794458716978184
1760597430.542466,-4.426948908454144,-0.34345494221236195,1.0475237076296333,0.0531019868539649,-46.84477156881694,-55.798968204261854,23.34694609531642
1760597430.5524478,-4.176267447906097,-0.2649212525533896,1.016515459753009,0.142373605614217,-55.36704862635499,-60.14940311053113,29.217789184915848
1760597430.5624933,-3.8483133428624003,-0.18481826128416726,0.9946091848312958,0.22608826198449916,-63.86264407844917,-63.249315157563075,35.26013687661983
1760597430.5724483,-3.444113796421401,-0.10630598310795639,0.9831166743669713,0.2989651821994526,-71.99359458007318,-64.9719576198623,41.28636978381481
1760597430.5824664,-2.967021370887156,-0.032255616747995215,0.9816167897310895,0.35634913962444753,-79.40809302658268,-65.33379435435042,47.08476464070238
1760597430.5924537,-2.422832755023653,0.034869009498332305,0.9880161574842261,0.3946944731334992,-85.76406895655167,-64.48360357491444,52.440249753586336
1760597430.6024551,-1.8196541244848852,0.09314059029987587,0.9989216753139414,0.4120240202758082,-90.75257610287129,-62.677384316514946,57.156384601076134
1760597430.6124246,-1.1675043119017807,0.14127852269539665,1.0102842688977924,0.40828999988762216,-94.11906828515754,-60.242754710418374,61.075431499505726
1760597430.6224189,-0.477700072105349,0.17869915415466456,1.0182021358223703,0.38553389406548033,-95.68122209057071,-57.53741905439046,64.09346367701235
1760597430.6324348,0.23789326041974737,0.2054917583722941,1.0197103666655454,0.34774533756519344,-95.34214635776584,-54.90670188655893,66.16799664625427
1760597430.642459,0.9676509787444911,0.22235814433930717,1.0133601717853478,0.30038025003938107,-93.0976921637069,-52.64496052829516,67.31681026803793
1760597430.652449,1.7009360558415492,0.2305784302268652,0.9994273826048069,0.24959801286392344,-89.03668111549509,-50.9646529759705,67.60843675840668
1760597430.6624565,2.428742264598182,0.2320220815664527,0.9796899862983167,0.20136946747911966,-83.33364764182674,-49.97510062677897,67.14688485908927
1760597430.6724143,3.14418582877933,0.22914158119243636,0.9568545603311471,0.1606567090672463,-76.235093807252,-49.671263943835505,66.05481878698255
1760597430.6824298,3.842805609253785,0.22484407736832682,0.9338299806830617,0.1308503060105624,-68.0417854691345,-49.93194470158674,64.45967576801011
1760597430.692458,4.52263935452489,0.2221782575374324,0.9130745198876108,0.11355954758722597,-59.09050965280088,-50.52704122643569,62.48562254798804
1760597430.702459,5.184056066729553,0.22386727046039395,0.8961724233479567,0.1087242345880385,-49.73815130686459,-51.13441992451143,60.251474818559906
1760597430.7124436,5.8293444165659105,0.23179823441985933,0.8836896977526383,0.11493068585463861,-40.34876087641425,-51.367661261316336,57.87221282928027
1760597430.7225409,6.462086114906312,0.24660844369418228,0.8752750046077276,0.12981083866214352,-31.281575261322065,-50.81535513488279,55.460707223223835
1760597430.7326112,7.086379015273017,0.26748862425175257,0.8699256410348573,0.15044925580348462,-22.876504991207998,-49.090412056624906,53.126873100806876
1760597430.7424276,7.706008833963006,0.29226904767303624,0.8663233167730362,0.17376519310153732,-15.434474720605845,-45.88467729900955,50.9730490268423
1760597430.7524412,8.323690524482629,0.31778468620970507,0.8631525513599104,0.1968539331257998,-9.192872768689877,-41.02120937086369,49.08615799389811
1760597430.7624395,8.940504262642087,0.34045199824494243,0.8593396629749758,0.21727206743140415,-4.299895101855041,-34.49502876939705,47.528607362615446
1760597430.7724545,9.55563400774902,0.356945606463003,0.8541835454299329,0.23324988278764652,-0.7941774974641531,-26.493573819141456,46.33063585333326
1760597430.7824512,10.166476609451328,0.36484215293930433,0.8473807962590666,0.24381698196378493,1.4034221964605218,-17.39062296727167,45.48674734628471
1760597430.7925353,10.769125390202461,0.36310246049274403,0.838970193115259,0.24883359210939748,2.4811281004941637,-7.711770099663534,44.95794288751028
1760597430.8024201,11.359150854512416,0.35229278803071135,0.8292322970402937,0.24892733233564593,2.7099451803100547,1.9250622087540843,44.679909068036956
1760597430.812471,11.9325242786732,0.33449800653074946,0.8185792850612833,0.24534355608574263,2.403700014503176,10.88537236485224,44.57565799074261
1760597430.8224366,12.486487908198693,0.31294372326872943,0.8074603498417119,0.23972703719230073,1.8729858294185748,18.59780061240695,44.5698958769947
1760597430.8324237,13.020188135224913,0.29140674096734437,0.7962944655632036,0.23386212699010883,1.3820319815048994,24.624549275615003,44.60196835046817
1760597430.8424628,13.53495045440184,0.2735400414396618,0.7854315877535828,0.22940586223242185,1.1164951260672704,28.711079571188407,44.63465959874889
1760597430.8524427,14.034162688708662,0.2622569412760966,0.7751385900573603,0.22765292480840785,1.167215627488537,30.807841002841084,44.65724102996814
1760597430.8624485,14.522816537138787,0.25929869975267006,0.7656053193407305,0.2293698629491253,1.5312200656886705,31.062240006855593,44.68260052016777
1760597430.8724365,15.00681414818442,0.26505250028636446,0.7569653638361846,0.23472443128457715,2.1278005944255276,29.784435904643246,44.73955988897586
1760597430.8824663,15.492167097116733,0.2786157824445619,0.7493243271953544,0.24331544210360684,2.8250815779431644,27.394658881821265,44.86224675745653
1760597430.8924587,15.984206427183302,0.2980508761346751,0.7427871030208342,0.2542862142301581,3.4713815146495293,24.36184774446247,45.078574840248216
1760597430.9026904,16.486899367583575,0.32075583636974425,0.7374766603191011,0.2664878612700958,3.925850694506066,21.143397087861302,45.39971193614907
1760597430.9124384,17.002342616247734,0.34388278423923385,0.7335403913922649,0.2786535434252692,4.083982418655888,18.13412479017955,45.81210685677288
1760597430.9224463,17.53047698072438,0.364746088856573,0.7311446101247652,0.2895544435569414,3.895154271776439,15.629930337682891,46.27327889485158
1760597430.9324355,18.06904361623806,0.3811731807387646,0.7304613803791289,0.29812540190271014,3.3709072400604643,13.808692973485538,46.7120945886295
1760597430.9424627,18.613779292566758,0.3917640857153687,0.7316531469844936,0.3035597991898719,2.5839884335010277,12.728275118676674,47.03363533301735
1760597430.9524527,19.158827378638865,0.39604143019886484,0.7348589361439828,0.3053746300152866,1.659226290313225,12.339399842052462,47.128073179317084
1760597430.962463,19.697320122480985,0.39448478081690325,0.7401816835785294,0.3034430094265448,0.7580738246660098,12.509832586679277,46.882365722283225
1760597430.9724433,20.22206568420809,0.3884502113628015,0.7476717891539232,0.2979887034393478,0.059126130418852396,13.055676690774668,46.193169749513935
1760597430.9824517,20.726255061889624,0.3799824538757581,0.7573001964441952,0.2895385184139022,-0.2629057969638987,13.77547693431131,44.97920303318605
1760597430.9924612,21.204095830670184,0.37153557837276596,0.7689168035192804,0.278834144168141,-0.057359434192855406,14.482999172755273,43.19135548452084
1760597431.0024426,21.65128422443191,0.36562755161627947,0.7821963508443924,0.2667138389079043,0.7852153416734636,15.034938791262796,40.81914452873401
1760597431.0124393,22.065244705461676,0.36446381808558725,0.7965819553677395,0.2539829244249253,2.32063804707425,15.35042740810435,37.8925854131317
1760597431.0224519,22.44509699103157,0.36957595443942703,0.8112435369215149,0.24129716690633335,4.544697333291581,15.420075718142414,34.479150475293075
1760597431.0324543,22.791352998744998,0.38153053314703045,0.8250723269739867,0.2290825604730892,7.393484612730353,15.30341966460052,30.676156934388224
1760597431.0424483,23.10539407838305,0.39976383327022186,0.8367315944938287,0.2175078800557624,10.750490020561754,15.115024768703657,26.59957720808092
1760597431.0524762,23.388821794489218,0.4225852955774107,0.8447764057226894,0.206514044099941,14.459677873037304,15.001054268079727,22.37081839882216
1760597431.0625095,23.642801829398557,0.4473678118855382,0.8478424935882122,0.1958911186664486,18.34298373282508,15.109592925035829,18.10334078710539
1760597431.0724578,23.867521449094525,0.4709112471425737,0.8448889163855936,0.1853845523154417,22.220174307234117,15.559162447577453,13.89095685867716
1760597431.0824242,24.061855665391526,0.4899334577629624,0.8354634811217575,0.1748096757707588,25.92889624278807,16.410426753228034,9.799271972374656
1760597431.0924952,24.22329493660655,0.5016162939544591,0.8199459028913989,0.1641567754708209,29.342899848527754,17.64590422982153,5.861154223921527
1760597431.1024458,24.3481398258469,0.5041160897757143,0.7997158592130584,0.15367275759850715,32.386635168513244,19.16157447841695,2.0765518399119975
1760597431.1124606,24.43192233720601,0.496942172075457,0.7771974793041844,0.14390437401734557,35.04453698830703,20.77277529767742,-1.5834995666267053
1760597431.122436,24.469974675678728,0.48111937659296156,0.7557500563144612,0.13568582059481693,37.36340914836059,22.234961947692913,-5.169258248381978
1760597431.13243,24.458042146414094,0.4590856687247555,0.7394015227741719,0.130058972255117,39.4466386904171,23.27787909850433,-8.742050281049716
1760597431.1424482,24.392834253119737,0.4343262784935543,0.7324474911770205,0.12812847222855156,41.43976475630676,23.649607046704908,-12.36285337897616
1760597431.1524363,24.272424523171704,0.4107940729091378,0.738956067279379,0.130869719179739,43.50821917384163,23.165035900787455,-16.081397058097817
1760597431.1624727,24.09643672712726,0.39219805032685795,0.7622238138063805,0.1389215754225331,45.80957401446515,21.751888361201278,-19.927505541708427
1760597431.1724694,23.865985723770475,0.38125670689599306,0.8042275534998113,0.1524056810641789,48.46392999899588,19.486697541541925,-23.906072338068256
1760597431.182486,23.583372720017522,0.37902045235590587,0.8651227315611236,0.17081424670556203,51.52674016104437,16.613366859774445,-27.99640832451034
1760597431.1924813,23.251567856329647,0.38437435035494555,0.9428564678047301,0.19299174621174928,54.968208569455356,13.538267611656211,-32.15591382884851
1760597431.2024481,22.8735472507147,0.3938322804324158,1.0329813536435821,0.21720886998270808,58.6626192219126,10.798288964076368,-36.32725364422433
1760597431.2124357,22.451583493436374,0.40171272589325385,1.1287583780325658,0.24130588785702795,62.389911941030476,9.001693413101567,-40.44755088526814
1760597431.22244,21.986612716999012,0.4007409128976132,1.2216158945445148,0.2628779573326071,65.85073612320703,8.74581312656676,-44.45763934177024
1760597431.232428,21.47781205179857,0.38305856432660995,1.3019860565360133,0.27948296411755996,68.69499290082565,10.520216726583106,-48.30924844619309
1760597431.2424462,20.92251293272138,0.34154768740087466,1.3604728068394092,0.288861290036609,70.56235847228609,14.608375512393929,-51.96824728067116
1760597431.2524314,20.3165432322554,0.2712936507376268,1.3892216333800804,0.28915694523391294,71.13141701018695,21.004113770858275,-55.41278421694535
1760597431.2624464,19.6550315666134,0.1709374567624604,1.383274863504949,0.2791198912689359,70.17188160156098,29.3601890304347,-58.62630468827615
1760597431.2724898,18.933622952531458,0.04362161426418903,1.3416337180350995,0.2582586292562337,67.59217615146244,38.98437119003344,-61.586872212150105
1760597431.282456,18.149957281990492,-0.10275259447301725,1.2677465452568524,0.2269115646147486,63.47304346476185,48.892839223718006,-64.25563702498151
1760597431.2924564,17.30516953820476,-0.2561470682672871,1.1692334917135407,0.18622147671713582,58.07796942572234,57.921523706481835,-66.56824823008684
1760597431.3024542,16.40510768105662,-0.40190852734985577,1.0568378575280006,0.13802690540918908,51.83411870608861,64.88410439669232,-68.43303291301949
1760597431.3124642,15.460959352507787,-0.5249806862685324,0.9428052786781006,0.08471123751262165,45.28319389600739,68.75309025568126,-69.73849074097657
1760597431.3224688,14.489056492058848,-0.612362872954811,0.8390462694111513,0.029049587205328006,39.00870078007096,68.83140876783138,-70.37001447233219
1760597431.3324723,13.509786891412748,-0.6552394571450378,0.7554744264122932,-0.025941193157858734,33.55213883991377,64.87997892971066,-70.2324230161117
1760597431.3424568,12.545742714544732,-0.6502817934057445,0.6988295370577865,-0.07718226853652789,29.33361050529463,57.17375459342355,-69.2723205268981
1760597431.3525217,11.619411768368847,-0.5998933920731578,0.6721393776882835,-0.12177859831943864,26.5916015489254,46.473259931817296,-67.4938522322977
1760597431.3625042,10.750810685818571,-0.5114808217422079,0.6748113971056495,-0.15733135914918578,25.352853614149247,33.91642433711223,-64.9634380092608
1760597431.372441,9.955447063885154,-0.39604512335402253,0.7032248922019375,-0.18227071900098965,25.437440561374462,20.8516325935919,-61.80258621934856
1760597431.382531,9.24289618114302,-0.2664622867488043,0.7516315866741041,-0.19612998358815312,26.49750734887207,8.643590508756839,-58.17138086237207
1760597431.3924887,8.616131926389395,-0.13578781135928533,0.8131605074614991,-0.19967353084160136,28.081807396723537,-1.5131164288685002,-54.24742616637634
1760597431.4024684,8.07161146800172,-0.015823820071486243,0.8807510531100995,-0.19481238608267457,29.71340250055587,-8.742237463291202,-50.20541262229787
1760597431.412463,7.600012648796496,0.08392876524592466,0.9478959819532311,-0.184295775807009,30.96575235082852,-12.575705202616488,-46.20126100720535
1760597431.42244,7.187470595702542,0.15690732870210775,1.0091462954040495,-0.17123877580158545,31.523519426877108,-12.978286393982563,-42.36270409590052
1760597431.4324684,6.817145410633606,0.1997473450107671,1.0603899111600978,-0.15860083431907013,31.21848297825015,-10.312598657686516,-38.78604844723332
1760597431.4425044,6.470958981869278,0.21222380331111795,1.098949891909152,-0.1487403828649665,30.036833449352276,-5.258515240547458,-35.537433604849014
1760597431.4524674,6.131350942306049,0.19693859471317202,1.1235540621508915,-0.14313721431484513,28.100224495928874,1.295512466701733,-32.656476881474724
1760597431.4624772,5.782913195815506,0.1588136491803148,1.1342148343198182,-0.14231793937470588,25.627829154434,8.372142897617374,-30.16060833088846
1760597431.4724495,5.413768476714893,0.10444070097832321,1.132039051006456,-0.1459648163486545,22.889240201129805,15.021362902502725,-28.049216012842866
1760597431.4824994,5.016566944935597,0.04133098142616986,1.1189766594340358,-0.1531507475597588,20.157998527349747,20.42196081039648,-26.30745915422928
1760597431.4925165,4.588995411839174,-0.022888525698857222,1.0975232085881017,-0.16262855258914236,17.673299066989767,23.960017376172978,-24.909976988485937
1760597431.502484,4.13373328422327,-0.08126735145385458,1.0704088899272142,-0.1731076533970129,15.61411162314925,25.278935783284243,-23.824673417747046
1760597431.5124795,3.6578453529978594,-0.12822756072962646,1.0403175496335535,-0.18346925925705623,14.086704149115116,24.29824674430288,-23.01643230957524
1760597431.5224857,3.171665398177516,-0.16007691940065047,1.0096704957823812,-0.19289469316311822,13.124100656801627,21.201317127659614,-22.45027517162036
1760597431.5327208,2.6872900654772325,-0.17527415486281758,0.9804885384000893,-0.20090400031579728,12.69460753383443,16.39512154994712,-22.093361866212064
1760597431.5425508,2.2168656828955213,-0.1744179161019241,0.9543264919853057,-0.20731889789467584,12.716116680589161,10.448087845984478,-21.915458657535805
1760597431.5524752,1.7709006451808997,-0.15997268329537023,0.9322650030746856,-0.21217402203220065,13.073156282897315,4.014224874033694,-21.887976651683918
1760597431.5626373,1.3568534728724384,-0.1357824963359854,0.9149431402875334,-0.21560399092378868,13.634273619243107,-2.247116563339339,-21.982206309411858
1760597431.5724745,0.97821631691124,-0.10644950491157984,0.9026169824690761,-0.2177324153809342,14.26802150351566,-7.7465486296701735,-22.167691958774967
1760597431.5824618,0.6342362430954666,-0.07666599942805905,0.8952315306595967,-0.21858417225530494,14.856409530616837,-12.026864521379027,-22.411646204766942
1760597431.5924928,0.32030956329345334,-0.050586964611825186,0.8924950098959651,-0.21803544455019336,15.305116085444796,-14.80606022629899,-22.679916783258864
1760597431.6024752,0.028973023043485913,-0.031317999559685526,0.8939467195450641,-0.21580838278796155,15.550067385090479,-15.997680063519857,-22.93945754884871
1760597431.6124856,-0.24867758416939745,-0.020573727199484967,0.8990127058327047,-0.21150972964371312,15.560240847283415,-15.70782113576679,-23.16173613083582
1760597431.622499,-0.5213719085675486,-0.01853798097049926,0.9070472290553748,-0.20470613580356803,15.336796585062833,-14.210748918057861,-23.326196939453524
1760597431.6324735,-0.7961073894665773,-0.023932381308670633,0.9173610284296209,-0.19502351815998994,14.908906563936261,-11.907212710965087,-23.422860650790426
1760597431.6425002,-1.0768927165805668,-0.03427671862969582,0.9292389578653814,-0.18225387678892824,14.326927716229482,-9.27104339261469,-23.45335973369185
1760597431.6525404,-1.363992100431562,-0.0463040852521274,0.9419501584032794,-0.16645112613376875,13.653821006500852,-6.790419477906451,-23.43009221958728
1760597431.6624954,-1.6537992006119866,-0.056476868901871494,0.9547547107861907,-0.14799848487237027,12.955904825485977,-4.910325431387337,-23.373597926781585
1760597431.6725085,-1.9393784009380115,-0.0615378148355617,0.9669120034341032,-0.12763382903369824,12.294095741498168,-3.9822560743017967,-23.308614092086483
1760597431.6824934,-2.2116101621526822,-0.05902502338359744,0.9776967377717526,-0.1064253577634774,11.716701061430738,-4.226239350653039,-23.259489342810394
1760597431.692479,-2.460780599578788,-0.04768248500981364,0.9864271878308479,-0.08569716784773364,11.254595148080371,-5.708881314610173,-23.2457114194097
1760597431.7025108,-2.6783790563845606,-0.02770921339376784,0.9925069392420762,-0.06691230195654015,10.91927484192352,-8.339490982200468,-23.27824985610243
1760597431.7124624,-2.8588253283987406,-0.0008095132686086811,0.995477323393496,-0.051528541816988765,10.703892567149,-11.884503704924892,-23.35725658688242
1760597431.7224524,-3.0008491425876467,0.029967560861201763,0.9950749963841589,-0.04084798246751587,10.586948296788382,-15.998487066880218,-23.471432164953523
1760597431.7324636,-3.1082896821969124,0.060582811758604964,0.9912882772214588,-0.035883375333976245,10.537930910699918,-20.26813299275511,-23.59908027163049
1760597431.74247,-3.190165752846188,0.08651040260048917,0.9844059798893624,-0.03726126679749392,10.523894769744155,-24.26403186956491,-23.710578065235033
1760597431.752644,-3.2599747000990895,0.10332105612350788,0.9750519903576984,-0.045174527218156506,10.515790099494303,-27.59393402684605,-23.771745704054613
1760597431.7624915,-3.33429305772644,0.10726130678295479,0.9641972461459304,-0.05938705974736914,10.493360708560855,-29.950848072616516,-23.747470695773945
1760597431.772494,-3.4308551847715374,0.0957450559038313,0.9531393524538126,-0.07928446943322431,10.447587306281731,-31.149882061242444,-23.604962614050116
1760597431.7824972,-3.566362181691761,0.067689200467931,0.9434407859014382,-0.10395845732707815,10.380002880190014,-31.14927437320841,-23.31615824538384
1760597431.7925684,-3.754313168988647,0.023652960184617607,0.9368202876419816,-0.1323085424979217,10.298739744528918,-30.053390283649243,-22.85901408392669
1760597431.8037908,-4.003151569616656,-0.03422597416457503,0.9349980794198821,-0.16314018883895287,10.211814349206438,-28.09807583900615,-22.2176626365124
1760597431.8124697,-4.314981216135746,-0.10247419101431801,0.9395031293655501,-0.19523582074588122,10.118763729329162,-25.621077357055803,-21.381624801582877
1760597431.8224769,-4.685034955710289,-0.17665765538094114,0.9514586299179236,-0.2273805602747738,10.002172910931987,-23.021855718367846,-20.34440832564199
1760597431.8324933,-5.101980042143168,-0.2518327270068561,0.9713685174339162,-0.25833988719849205,9.82080274138108,-20.715934457052537,-19.10183865989487
1760597431.8425264,-5.549031811904904,-0.32301925408170284,0.9989332315136554,-0.2868064856084804,9.505903212434232,-19.08901298733879,-17.650374178378286
1760597431.8525684,-6.005732430264473,-0.38565232978936337,1.0329285898210387,-0.31134988228095867,8.961854529943686,-18.45564322285818,-15.985530542211922
1760597431.8626544,-6.450147265849405,-0.43597975775179876,1.0711861390649802,-0.33040923551910406,8.071570925319461,-19.026512743661378,-14.100475178771854
1760597431.872554,-6.861156048084222,-0.4713777233120232,1.110708481577855,-0.34236437119817437,6.706284357645177,-20.88743765826297,-11.98489450391779
1760597431.8825154,-7.220496073642608,-0.490558696970952,1.1479298484327445,-0.34570117474821,4.738574239495343,-23.99206530167766,-9.624341800080238
1760597431.8926325,-7.514269817295928,-0.4936476276074753,1.1790934520663499,-0.33925579760807195,2.056958709640828,-28.16897229035314,-7.000351775854248
1760597431.9025908,-7.733748634772784,-0.48210969394331993,1.2006821286144267,-0.32248803849160856,-1.4198975282900923,-33.14231420710514,-4.091579103195452
1760597431.9124994,-7.875446328114493,-0.4585288308857713,1.2098282396264752,-0.29571373441717463,-5.731235957800766,-38.56355317227272,-0.8760532546229934
1760597431.9224877,-7.9405560288352115,-0.4262602808937818,1.2046452671843315,-0.26022804654636017,-10.866052846119635,-44.05029502542173,2.6656263559060807
1760597431.932567,-7.933917683344243,-0.38900503976115036,1.1844511874772883,-0.21827342679570863,-16.759790265644302,-49.22723979179347,6.54661629182302
1760597431.942497,-7.862711688276689,-0.350368752097392,1.1498756871266111,-0.1728393769839051,-23.296374935468727,-53.763985173283,10.77032809843176
1760597431.952514,-7.735068940328969,-0.31346677290480196,1.1028534856313479,-0.127316737063436,-30.315525633460908,-57.405005916291174,15.327757740220035
1760597431.9624918,-7.558762532509687,-0.28062326833943196,1.0465074408170234,-0.0850591432527846,-37.62462461529827,-59.98841207960147,20.196105746776873
1760597431.9724877,-7.340113019718098,-0.25319265421566367,0.9849235383409652,-0.04892340729335608,-45.01384225925817,-61.45182467767816,25.338810907610355
1760597431.982524,-7.083205395624247,-0.23151349481730277,0.9228200371843952,-0.02086695682826458,-52.272694317312535,-61.82566247690034,30.70674090161227
1760597431.9925013,-6.789484708440225,-0.2149912381001691,0.8651185523531622,-0.0016736293694673428,-59.20586776760565,-61.21607882083945,36.239981897331056
1760597432.0025115,-6.457766159333873,-0.20229463317689356,0.8164390600357219,0.009141000059693368,-65.64605811975679,-59.78143576428302,41.86957361093449
1760597432.012523,-6.084658114857535,-0.1916378497331692,0.7805654254386105,0.013225373922102792,-71.46183059212579,-57.70715393568988,47.51869735051267
1760597432.022514,-5.6653466730869315,-0.18110664698414644,0.759959515922378,0.013106224364907515,-76.55931255367568,-55.18362085767819,53.10315779052502
1760597432.0324974,-5.194630289230079,-0.16897711998748308,0.7554258107892637,0.01176847915561807,-80.87791125150999,-52.390462282842854,58.53135648487713
1760597432.0425646,-4.668039581392023,-0.15397424833590181,0.7660188449777208,0.012164387443664137,-84.38179466210913,-49.48831303756848,63.70423983641069
1760597432.052475,-4.082856800819717,-0.1354265686870106,0.7892270446926323,0.016728077010770146,-87.04967381527122,-46.617111675122345,68.51589183158556
1760597432.0624864,-3.438875166598734,-0.11329304417272437,0.8213823868334073,0.026987543469718267,-88.86507032590279,-43.89857302004404,72.85551430267617
1760597432.0724828,-2.7387984150538873,-0.08806648146755336,0.8581881975190733,0.04336684644115645,-89.80844283098679,-41.43995653476844,76.61145022246674
1760597432.0824943,-1.9882497539694093,-0.06058604992029323,0.8952565813760754,0.06522926166047019,-89.85219768291938,-39.33631014236829,79.67761147684685
1760597432.0925376,-1.1954174022225403,-0.03180794101164583,0.9285829266096359,0.09113061951605522,-88.9597346834371,-37.668948556695064,81.96215317890285
1760597432.1024694,-0.37040537278269275,-0.0025849108514130643,0.95491863822663,0.11917849633853624,-87.08963442187869,-36.4990496811432,83.3975519023453
1760597432.1124978,0.4756135253375455,0.02650089409327917,0.9720175874737875,0.14737923153022145,-84.20544768727498,-35.856773559608506,83.95057009400061
1760597432.1224995,1.3313268342031517,0.055217948392870204,0.9787391956994744,0.17390254831781454,-80.29029145615105,-35.727930541839555,83.63016250394486
1760597432.1324866,2.186170796103518,0.08366204990942895,0.9750078871765361,0.19725394533402632,-75.36385081588503,-36.0416010834745,82.49141457519553
1760597432.1424944,3.031063530204408,0.11213788391500261,0.9616531331209265,0.21637444920941346,-69.49799041464006,-36.6627858743163,80.63419041830451
1760597432.1524823,3.858894949553037,0.14097664737459664,0.9401736317670646,0.23068487876496413,-62.82669415198371,-37.393755455400765,78.19617700061112
1760597432.1624599,4.664726242249898,0.17033616937504334,0.9124756855601821,0.24008242619922265,-55.54681257127363,-37.98632134932891,75.34109228327407
1760597432.1724453,5.4457002030616,0.2000350911749097,0.8806293464077765,0.24489748101146872,-47.9078589141242,-38.1652099045955,72.24363472932359
1760597432.1824806,6.20071015836212,0.22946548087981142,0.8466698778193087,0.24582357374808367,-40.191363912117595,-37.66049863327111,69.07316352868033
1760597432.1926174,6.929910450386301,0.25760922349389653,0.8124538243046393,0.2438314819773105,-32.68262215850635,-36.24492763105651,65.9781749783193
1760597432.2024646,7.63417000664016,0.28315972007547496,0.7795661140654039,0.24006933026284702,-25.639551977072244,-33.77019744921922,63.07347544681054
1760597432.2124977,8.314571119126121,0.30472927147975526,0.7492687971527785,0.23574542505012186,-19.26426922482224,-30.195679233835868,60.43158458912602
1760597432.222463,8.972038630446178,0.32110517783780435,0.7224808043629045,0.23199853337918608,-13.68247691268209,-25.603714686931035,58.07932966269171
1760597432.2324579,9.607152450676322,0.3315043006915366,0.6997809138080013,0.22977468782616442,-8.93409695139059,-20.19780994487291,55.999841232160044
1760597432.2424762,10.22015516492359,0.33577207393204483,0.6814322993160007,0.22973400305409414,-4.97635060582143,-14.28302950274426,54.13936333122651
1760597432.2524686,10.811126427817793,0.33448256770190843,0.6674314096423618,0.2321996815247701,-1.6983030024787973,-8.231095780811922,52.41765137679796
1760597432.262482,11.380265668586345,0.3289180908152217,0.6575811747278321,0.2371460765736823,1.0559758070224867,-2.435424832212515,50.74040341926614
1760597432.2724538,11.928208687061264,0.32093168926603743,0.6515805080752902,0.2442166819167417,3.4598123051562264,2.7369408633993983,49.01216601693689
1760597432.2824788,12.456302313941292,0.3127168776303202,0.6491153294697224,0.2527674114707298,5.67663730220101,6.989058346808391,47.148359803870605
1760597432.2924814,12.966772345291613,0.30652281472307275,0.6499344486272922,0.26193777256736067,7.837380913982914,10.126824759304814,45.08533286249276
1760597432.3024976,13.462740043241986,0.30435902532928477,0.6538957564643357,0.2707549321978886,10.025719670706055,12.076058667513971,42.78758924043902
1760597432.3124878,13.948067553865215,0.3077312616295867,0.6609725408151653,0.27827084749741626,12.272603990754087,12.882040180872618,40.2515796377355
1760597432.322464,14.427038860155449,0.3174401352267608,0.6712154881072889,0.2837229209276487,14.559682156522744,12.69265084075863,37.505752550024596
1760597432.3324518,14.90390818937646,0.333461763054426,0.6846727730707887,0.28669582487193906,16.829733295990156,11.728876153440392,34.60695471306884
1760597432.3424847,15.382370912881687,0.35492144388711544,0.7012791671368336,0.2872458976688982,19.0013008524705,10.248157566379659,31.633656570188457
1760597432.3524628,15.865029649091209,0.38016749935732963,0.7207349522898311,0.28593659909922586,20.984547731829778,8.506630457397028,28.676778443950884
1760597432.3624692,16.352934805483244,0.4069456607999303,0.742402250278445,0.28374149430322293,22.695881721637768,6.725707756420981,25.829094788161044
1760597432.372494,16.845270699664322,0.4326603967885474,0.7652447544112323,0.28181049728935725,24.06978069145188,5.06713906577829,23.17431566774544
1760597432.3824885,17.339238063519915,0.45469354780664173,0.787827228336118,0.28115027064326914,25.06706896140882,3.6190687066715,20.776980398270982
1760597432.392468,17.83015719077788,0.47074115789436927,0.8083803877487004,0.28230910351732674,25.679483226197643,2.39404275249168,18.674233783330795
1760597432.4025764,18.311788467602252,0.47912962656802266,0.8249316340176817,0.2851590706178915,25.930806623746122,1.3384545571594633,16.87037848449634
1760597432.412504,18.776840376843076,0.47907814307963237,0.8355026080537407,0.28883651086383294,25.87525992210919,0.3515816120692626,15.334792295381149
1760597432.4225166,19.21760784998994,0.4708784701886772,0.838373124625545,0.2918542578003581,25.59414803286393,-0.6887080850336486,14.003392375682209
1760597432.4324524,19.626655775395417,0.45596207166674313,0.8323997935100206,0.2923544625760125,25.19175481600281,-1.8970648889098587,12.78341445248432
1760597432.4425023,19.997440916977204,0.4368241666696169,0.8173575784743758,0.28844098172537647,24.79107488196027,-3.3520116843355097,11.560953989934157
1760597432.4524767,20.324764282619288,0.4167854534607512,0.7942535128775009,0.278519677184383,24.529349138105825,-5.07051153515357,10.210525971575064
1760597432.4625144,20.604974471412667,0.399598975084149,0.7655523469688844,0.26158182251098816,24.55282306508196,-6.988209038075927,8.605811719358176
1760597432.4724832,20.835896230746908,0.3889425712380795,0.7352543164761416,0.23738413573892841,25.009898312434682,-8.947469807954965,6.630707094911024
1760597432.4824762,21.01651918769652,0.3878610003882448,0.7087713388906508,0.20650244891552583,26.042010381665236,-10.695142984687585,4.189699321698776
1760597432.4924793,21.14652630985595,0.3982277037080202,0.6925596160121136,0.17025988630583191,27.772093157979437,-11.891700337298888,1.2164775812476372
1760597432.5025132,21.225755067516225,0.4202888930132535,0.6934896509611844,0.13055104558644753,30.291166576498195,-12.132828977364358,-2.320376247287399
1760597432.512538,21.25366848227112,0.45234301757238377,0.7179741532874019,0.0895983764701791,33.64414412004057,-10.983538237712457,-6.415620496509684
1760597432.522503,21.22888427814507,0.49060339517461693,0.7709274814190437,0.04968383991652169,37.81626567776908,-8.023386976402431,-11.030054279893992
1760597432.5324905,21.14878771807893,0.5292894885324115,0.8546865634655606,0.012897027308207845,42.72163312943704,-2.8996622707050483,-16.09744934814011
1760597432.5425158,21.009250420417658,0.5609858531403078,0.9680692699144414,-0.01906908517608295,48.19525907940395,4.616510810199763,-21.53447668107808
1760597432.552489,20.804493774941967,0.5772894048430757,1.1057696587214574,-0.04505825749839022,53.99000881839954,14.577663633698323,-27.25142029176536
1760597432.562493,20.527159546239336,0.5697322615574423,1.258280002467404,-0.06452383078913478,59.78003089713441,26.81829520554992,-33.16089704007708
1760597432.5724764,20.16866512734918,0.5309207876117543,1.4124797798381785,-0.07753822071168455,65.1727301544526,40.93072344941014,-39.18193358071452
1760597432.5824676,19.71991293179675,0.4557762231434854,1.5529409679486896,-0.08474470450488561,69.73161104159188,56.263647838521344,-45.23766914755115
1760597432.592477,19.172385611181312,0.3427094251713112,1.6638747285400002,-0.08725921724721877,73.01172448604305,71.94649115180177,-51.246524421258265
1760597432.6025412,18.519592139962366,0.19452746971443305,1.7314995521529264,-0.08653684966595303,74.60746873628965,86.94047658496302,-57.10862934861151
1760597432.6125193,17.758742459637414,0.01886134633282437,1.7464579440860308,-0.08422798063626476,74.20909843876613,100.11539993752616,-62.69120998596117
