timestamp,angle,linear_acceleration_x,linear_acceleration_y,linear_acceleration_z,angular_velocity_x,angular_velocity_y,angular_velocity_z
1760516273.5716815,6.168578900029613,0.21505461575110785,0.9245169864529872,-0.2971758370579682,11.416485353840105,10.747438675801996,17.32376230857215
1760516273.5818505,6.522107857974791,0.21000735675255183,0.9285834200882078,-0.3084298101668161,10.934654822172126,9.442044975613566,17.07374128577306
1760516273.5915487,6.855417819493012,0.20548449060760549,0.9344439365614066,-0.32150750997523114,10.376743890135227,8.039366275622413,16.651723703872754
1760516273.6015668,7.168608126926684,0.20193759384619742,0.9418288889942585,-0.33592970167667696,9.764674279130308,6.6849989490650294,16.06510615302619
1760516273.6115856,7.461580445514273,0.19944243128130207,0.9502608795506866,-0.3511664662698504,9.119074028828333,5.510363887053923,15.323302035408204
1760516273.6215577,7.733761080405912,0.19772585341381826,0.959095100904305,-0.3666857632036122,8.457123661449183,4.618644677423462,14.438509220796929
1760516273.6315684,7.9839129674058595,0.19622931192207138,0.9675749188414368,-0.3820001229000127,7.7911778296758865,4.075614698927089,13.426785779479658
1760516273.6415718,8.210037882417415,0.1941965210130849,0.9748934326007346,-0.39670105727613164,7.128376967706467,3.905982445780036,12.309199976826525
1760516273.651637,8.409366835367617,0.19077460826413425,0.9802550686062814,-0.4104740069259471,6.4713287102632355,4.095108059014266,11.112710063000392
1760516273.6619275,8.578439010889186,0.1851219992083702,0.9829370593659058,-0.4230936443766551,5.819762798642613,4.59525730072953,9.870423532078718
1760516273.6715512,8.713274762130863,0.17652004223817458,0.9823540324618152,-0.4344059195809485,5.172877708285846,5.33502777396063,8.620975900477951
1760516273.6815956,8.809652610514703,0.1644861510164801,0.9781261156520765,-0.4443048835341621,4.531940740042264,6.230269960539216,7.406905044358948
1760516273.6915352,8.863502761143662,0.14888488663761743,0.9701444534486277,-0.4527085888204794,3.902619003759221,7.194783328642088,6.272036492447606
1760516273.701602,8.871432173076528,0.13003303508923963,0.9586241762892026,-0.45953328617600503,3.2965409275350193,8.14931368176476,5.258021761383091
1760516273.7116277,8.83139469931915,0.10879346577058087,0.944135892279963,-0.4646635817459123,2.731721208930985,9.027871354788793,4.40027916332601
1760516273.7216334,8.743498130709368,0.0866439723546116,0.9276087435235099,-0.4679198976715029,2.2316902604366766,9.781020714856174,3.7236713954262113
1760516273.7315402,8.610880836194584,0.06569006566871911,0.9102970614796205,-0.46903122396853203,1.8233888200848758,10.376405352074295,3.2383312025370814
1760516273.7415626,8.44049686092369,0.048574436901641316,0.8937001639776224,-0.46762689044051936,1.5340589721363558,10.797230704033396,2.9361388479633392
1760516273.75155,8.243555618172966,0.038236964384348995,0.8794266708357117,-0.4632626561880235,1.3874562945173254,11.039658455386743,2.7884549050649694
1760516273.7615552,8.035330417325278,0.03751000298499488,0.8690054498487523,-0.4554915633224985,1.3997450628458787,11.110082958050322,2.7457604793814983
1760516273.7715523,7.834129636844652,0.04859051217888247,0.8636632512859667,-0.44397834056570556,1.5754744382749606,11.023104402696209,2.739775465410106
1760516273.7815692,7.659416156439938,0.07248995450711754,0.8641065222919169,-0.42864074788438367,1.9041127614226119,10.800741606122648,2.6883585733904107
1760516273.7916589,7.529300569302732,0.10859468639401056,0.8703540458922738,-0.40978804335568947,2.3577309243032722,10.47308911536417,2.5030356599991155
1760516273.8018064,7.457826632809807,0.15445874264363746,0.8816658340522118,-0.3882211852439367,2.8904990178839016,10.08022766061298,2.098419946687919
1760516273.8116474,7.4525483517635065,0.20590678148269184,0.8966038216450296,-0.3652632949300779,3.440569191103115,9.674705156627008,1.4022266167904838
1760516273.8215635,7.5128626594066255,0.25746631757068633,0.9132389186961373,-0.3426996886631663,3.9345488819358625,9.323334312862483,0.3642432870822806
1760516273.831564,7.629440677843726,0.3030839415885744,0.9294813487188506,-0.3226200308431328,4.294135881415137,9.106606867092998,-1.0373481342845343
1760516273.841562,7.784920844230893,0.3370123231567567,0.9434652058713768,-0.30716965254331824,4.443834341742355,9.114053919620861,-2.7934726912074366
1760516273.8515534,7.955807332292617,0.35469818726358415,0.9538915800968323,-0.2982357733120926,4.318385250205597,9.434626938993533,-4.865955422386205
1760516273.861559,8.115288380132371,0.3534839919628759,0.9602471597600852,-0.2971168911914565,3.8688336325253507,10.142534392647056,-7.19328163877638
1760516273.871739,8.236505591347854,0.3329764187935405,0.9628539313301133,-0.30423932936443504,3.066813570690375,11.280537582306039,-9.699296857413586
1760516273.8815544,8.295727541416609,0.29502303809433505,0.9627431942761144,-0.31898003497373484,1.907218154903884,12.843987873931367,-12.30333511745506
1760516273.8915508,8.27493812393284,0.24333846652039035,0.9613745990282925,-0.33962787309785636,0.40963959824185375,14.769439583745944,-14.930071290607426
1760516273.9015853,8.16351305427825,0.18289353317859236,0.960246636748573,-0.36348208852709424,-1.3811823705390507,16.93120136248382,-17.517507704725606
1760516273.911565,7.9588578796940395,0.11920609044267502,0.9604712239926365,-0.3870650150054069,-3.3960175034791384,19.14768433208125,-20.021896217838343
1760516273.9215655,7.666055162647616,0.05765668830653654,0.9624018729175864,-0.4064231657709781,-5.543393421782564,21.197278238544413,-22.418987292463722
1760516273.9316103,7.29668972963424,0.0029176914223923993,0.9654036644635199,-0.41749786939794825,-7.7141297135717695,22.841448734998316,-24.701691325248273
1760516273.9415748,6.867091835523018,-0.04145030115273292,0.9678323555871944,-0.41654911862673,-9.788754889888201,23.851436109418465,-26.874943234376502
1760516273.951639,6.396271442032612,-0.0732095503824491,0.9672516374137036,-0.40060687438234077,-11.647990570281978,24.034572158542495,-28.949171711799487
1760516273.9615662,5.9038184633989195,-0.09146549578067639,0.9608688106749269,-0.3679075020548226,-13.185898301268274,23.256611396972563,-30.934142175638293
1760516273.971584,5.408009411185932,-0.09652771809304898,0.9461226847804812,-0.3182597852883641,-14.324721663215879,21.457220309173643,-32.834919917831954
1760516273.981837,4.924287336693133,-0.08967209629867139,0.9213239004403968,-0.25328153375105417,-15.030070258447626,18.65661025712249,-34.65121532109476
1760516273.9918509,4.464185727835146,-0.07287923374531154,0.8862297196078994,-0.17645398672776588,-15.32489901138121,14.95220576020365,-36.38048368598955
1760516274.0018585,4.034684634408417,-0.04861002300623219,0.8424316718770973,-0.09295453984092487,-15.300613239731371,10.505378789881672,-38.02406988415837
1760516274.0117908,3.637948892606734,-0.019640184614901194,0.7934464780598147,-0.009247752406178684,-15.123447451930367,5.519730277641416,-39.59474775987198
1760516274.0215917,3.2714030970423007,0.011065289245479145,0.7444323540282849,0.06755983823245758,-15.034070149487027,0.21388976960308811,-41.12352111311068
1760516274.0315862,2.9281202720825594,0.04047684125628697,0.7015100039863711,0.13056197464605382,-15.338392444453655,-5.207145486115827,-42.66365068043806
1760516274.0417306,2.5975131941557525,0.06565595444288366,0.6707560090523212,0.1740053324414921,-16.388051291152582,-10.577813338961443,-44.290457979633665
1760516274.0515776,2.2663024435641415,0.0839492657330788,0.6570517088573978,0.19420170411679763,-18.55011737275173,-15.791075793770421,-46.09632975560776
1760516274.0615652,1.9196929788585202,0.09320405173870376,0.6630755905233319,0.19019090198218344,-22.16723269942644,-20.807985521863294,-48.181270706570864
1760516274.071732,1.5426421808717738,0.09197404011244453,0.6887407086387383,0.16395291418788005,-27.511475550102165,-25.656331317081392,-50.64010530859835
1760516274.08156,1.1210815847367053,0.07968452843020774,0.7312424809107532,0.12008449098241998,-34.73740682037417,-30.418518173599598,-53.5478855838354
1760516274.0915625,0.6429796613608295,0.05673320172958398,0.7856590137000841,0.06503178026961155,-43.84129722989007,-35.210310089823196,-56.945249980101025
1760516274.1016052,0.09918481564518786,0.024506783140874136,0.8458823262499497,0.0060906960313157526,-54.6337531678113,-40.153261281956,-60.825528660207794
1760516274.1115992,-0.5159682997547973,-0.014707324820301697,0.9056283685489251,-0.04960734209582981,-66.73161024342944,-45.34452329720485,-65.12539957820508
1760516274.121573,-1.2042867831136648,-0.05792857310566527,0.9593289857445135,-0.09596978744958187,-79.57250534372908,-50.828332149697125,-69.72084407624698
1760516274.1315668,-1.9635788042330935,-0.10179978173617688,1.0027787467111131,-0.1285862534234448,-92.45267176097119,-56.573875210015395,-74.42987755448357
1760516274.141567,-2.787745295498234,-0.14296754556991964,1.0334706108038163,-0.1450886511289433,-104.58553877621318,-62.46409297271225,-79.02283397109862
1760516274.151649,-3.667103536084108,-0.17845847130083467,1.050614139733824,-0.14520654248074868,-115.1756103862516,-68.2987514150004,-83.239791518941
1760516274.1619265,-4.5889320474379955,-0.20598992530783203,1.054889765879978,-0.13053660527639108,-123.49904176041461,-73.81261880310893,-86.81326653542142
1760516274.171592,-5.538209488889933,-0.2241823311387029,1.0480370674018693,-0.10409232940644601,-128.98004900176107,-78.7062966554607,-89.49303904474496
1760516274.1815634,-6.498500435095207,-0.23266439743748632,1.032386823036793,-0.06973303109019634,-131.25174384030984,-82.68425951576637,-91.06939311185721
1760516274.191839,-7.452921920115709,-0.23206952925185323,1.0104275278286285,-0.03157515095354865,-130.19187766664345,-85.49304778086655,-91.39141664890892
1760516274.201566,-8.38511007484974,-0.22391937132912507,0.984466779522612,0.006533415873318895,-125.9282340483448,-86.95281716869472,-90.37815255809751
1760516274.2115848,-9.28009955407552,-0.21039441080134838,0.9564219642572395,0.041428304924125386,-118.81398374939222,-86.97723172782688,-88.02183820087542
1760516274.2215858,-10.125034451171517,-0.19401163396718493,0.9277509845284067,0.07091214732680369,-109.3785780252743,-85.57921875847535,-84.38374365586068
1760516274.231576,-10.909652145277848,-0.1772628703081965,0.8995052038354445,0.09389792361627705,-98.26323161777724,-82.86272044983473,-79.58402337798131
1760516274.2416334,-11.626518444148358,-0.1622947829793785,0.8724579500173492,0.11040809683926466,-86.15112296933235,-79.00289143215687,-73.78755789704579
1760516274.2515812,-12.27103133730236,-0.15070415110420085,0.8472466269892224,0.12143682327622012,-73.70153422350359,-74.2189118198951,-67.18804744712214
1760516274.2615938,-12.84123683900293,-0.14347378195686097,0.8244740033156446,0.1287049926059998,-61.495176066445104,-68.74435412408165,-59.99259829833757
1760516274.271564,-13.337507937782116,-0.14101806658618357,0.8047416141724323,0.13435636621276922,-49.99559069855026,-62.79959788104893,-52.40863546980037
1760516274.2815757,-13.762132997090609,-0.1432823801040351,0.7886196168899324,0.14064183166412497,-39.52906242540748,-56.569335236592366,-44.634242367332035
1760516274.2915614,-14.118853456811623,-0.14985172564425953,0.7765748085701392,0.14962267955261568,-30.28292571285166,-50.18648929153493,-36.85221275619249
1760516274.3015976,-14.412388318300964,-0.16004921021367266,0.7688791193886306,0.1629104869622945,-22.319694528459536,-43.72267380104274,-29.22743018832775
1760516274.3116179,-14.647984716873054,-0.17302580474418164,0.7655172561208458,0.18145887427931187,-15.602476540931606,-37.185006517337634,-21.90674188762134
1760516274.3218405,-14.831036018614638,-0.1878511897894551,0.7661139067200393,0.2054258497273531,-10.026161537747637,-30.519426856876727,-15.020282976657832
1760516274.331578,-14.966806416420024,-0.20361042149561798,0.7699056727403678,0.23412625704877127,-5.449022533036313,-23.621076361797698,-8.683243457038415
1760516274.341572,-15.060290951872853,-0.21950027185746424,0.7757817765399415,0.2660871012893253,-1.7203569034570851,-16.352164741739063,-2.997280398455193
1760516274.3517408,-15.11622158207243,-0.23491178824289913,0.7824031172340575,0.29920400215750986,1.2988163925813312,-8.566787709751917,1.9489952262179853
1760516274.361588,-15.139204306543746,-0.24948450134226913,0.7883832966650289,0.33097872724406185,3.7235046927127207,-0.14063195313333438,6.080865546268882
1760516274.3717422,-15.133943890026886,-0.2631211652228093,0.7924915438881799,0.3588024662010953,5.640976852612628,8.998013034284751,9.339934102166584
1760516274.3815973,-15.105490492556124,-0.2759593234005704,0.7938303635169283,0.38024340793917083,7.11419304006867,18.840454008680272,11.688118553112782
1760516274.391591,-15.059436141457057,-0.2883062323422637,0.7919518053972676,0.39330186218015367,8.190123325502023,29.27756233691784,13.11278669934488
1760516274.4016068,-15.002002220611049,-0.30055296527028175,0.7868962255011852,0.39660748261087403,8.910158573822033,40.091170459557716,13.632134966282933
1760516274.411905,-14.939987808246073,-0.31308768340200915,0.7791566451440314,0.38954454355237284,9.319907817963536,50.95892996369688,13.299509116820346
1760516274.4215937,-14.880582866143868,-0.3262253253137602,0.7695850228575087,0.37229873977765693,9.47625091622984,61.472711607012364,12.20523585987548
1760516274.4315913,-14.831078902540419,-0.3401628672992714,0.7592625528864307,0.345823716470959,9.450396275909101,71.1687417225777,10.474790127538391
1760516274.4415808,-14.79852516254907,-0.3549596653723112,0.74935600714218,0.3117311757472676,9.326680589152529,79.56610352837893,8.262739729532747
1760516274.4516487,-14.78937852384369,-0.3705351445889422,0.7409789613360764,0.2721163539670795,9.197740785083262,86.20916057474838,5.7427247798154095
1760516274.461583,-14.80918293584398,-0.38667384109132646,0.7350731187409995,0.22933880283078364,9.157324660594446,90.70903998004036,3.0945375528068397
1760516274.4715738,-14.86229556993328,-0.40303058957885574,0.7323217621256971,0.1857845409549539,9.292306958785103,92.77957737585349,0.4900003469627775
1760516274.4815812,-14.951659124215238,-0.41913391635429376,0.7331030067950329,0.1436391735668741,9.675454316129976,92.26394948732124,-1.9203286982756957
1760516274.4915957,-15.078609412225063,-0.43439112818709,0.7374836665728427,0.1047010910189381,10.360201572175038,89.14943434358541,-4.0176382332443845
1760516274.501638,-15.242708428724052,-0.4481033587982023,0.7452473343889157,0.07025709181332034,11.378242966833056,83.56915720543498,-5.720974543157439
1760516274.5115926,-15.441605163630852,-0.45950029052994673,0.755946269128431,0.04103055266064278,12.74017982640538,75.79110161486022,-6.988122745838225
1760516274.5215814,-15.670944218708259,-0.46779835928435226,0.7689668034062632,0.017199241442330683,14.438879285501136,66.19596058786409,-7.811229346475906
1760516274.5315752,-15.92435760919484,-0.47227450576668206,0.7836006244573083,-0.001529444056317264,16.454688887168274,55.24652923243491,-8.207942894024898
1760516274.541583,-16.19358002176085,-0.47233835577196326,0.7991174450533322,-0.015802100838128667,18.76134384607045,43.45224114041433,-8.209519270088581
1760516274.5517266,-16.468716597499217,-0.46758565177442785,0.8148365478756007,-0.026478228447082693,21.331389673137924,31.332994891900437,-7.847796388176581
1760516274.5615907,-16.73866451846408,-0.4578235350906848,0.830194340410913,-0.03447985549293088,24.140215220092585,19.386414628802132,-7.14314029148181
1760516274.5715847,-16.991653087997825,-0.44306829430370703,0.8448029906193267,-0.040647404409891875,27.16822250209969,8.062018326338213,-6.095382370422528
1760516274.5816095,-17.21583615756211,-0.42352398978653666,0.8584935256581621,-0.04561813522932037,30.401070207740265,-2.2554778286544295,-4.679420767702907
1760516274.5915787,-17.39985959584779,-0.399554302081621,0.8713370998957726,-0.0497429640047056,33.82820614528794,-11.253055618931203,-2.8465764711489996
1760516274.6015859,-17.53334066312101,-0.37166043628616674,0.8836403795514682,-0.0530540686217635,37.44005052911179,-18.68746476090403,-0.5320086280865989
1760516274.611614,-17.607230155287866,-0.3404758776069606,0.8959140940746456,-0.05528970836828737,41.22423927881774,-24.376933122951836,2.332434232483504
1760516274.6216128,-17.614068549389394,-0.30678473835337333,0.9088170337408618,-0.05597502520701541,45.16128383044814,-28.19010657112568,5.801503955153858
1760516274.6317942,-17.548179236352663,-0.2715641317146013,0.923080938602334,-0.05454882380539541,49.219870849958255,-30.036336245111805,9.898377795457323
1760516274.641748,-17.405854212034882,-0.23604151913697233,0.9394244491653739,-0.05051728138923231,53.35192000624744,-29.861163807268895,14.597923123539207
1760516274.651605,-17.18557584270651,-0.20174580418573565,0.9584651642921576,-0.043608473337469845,57.48759133290618,-27.64965325091518,19.814369469071334
1760516274.6616647,-16.888286364557075,-0.17052046795500247,0.9806356044866578,-0.033899261091898794,61.530758911399886,-23.438131839754984,25.39591503114585
1760516274.6715865,-16.51767545609714,-0.14446420238329832,1.006101102069289,-0.02188920972114738,65.3559684728229,-17.332304666526337,31.127925767452325
1760516274.6815863,-16.080418330571295,-0.12577267151235175,1.0346708383622638,-0.008503188216405118,68.80834882817749,-9.527264654389091,36.745264178149746
1760516274.6916625,-15.586273059096367,-0.11647540673810988,1.0656976694672895,0.004985410632128156,71.7080495501378,-0.32337805521024915,41.9530719201561
1760516274.7015834,-15.04794415203994,-0.11809427592420874,1.0979833070088623,0.017103097766442654,73.86030305262075,9.868059162230747,46.454111344377026
1760516274.7115896,-14.480643790577531,-0.13128768593646242,1.1297334804671244,0.026368054640407774,75.07114920591947,20.533946954990274,49.979617715093795
1760516274.7216828,-13.901329482709185,-0.15556979103544397,1.158621225286276,0.031481347749430504,75.16747092221317,31.084956630292524,52.319661270612194
1760516274.731722,-13.327656280885147,-0.1891878915633433,1.1819977435428015,0.03147439516852439,74.01873653512214,40.89578205979242,53.34849149216395
1760516274.7417111,-12.776738582551488,-0.22920434654044455,1.1972428938346846,0.02578562274902017,71.557199440533,49.355308144573684,53.04052063920547
1760516274.751626,-12.263858765618515,-0.2717820672145143,1.2021945388805326,0.014261015108600316,67.79343097567038,55.920189380054886,51.47375278888147
1760516274.76159,-11.801278765675281,-0.31263246222348784,1.1955612812956198,-0.0029043597133881402,62.82472899378824,60.16495281887821,48.81961501198597
1760516274.7715876,-11.39730084483413,-0.34755393860086187,1.177217720096466,-0.02524645641127136,56.834808558405,61.82233014146992,45.320890704211095
1760516274.7816033,-11.055686680422268,-0.3729680560580435,1.1483067948295387,-0.052089218918265914,50.08408461555604,60.80872292329112,41.26193397816294
1760516274.7916095,-10.77548996020742,-0.38635665146965487,1.111123271067498,-0.08254998505727795,42.89084058738835,57.231490055972806,36.936678655676545
1760516274.8015957,-10.551302019715775,-0.3865226858382591,1.0688080007125256,-0.11549908425191027,35.6047254924921,51.377113051819755,32.619777003608235
1760516274.8115973,-10.373865218385076,-0.37363742995981997,1.024922858107459,-0.14951183039722166,28.575316561927497,43.68193266609872,28.54478206989252
1760516274.8215961,-10.23098009489551,-0.34908659845643647,0.9829908256226236,-0.18286528470435767,22.119690181003328,34.68952135248863,24.89124902285829
1760516274.8316038,-10.108617100925295,-0.31517186763867117,0.9460783539257821,-0.21362244038039838,16.493608213083252,25.00034627183851,21.78062055272397
1760516274.84159,-9.992134052197775,-0.27474497053470387,0.9164773279259263,-0.2398164614642989,11.870619928188912,15.219908701715239,19.27925018314188
1760516274.8516037,-9.867491529168575,-0.23084460639308163,0.8955196421635289,-0.2597088013884573,8.332039231030283,5.911070826106981,17.406131477839395
1760516274.8617716,-9.722354805054914,-0.1863839553589439,0.8835333877302554,-0.27206388760444056,5.868754537840556,-2.4449388011973325,16.14282663086699
1760516274.8715894,-9.54698088023677,-0.14391404718880543,0.8799290641685774,-0.27637221261017364,4.393724601066648,-9.47601379985212,15.443536738324477
1760516274.88158,-9.334814335866174,-0.10547092647501605,0.8833888966165101,-0.2729648799663082,3.762309022604341,-14.934114371984446,15.2439739852967
1760516274.891577,-9.08275014733113,-0.07250148548718131,0.8921222775241902,-0.2629889409637399,3.796603093856221,-18.698231845949202,15.468451056955288
1760516274.9015958,-8.79105997699018,-0.045854718242945146,0.9041450460317366,-0.24824520908171574,4.309791944226188,-20.767141082810962,16.03522255546131
1760516274.9115863,-8.463017917599027,-0.025823199941881914,0.9175407789693308,-0.23092106032094867,5.127097762522383,-21.244409832419688,16.860496917631806
1760516274.9215803,-8.104296804544747,-0.012221337374992638,0.9306698289805404,-0.213273466719264,6.100935585157199,-20.318313274718786,17.861659484796046
1760516274.931775,-7.722227435209863,-0.004487659945050233,0.9423053429781807,-0.19732651440439053,7.1191610589046475,-18.23904964212089,18.960145158027224
1760516274.9416025,-7.325013755784573,-0.001796860821501112,0.9516909293682342,-0.18464011511483183,8.106551994174316,-15.29515898614085,20.08415719281666
1760516274.9517,-6.920982161474616,-0.0031674337134330105,0.9585275578069308,-0.17618472204465144,9.020715541344329,-11.790526921040875,21.17115503450193
1760516274.9615996,-6.517924601165984,-0.0075555667394597015,0.9629054637471275,-0.1723277721019825,9.84430717453402,-8.02298058256305,22.16983050020231
1760516274.9716017,-6.1225797726087485,-0.01393236126062506,0.9652006436041652,-0.1729108444871256,10.575708713391146,-4.265328241569024,23.04123468527904
1760516274.981647,-5.740282781300095,-0.02134520427861175,0.9659558995700005,-0.17738034578682563,11.220143202537068,-0.7497084673728885,23.758834206956205
1760516274.9916565,-5.374799726935401,-0.028965763354554492,0.9657640641798869,-0.1849326363333444,11.782694318126845,2.34383595721273,24.307512212971844
1760516275.0016103,-5.028350760923151,-0.03612851784220379,0.9651674492595411,-0.19464492900562227,12.264013985337568,4.893730996384752,24.681773036715686
1760516275.0116134,-4.7018109620885165,-0.042363137570561066,0.9645841818176357,-0.20557940942314504,12.658833506311826,6.837724792323192,24.88355327325946
1760516275.021589,-4.395056921154167,-0.04741850387954536,0.9642684450763153,-0.2168615814221607,12.956876306521945,8.168402475482,24.920043994230564
1760516275.031598,-4.107398078685906,-0.05126853454166175,0.9643061717753763,-0.2277392565860835,13.145454777751796,8.924316493388659,24.801815919794066
1760516275.0416343,-3.838008098562734,-0.0540881370207133,0.9646408148778636,-0.23762632434042663,13.212909149899028,9.17832310479742,24.54138084332482
1760516275.0516167,-3.586268266846599,-0.056194857495995114,0.965117925849441,-0.2461303664759549,13.15207383205401,9.024973161166907,24.15219400028547
1760516275.0618832,-3.35195533001552,-0.05796259531878922,0.9655345374646567,-0.25306012851482323,12.963086694164211,8.568590999095115,23.648050833504904
1760516275.0716162,-3.1352430272284435,-0.059722974306283184,0.9656811095099451,-0.2584107430873107,12.655046195470396,7.913111405870805,23.04285098895589
1760516275.081619,-2.936532898664811,-0.061677775309038604,0.9653702295998993,-0.2623315165127971,12.246246670798765,7.15410144214664,22.350734278650318
1760516275.091599,-2.7561765530132645,-0.06384901386039957,0.9644537818609812,-0.2650876131998801,11.762971375598392,6.3729318393865615,21.58657294165077
1760516275.1016004,-2.594178499181842,-0.06608292022807688,0.9628333369486798,-0.2670251851164383,11.237072222450518,5.632895510099652,20.766712879250182
1760516275.1116326,-2.4499565333622,-0.06809998387740142,0.9604664879574379,-0.2685391945296541,10.702770191948119,4.977130892683195,19.90973197144597
1760516275.1216917,-2.3221919349538487,-0.06956197849952703,0.9573694875513626,-0.270034633712362,10.193223713244144,4.428327179647378,19.036893162934437
1760516275.1316204,-2.2087591695121414,-0.07012664576839336,0.9536164069300643,-0.271874651490279,9.737408515503544,3.990222802346225,18.171975075465205
1760516275.1418195,-2.106714541723608,-0.06947969534418105,0.9493353599833594,-0.2743213421358459,9.357739586516626,3.650808014928068,17.340290039971833
1760516275.1516545,-2.0123402853291124,-0.0673521161872476,0.9447018603600138,-0.2774857566882892,9.068681449816363,3.3869431038418023,16.5669196567143
1760516275.1618195,-1.9212568427002188,-0.06353436793456198,0.9399290222374088,-0.2813045118658672,8.876392207782903,3.169883812630376,15.874435169813992
1760516275.1718295,-1.8286145811896792,-0.05789218428790365,0.9352543985885172,-0.285551555637465,8.779282808916753,2.97103983306685,15.280543188633407
1760516275.1817708,-1.7293606868890559,-0.05038204647873392,0.9309230310153936,-0.2898814182041182,8.769275322276478,2.7672226119723335,14.79615904023992
1760516275.1916234,-1.6185572352218336,-0.041061468203473166,0.9271661392579299,-0.29389099467305557,8.833511704711892,2.544677489018277,14.424348901071133
1760516275.2016573,-1.4917096089178787,-0.030089059231569727,0.9241762952034462,-0.297184209337754,8.956276612743324,2.301346162578851,14.160411516238062
1760516275.2116165,-1.3450573299994055,-0.017711870622691393,0.9220830069831149,-0.2994276766377911,9.120928238302623,2.0470619695010157,13.993129970414277
1760516275.2216468,-1.175787440329321,-0.004242531529734035,0.920935281482624,-0.30039234009716315,9.311659521008846,1.8017029827018833,13.906974121247213
1760516275.2316144,-0.9821522007949831,0.009966597428958413,0.9206974561328121,-0.29998172756890573,9.514929599912344,1.5916502602562748,13.884835387643317
1760516275.241612,-0.7634977688377854,0.024544342252076287,0.92126051519572,-0.29824887398734956,9.720418453530582,1.445160753758628,13.910768959008994
1760516275.251627,-0.5202260902317509,0.03911316440173824,0.9224651683538491,-0.2954011797135787,9.92138590559772,1.3874268333582422,13.9722218169221
1760516275.2619057,-0.2537135963647046,0.05329561398110324,0.9241292815060883,-0.29178926178813314,10.114379489335105,1.436131581782923,14.06133335130667
1760516275.2716246,0.03379692554648114,0.06672021023951558,0.9260731908176647,-0.2878765494263227,10.298337484032077,1.5982110132251979,14.175082603235625
1760516275.2816083,0.33932223022968633,0.07903095179213394,0.9281396515094742,-0.284191260240102,10.473252886703971,1.868316489248123,14.314280221192137
1760516275.2916095,0.6592768480307905,0.0899016834278404,0.930206871885882,-0.2812678876676875,10.638664365748584,2.2291748278096675,14.481618682190161
1760516275.3016794,0.9896183008191468,0.09905377478100277,0.9321930944294792,-0.27958838729925944,10.79228970581422,2.6537266740010312,14.679164730111957
1760516275.311847,1.325991672492013,0.10627354073216437,0.9340520231419633,-0.2795333767779244,10.929104413411151,3.108641632840894,14.90577861476627
1760516275.3216176,1.6638636694807616,0.11142514302462923,0.9357608703208421,-0.28135137489850603,11.041094682050522,3.5586096910787366,15.154959907619821
1760516275.3316164,1.9986364208052243,0.1144554609544743,0.9373053032665751,-0.28515013434027786,11.11778301860814,3.9707286877823784,15.413545151421022
1760516275.341614,2.3257344849525055,0.11538913081799612,0.9386664589142495,-0.29090969570629804,11.147450867580416,4.318358412160009,15.66153258893309
1760516275.3516264,2.6406658400387784,0.1143149354318733,0.9398140665117114,-0.2985128494642506,11.11880684848166,4.583968673209135,15.873116555310263
1760516275.361813,2.939069352911495,0.1113685422000325,0.9407071393534534,-0.30778539938106114,11.022728509875535,4.760717079006084,16.018817639780636
1760516275.3716223,3.2167725348286145,0.10671837090609115,0.9413006144248871,-0.31853612351292865,10.853681658882474,4.852691415225002,16.068425543878835
1760516275.381627,3.4698861328477255,0.10055908401509071,0.941554059586626,-0.330585470203657,10.6105075052165,4.873900309275247,15.994351758132304
1760516275.3916183,3.694952767233534,0.09311277682540174,0.9414385721630449,-0.34377418823131967,10.29644729748348,4.846189023727057,15.774934837850004
1760516275.4016073,3.889149849888603,0.08463494870971844,0.9409402109886602,-0.3579487318527717,9.918490303101082,4.796321944737289,15.397256611543916
1760516275.4116104,4.050529668909495,0.07542184480120584,0.9400606572146001,-0.3729275841768101,9.486298175362915,4.752543638882668,14.859101489615377
1760516275.4216456,4.178265235509592,0.06581591693461687,0.9388165698204793,-0.3884586905697038,9.011015741635687,4.741013601399839,14.169805299058359
1760516275.4316425,4.272859113778219,0.05620550276192314,0.9372387770756063,-0.404181206954851,8.504228674080363,4.782575920674022,13.349882003727645
1760516275.4416122,4.336266278673128,0.04701482411373291,0.9353723743469217,-0.419604459478672,7.977219256974657,4.890330281195264,12.429475241273405
1760516275.4516115,4.371886858940836,0.03868308083484241,0.9332791760464397,-0.4341137686094785,7.44054863586358,5.068390530757729,11.445835374244902
1760516275.4619842,4.3844029450788335,0.03163572567573144,0.9310437647214931,-0.4470073565340435,6.903887859186092,5.312058609600892,10.440138775265256
1760516275.4718142,4.379461170147476,0.0262540764525983,0.9287827080320185,-0.4575620769701974,6.375953718486689,5.609434956502788,9.454019876348832
1760516275.4816165,4.363232285904871,0.022849866154951395,0.9266537615411093,-0.46511974721320243,5.864397772072171,5.944270755142126,8.52618112528048
1760516275.4916372,4.341902967811031,0.02164901829108055,0.9248595234550637,-0.46918205730496515,5.375551273118034,6.299678335931379,7.689401657012795
1760516275.5016215,4.321166423030675,0.02278426494819938,0.9236394590202492,-0.4695006892135261,4.914021928462294,6.662175362737568,6.968198832052105
1760516275.5116432,4.305775008370511,0.02629168477132562,0.9232462257687141,-0.46614870674751163,4.48223147223761,7.025457325055991,6.377318821341732
1760516275.5216212,4.299205097237291,0.03210492131488328,0.9239071302255775,-0.4595584929460427,4.08004693768248,7.393287491326328,5.921150942913325
1760516275.5316644,4.303466382337202,0.04004229515593057,0.9257784468428579,-0.450513088922412,3.70468712972388,7.78098027156214,5.594076663781452
1760516275.5416396,4.319063104618749,0.049783293879436946,0.9289062810074109,-0.44008514862540227,3.3510816887234194,8.215120488450733,5.381679506888226
1760516275.5518007,4.345083035172105,0.060831936660439206,0.9332091632960358,-0.42952965105952123,3.012814334141975,8.731359541730468,5.262668400718094
1760516275.5617828,4.379362209653332,0.07246915830157344,0.9384929386438612,-0.4201471623692499,2.6836765107940557,9.370317336581856,5.211319354761568
1760516275.5716355,4.418668117927152,0.08370731303529692,0.9444985066701307,-0.4131395451203954,2.359686757828281,10.17180362672591,5.200218318199906
1760516275.5816174,4.458871812905145,0.09327360555166184,0.950970493479142,-0.4094798210086217,2.0412165263583484,11.167803698695764,5.203069732343912
1760516275.5916076,4.495129939378938,0.09965721572322257,0.9577253265867289,-0.40981278321593284,1.7346638154098921,12.374979552650487,5.197297816381015
1760516275.60163,4.522143351994915,0.10124955412041824,0.9646967036768901,-0.41439297635500966,1.453027543935941,13.787759175414417,5.1661170054944385
1760516275.611645,4.534570991306194,0.09658634974703008,0.9719459811846602,-0.42305739275023485,1.2148473551322905,15.373271746382022,5.099722527609588
1760516275.6216195,4.527643582466806,0.08466837165369047,0.9796358878120126,-0.4352281420524581,1.0412964100949442,17.069281720052857,4.995293903698825
1760516275.6316173,4.497951037978633,0.06530196930769132,0.987969561246249,-0.44994277028423685,0.9516725168426814,18.785837952983268,4.855630458408046
1760516275.6416085,4.444289849187572,0.0393686854927659,0.9970978392582058,-0.46591186431357273,0.9580166445185845,20.41069412788337,4.686441147639551
1760516275.6516232,4.368374238660353,0.008919712591231,1.0070071848407354,-0.4816067272343926,1.0599577394218576,21.817889246871687,4.492573582375426
1760516275.6618474,4.275172966475278,-0.022979581427641154,1.0174171256413882,-0.4953831933568075,1.2409657117273407,22.878438339302594,4.273756866274929
1760516275.67197,4.172674725933834,-0.052653574942315276,1.027724765300147,-0.5056434994591932,1.4669128179148192,23.472004899776532,4.020680649459042
1760516275.6817486,4.071014214230008,-0.07638509189206046,1.037025306726814,-0.5110260919404229,1.6873289326717014,23.498642931713313,3.7123368019013263
1760516275.6916356,3.9810563569499253,-0.09102608792066681,1.044217043510537,-0.5106023999457026,1.8392134643961204,22.889986403558414,3.3154302510158833
1760516275.7016356,3.91267083851677,-0.09453778992563469,1.0481776256536375,-0.5040551808900325,1.8528627659313148,21.619356159737166,2.7863302754033135
1760516275.7116249,3.8729999894166918,-0.08637621049065064,1.0479810179421765,-0.49181155415796735,1.6589004206155733,19.709957559645755,2.0755878740824265
1760516275.721641,3.865034061103195,-0.06765757165523716,1.0431116907778277,-0.47509897353825375,1.1955663585759186,17.239740406709103,1.1346137651530066
1760516275.7316358,3.886771729971678,-0.04104889148890221,1.0336257218398484,-0.4558841677547185,0.4153785248375316,14.341020599902112,-0.07624566459132265
1760516275.74176,3.9311622340534873,-0.010360802821915642,1.0202148430157219,-0.43665798947394563,-0.7094433503951567,11.193140546716497,-1.5792907784262802
1760516275.7518342,3.9868961197913415,0.020107659917388967,1.0041538400829835,-0.4200610002018778,-2.1830016153825933,8.007488722402842,-3.372010881232692
1760516275.7618363,4.039946637039365,0.04633611072075027,0.9871431206428036,-0.40839985263839007,-3.9830925711318605,5.00587767802645,-5.422044148360816
1760516275.7717268,4.0756002712507415,0.06528087908933117,0.9710782099762547,-0.4031526171277428,-6.059786584240244,2.3950679556075447,-7.6659715789036
1760516275.781667,4.080602418773617,0.0753478768204889,0.9577833419862295,-0.4045769853353274,-8.335298405322686,0.3415429048963519,-10.012994295205681
1760516275.7916203,4.045020767536654,0.0765573484497045,0.948748907448982,-0.4115175720451214,-10.705562080266336,-1.0489529089955743,-12.353811127237545
1760516275.801623,3.963499431144563,0.0703996017508503,0.9449170533882829,-0.42147002659711363,-13.044197062557934,-1.7432651301885846,-14.5740268469162
1760516275.8116405,3.835712043023626,0.059442187665647364,0.9465576709010354,-0.43091223454137706,-15.209628080925652,-1.7818030752366034,-16.57041180363737
1760516275.8216236,3.665979157954261,0.04678119960302666,0.9532611801764198,-0.43586378959617333,-17.0559189183567,-1.2684675796164826,-18.267573028574272
1760516275.8316417,3.462159461531708,0.03543921148207534,0.9640489264507438,-0.4325887011254546,-18.447405444715027,-0.35153170848740295,-19.632304894212478
1760516275.8416374,3.234034295616292,0.027809792963366636,0.9775754928415998,-0.4183175949523747,-19.276555132013524,0.8007146668304729,-20.68314342166663
1760516275.8517787,2.9914701380339976,0.02523779532384486,0.9923761716383673,-0.3918442396094175,-19.48374043029398,2.0246238375367613,-21.49338941973766
1760516275.8619056,2.742658837755692,0.027802740145228627,1.0071035792545222,-0.3538634548863681,-19.07685884151565,3.181004626565164,-22.1869580295042
1760516275.871653,2.4926987833215706,0.03433537011474188,1.020705882000903,-0.306971590743016,-18.14805860719208,4.165750420486518,-22.927647763835573
1760516275.8816607,2.2426974597855804,0.042649576549497255,1.0325215019002707,-0.2553285753466892,-16.88442176180822,4.90879843600928,-23.90348088516685
1760516275.891651,1.9894677471648068,0.0499304403057765,1.042288192322511,-0.20404786472898553,-15.569497252823558,5.3616445656578975,-25.308351472693495
1760516275.901664,1.7257892876145369,0.053200085251215466,1.0500799076671783,-0.15841986767299768,-14.57311229246457,5.476611399208468,-27.323257765461275
1760516275.9116426,1.4411372207789976,0.04978555417518035,1.0561964454213297,-0.12309373808942081,-14.327886885317241,5.183501733869963,-30.099034139053426
1760516275.921917,1.1227461964587762,0.03772307066968181,1.0610412793707886,-0.10135136057984889,-15.292374365267495,4.370449758308583,-33.74192847721814
1760516275.9317226,0.7568666527548613,0.01604423944226174,1.0650240594973157,-0.09459734561546863,-17.90283559675989,2.8753148830322695,-38.3027704753678
1760516275.9416513,0.3300744374606995,-0.015092393134145479,1.068507992247105,-0.10214752401707006,-22.51818210768839,0.49191730943229567,-43.76999665444909
1760516275.951636,-0.16948886875594635,-0.0544339874767063,1.071798207838559,-0.12133556271374694,-29.36498692839723,-3.007691685492589,-50.06650851623055
1760516275.961908,-0.7510419397317785,-0.09981129049496473,1.0751530680214354,-0.1479010322830272,-38.490780528602905,-7.83715485182042,-57.050223969577196
1760516275.9716287,-1.420323197363208,-0.14842171635618645,1.0787993769751134,-0.17658977686554403,-49.73351722971677,-14.151216255423735,-64.51820706732727
1760516275.9818027,-2.179023406519279,-0.1971683985145121,1.08293457515192,-0.20188319611865688,-62.71315670054251,-22.000087159415006,-72.21439349279069
1760516275.991621,-3.024510406306238,-0.24300848427015423,1.0877003065309723,-0.2187650224720954,-76.84829958349344,-31.291223213224562,-79.84104315621921
1760516276.0016484,-3.9498512716723244,-0.28327379670812464,1.0931186036181653,-0.22342848739397636,-91.39740066844884,-41.76654386726706,-87.0739453620397
1760516276.0118093,-4.944125310424114,-0.31593656206142406,1.0989985971565834,-0.21382420986138329,-105.52077967475962,-53.00133695373703,-93.58101585469805
1760516276.0218797,-5.9930059708212235,-0.3397955273461193,1.104842587396085,-0.18995267851600317,-118.35677256626519,-64.42811519608837,-99.04341943184446
1760516276.0317943,-7.0795694739776645,-0.3545560756402773,1.1097941160482512,-0.1538291877189396,-129.10310102555388,-75.38475652447914,-103.1778746202561
1760516276.0417485,-8.18526632426121,-0.3607855406743413,1.1126685075367007,-0.1091109101716093,-137.09318838214915,-85.18181160741702,-105.75833292333603
1760516276.0516598,-9.290974728225587,-0.35975015081472916,1.1120867507017342,-0.0604625207623615,-141.85717543874375,-93.17977575115735,-106.6347688894469
1760516276.061757,-10.378046069175221,-0.3531699075536769,1.1067007925266397,-0.012801883827168336,-143.15910725702122,-98.8645208025142,-105.74654581590222
1760516276.0716546,-11.429251880555528,-0.3429396642265116,1.0954598342979491,0.02942339755647227,-141.00519836440486,-101.90881142455436,-103.12800732286995
1760516276.0816262,-12.429548499441081,-0.3308543092389437,1.0778382443485293,0.06281497047049517,-135.62293642710335,-102.2100243913156,-98.90473642165132
1760516276.0916631,-13.366591595127419,-0.31836418107296144,1.053949460099769,0.0853958075003209,-127.41615648913422,-99.89826798520238,-93.2802483164455
1760516276.101636,-14.230961390666133,-0.3063931255693878,1.0245167949596492,0.0967549301890531,-116.9056083607865,-95.31413414254187,-86.51451804278234
1760516276.1116583,-15.016100131613797,-0.2952650757364721,0.9907359289431894,0.09797308814747373,-104.66652881847492,-88.96032641161436,-78.89735330640278
1760516276.1216547,-15.718007630409485,-0.2847748004606471,0.9541013689406672,0.09135946328497839,-91.27376010892304,-81.43541963822138,-70.72072802849279
1760516276.1317477,-16.3347746209793,-0.274391688322936,0.9162597933983249,0.08004924951838539,-77.26155256017667,-73.36026280196991,-62.254354569677794
1760516276.141845,-16.866047060406924,-0.263526113526721,0.8789125965629612,0.0675271688997698,-63.10062668806347,-65.30776775155198,-53.72792252808609
1760516276.1516383,-17.31250816639741,-0.2517592918201562,0.8437491804026294,0.057147155670241215,-49.19076190037024,-57.745224801790016,-45.32189085593108
1760516276.161689,-17.675447848107996,-0.23896352539687904,0.8123741111942746,0.051714865228413835,-35.86419409082182,-50.995317468514074,-37.16693011424348
1760516276.171659,-17.956469064539494,-0.2253001561439991,0.7861999090368327,0.053191831834411195,-23.39402437615058,-45.218369481308166,-29.350489891162503
1760516276.1817098,-18.157359217193296,-0.21113375438344315,0.7663049565412187,0.06256229696920478,-12.002656662119234,-40.41487888537975,-21.927895473242796
1760516276.191747,-18.28013103038791,-0.1969184261376337,0.7532873856832607,0.07986672051345006,-1.8672592509910957,-36.44479378841369,-14.935081090786719
1760516276.2016857,-18.327212661890513,-0.18310145731987862,0.7471618426391533,0.1043605245870403,6.8787327773798514,-33.05864125359685,-8.400458106893755
1760516276.211697,-18.301744393747224,-0.17006764385923112,0.7473372096723054,0.13473040939071926,14.14767093483806,-29.93546463038736,-2.35417719820094
1760516276.2217686,-18.207922521419043,-0.15812700777137248,0.7526882645760077,0.16930717317481198,19.902021806427182,-26.723107774987664,3.166144986176509
1760516276.2317197,-18.051322234558064,-0.14753552687369476,0.7617084628698131,0.20624108105006111,24.158973794096823,-23.077178272765142,8.11349121421035
1760516276.241638,-17.839131533957364,-0.1385344578698404,0.7727137036358784,0.24363346651277581,26.99285959304664,-18.695718827629417,12.433076152872529
1760516276.2517707,-17.58023794181271,-0.13139551619031065,0.7840601295698983,0.27963448448861383,28.533147129022897,-13.34720393405754,16.066971486300595
1760516276.2618926,-17.285129141391504,-0.12646149905223333,0.7943409984761943,0.3125197748511319,28.9568535800153,-6.890099678745608,18.960840760190642
1760516276.2716644,-16.965597118128642,-0.12417289732607685,0.8025347479450126,0.34075358115320864,28.475844957702645,0.7170225026482574,21.071631153026114
1760516276.2816672,-16.63426872608772,-0.1250723425583257,0.8080856009213111,0.3630398418391643,27.32083106448804,9.414972128906918,22.37495278836085
1760516276.2916973,-16.304015549895826,-0.1297819243124021,0.8109084239340975,0.3783592521228477,25.72443206552879,19.052288419155715,22.871035656810538
1760516276.301709,-15.987314172262241,-0.1389528580008646,0.8113204959239091,0.3859893432158359,23.905561717095356,29.40080685416928,22.588569967328525
1760516276.3118348,-15.695630108871235,-0.15319083151324997,0.8099140824181019,0.38550626036737723,22.056900918133515,40.17597411164937,21.586217981367774
1760516276.3218017,-15.438884279592726,-0.1729616531076567,0.8073949443453542,0.37677004237894585,20.336610045739995,51.05895535568431,19.951926950666813
1760516276.3316941,-15.2250339155536,-0.19848124977703285,0.8044202359044371,0.3598970161318494,18.864681628064425,61.71766324749215,17.800314883661752
1760516276.3416636,-15.059770308087876,-0.22959699014935486,0.8014699175990044,0.3352225777590249,17.723572793642923,71.82451191054984,15.268429586570686
1760516276.351645,-14.946316284132607,-0.2656776603398133,0.7987773818577638,0.30325776449395864,16.96217937658675,81.0697558416125,12.510202006626105
1760516276.361858,-14.885303331449771,-0.30554169850009394,0.7963307332808265,0.2646461242015556,16.601966060849556,89.17038645147754,9.68996642183979
1760516276.3719728,-14.87471885920455,-0.34745649555157126,0.7939406748863251,0.2201319308052749,16.644154534718737,95.87543528291599,6.975480227807269
1760516276.381646,-14.909929578861366,-0.3892301778387519,0.7913579246156112,0.170551465642198,17.077180643939453,100.96904993323037,4.530897220639887
1760516276.3916433,-14.983799200026017,-0.4283949828734826,0.7884150055613712,0.1168519577322591,17.883983627392617,104.27289947777818,2.510082739835437
1760516276.4017003,-15.086922760195824,-0.4624571418468082,0.7851646639806791,0.060130575934992436,19.04889838411061,105.64939813862004,1.0504874110307003
1760516276.4116673,-15.207994897133707,-0.48917134108502597,0.7819887475327678,0.001676412047073878,20.563862455389334,105.00691201531946,0.2675661635078333
1760516276.4216874,-15.33431688445014,-0.5067934495496877,0.7796558626639427,-0.05700261906713582,22.43333712771238,102.30747849575896,0.24956370507516143
1760516276.4317005,-15.452430272965136,-0.5142723339385188,0.7793135914604638,-0.11417948119746116,24.676945850345163,97.5766065464044,1.0525177414372138
1760516276.4416528,-15.548846693315966,-0.5113553892013913,0.7824113565693158,-0.1679368855389979,27.328612491589027,90.91357482756898,2.6955812229382703
1760516276.451687,-15.610826810642797,-0.4985981369380248,0.7905610029905564,-0.21622113642028018,30.431159470404577,82.4996487920091,5.15710233767258
1760516276.4616904,-15.627149828098833,-0.47728350611403403,0.8053505535174703,-0.2569142290840706,34.02596060654405,72.60126124289408,8.372132929590105
1760516276.4719455,-15.588811357777324,-0.44927003655527836,0.8281307156843285,-0.2879197504157533,38.138200462412534,61.565733504676544,12.232058314279247
1760516276.4817076,-15.48959293528069,-0.41679761240699814,0.8597948859714789,-0.3072647770606412,42.7593337509432,49.80841538982432,16.5868791343915
1760516276.491972,-15.326458659623176,-0.3822810115092013,0.9005746453480278,-0.31322810779472804,47.829241063322876,37.791691784849895,21.25042109664868
1760516276.5018644,-15.099749101920978,-0.3481156433709686,0.9498758947804007,-0.30450959942676503,53.221179687345526,25.997618364723465,26.00849457919187
1760516276.5117028,-14.813156329446437,-0.3165102334710548,1.0061842503493856,-0.280450816069686,58.73282744342766,14.896768994292287,30.629811509975422
1760516276.521652,-14.473475519718322,-0.28935006884377706,1.0670671067312745,-0.24130023801404596,64.0864501747102,4.916290888712409,34.87925391129788
1760516276.5316718,-14.09013890311695,-0.2680821525594842,1.129288759946602,-0.18848765490063416,68.94045589108846,-3.589663945689687,38.53282948111941
1760516276.5424037,-13.6745489083682,-0.2536056965221426,1.189035074272647,-0.12484030637433273,72.91331207282003,-10.364013129973562,41.39334771881045
1760516276.551692,-13.23924255956527,-0.2461572750854775,1.242224767149321,-0.05465271551533523,75.61900389694902,-15.262584281590833,43.30553749122356
1760516276.561799,-12.796940068874632,-0.2452024198111129,1.2848752772957415,0.016472879689112922,76.71101884020108,-18.259831007004635,44.16906630809015
1760516276.5717723,-12.359555199812005,-0.24937520305399904,1.3134916290261691,0.08206196299900156,75.92958223972413,-19.44393119690727,43.94784374688121
1760516276.5817306,-11.937267684421009,-0.2565271805317943,1.3254466951149277,0.1354614046204158,73.14505879202719,-19.00248243442074,42.674232056842214
1760516276.5916817,-11.537770322890518,-0.2639388547879861,1.3193141314266619,0.17069740228740035,68.38969172680449,-17.201438722850053,40.447356407009586
1760516276.6016579,-11.165796130238423,-0.2687023854708318,1.2951054823843569,0.18334173125939868,61.87071218645987,-14.360523746777638,37.42546531507617
1760516276.6116924,-10.822998483097003,-0.2682164441544734,1.2543622949126312,0.1712115363000602,53.960501389325145,-10.827968496009861,33.81306032049622
1760516276.6216605,-10.50820239467821,-0.2606754349016673,1.2000718319739991,0.13476402546682134,45.16351667612213,-6.956385372245711,29.844187010335688
1760516276.6316564,-10.217979747953455,-0.24541978014057536,1.1364081401327752,0.07712013725442352,36.064114714274105,-3.0805170597778955,25.763791139977958
1760516276.641661,-9.947443332260347,-0.22305368755298283,1.0683326522331649,0.003724653357663958,27.263022192859243,0.5029379678017368,21.809271664997127
1760516276.6517422,-9.69112063924825,-0.195311594842174,1.001105481021676,-0.07830017544546797,19.312127031625884,3.5530110189475916,18.19418301288643
1760516276.6616776,-9.44376657091853,-0.16472589439341298,0.9397613448505905,-0.16102227031815783,12.657224278349647,5.89856426655607,15.095490338818477
1760516276.6716597,-9.2010002728572,-0.1341876238094524,0.8886044307694919,-0.23668071580832487,7.596585081787157,7.447125428436409,12.645073855168999
1760516276.6816702,-8.959693053777933,-0.10649455139363978,0.8507795705688886,-0.29864937884895254,4.260203346054523,8.186802840767006,10.925528178975354
1760516276.6916914,-8.718080065385912,-0.08396106722291717,0.8279760643232512,-0.3422411919335898,2.610965278760402,8.180438109632922,9.969821955127179
1760516276.7018807,-8.47561178857979,-0.0681370846205757,0.8203070659814282,-0.36522615851945933,2.4655445226797874,7.552486473167646,9.764096982101684
1760516276.712013,-8.232599810244757,-0.059658041969142886,0.8263820148684805,-0.36798046609233664,3.5301996828705158,6.47046207501998,10.25278355098993
1760516276.7216647,-7.989741714562643,-0.058228203806037285,0.8435596614912696,-0.35324846301557017,5.4451909015123725,5.123664805198935,11.345265559401808
1760516276.7316592,-7.74762689832097,-0.06272459487184694,0.8683421486476585,-0.3255692689483686,7.831255611539571,3.7020863708680447,12.923501698444193
1760516276.7416637,-7.506324489842268,-0.07139821190430681,0.8968507583007538,-0.29048033461295697,10.332252446034769,2.3779608612767023,14.85022424912627
1760516276.7517672,-7.2651373409197335,-0.0821425607034342,0.9253143509345534,-0.2536473163390206,12.649355258184016,1.2916451797761672,16.97751100330599
1760516276.761716,-7.0225775377581785,-0.09279654746617998,0.9505037554565832,-0.22007400532569737,14.563766897571492,0.5426435134210245,19.155600544668555
1760516276.771677,-6.776582953074547,-0.101447141467658,0.9700577967964021,-0.1935176207843807,15.946633949666587,0.18580185847869837,21.24177673543444
1760516276.7816832,-6.5249518016211985,-0.10669490404891716,0.9826655620778884,-0.17618236638974766,16.756542757204308,0.23210258352007984,23.10899532695971
1760516276.791671,-6.265924333343861,-0.10784294151226823,0.9880917282627939,-0.16870154183527844,17.026527377544667,0.6531333641205516,24.653709744110433
1760516276.8016975,-5.998794983628431,-0.10497184795737172,0.9870548977791749,-0.17036082458396126,16.843754772359034,1.3881736978587143,25.80216607940289
1760516276.811815,-5.72441089459262,-0.09887767473518681,0.9809899403134918,-0.1794766254017166,16.32578715358089,2.352876209028353,26.51438931065767
1760516276.8216717,-5.4454232202748845,-0.09088008508649678,0.9717408186641501,-0.19383206815725482,15.597414627935494,3.4486455356780223,26.785235115712307
1760516276.8317127,-5.166212932775215,-0.08254404894045088,0.9612375671078094,-0.211087006502857,14.771473302886164,4.571962086611336,26.642214272196224
1760516276.8419335,-4.8924966511070025,-0.07538274206511247,0.951208941888986,-0.2291065185436094,13.935934761959771,5.623003373134726,26.14023883680024
1760516276.8517067,-4.630696300352213,-0.07060822121458535,0.9429713256461228,-0.24618176967724187,13.148128997413892,6.512979382723406,25.353903357245912
1760516276.8617682,-4.387196411085877,-0.06897038931398276,0.9373168287771242,-0.2611394822805784,12.435565203530327,7.169699995562078,24.3683013535251
1760516276.8716707,-4.167606349068545,-0.0706903942052356,0.9345032172889264,-0.27335032213322086,11.801727130543371,7.541125297015488,23.269591959051986
1760516276.8816953,-3.9761147143159077,-0.0754736047588782,0.9343301422253044,-0.28265681770260437,11.234619416041795,7.5970029027193124,22.13651761633696
1760516276.8919861,-3.8149985949335905,-0.08258524968018706,0.9362730857299075,-0.28925014766229135,10.715779707393816,7.329029018173164,21.033840271859276
1760516276.9017107,-3.6843369016950964,-0.0909748913678738,0.9396395882075941,-0.29352849578986157,10.227878738768945,6.750108134252627,20.00828249149085
1760516276.911724,-3.5819619556724565,-0.09943312952984787,0.9437133731192845,-0.2959654791666401,9.759739766060884,5.893141132112758,19.08713435553565
1760516276.9217198,-3.5036603316180717,-0.10675943795742521,0.9478617481942893,-0.2970093632842532,9.308409605745615,4.809399793948354,18.279309541706663
1760516276.931794,-3.4436058441782564,-0.11191967945265346,0.9515963701951216,-0.29702577439921385,8.878614398457586,3.5661383779780915,17.57835892107437
1760516276.9417722,-3.3949758196596007,-0.11417331705590571,0.9545906350463372,-0.2962870502368989,8.480397308563768,2.242888663764927,16.96678902355541
1760516276.9516704,-3.3506682599101376,-0.11315203852703905,0.9566650413109375,-0.2949998252068015,8.125902983123042,0.9260348026299592,16.420973941529947
1760516276.9616864,-3.304013160468929,-0.10887758642094494,0.9577552027067298,-0.29335277160127393,7.826180471235045,-0.2982666965277993,15.91597978568487
1760516276.9716783,-3.2493693050141204,-0.10171846967718698,0.9578765340061903,-0.29156224526688407,7.588631384170124,-1.352168972380467,15.429727267375338
1760516276.981681,-3.1825209522324798,-0.09229773700613644,0.9570953779582737,-0.2898955581275958,7.415448999885237,-2.174098377733013,14.946076644581785
1760516276.991682,-3.100828760395232,-0.08137197272887799,0.9555103390682433,-0.2886593922128691,7.303147326762204,-2.7252869327947464,14.45660440164352
1760516277.0016625,-3.0031347823739143,-0.06970422982047642,0.9532427440547466,-0.2881534687241356,7.243089765223568,-2.9936841046323632,13.96103601642131
1760516277.0116806,-2.8894628636122683,-0.05795195552746519,0.9504329093023135,-0.28860319561181796,7.222795039299826,-2.994450141248536,13.466486315129407
1760516277.0216722,-2.7605869354671095,-0.046586433711645184,0.9472386697526785,-0.29009382528331695,7.227721927634352,-2.7667966569847176,12.9858064024126
1760516277.0318482,-2.6175573854954584,-0.03585408584087958,0.943833216543521,-0.29252876198403954,7.243214384611152,-2.367561184159565,12.535411227548744
1760516277.0417662,-2.4612784387009206,-0.02578289393839485,0.9404000571123585,-0.29562656764944445,7.256318633032534,-1.8624690603880747,12.132957292047937
1760516277.0518093,-2.292216118256075,-0.01622951886241484,0.9371238927184332,-0.29895891715449724,7.25724758041401,-1.3164427068763815,11.795176634097302
1760516277.0617435,-2.11028718078237,-0.006955128767957785,0.9341776253124819,-0.3020203444347612,7.24034714747391,-0.7844825184144695,11.536079563814239
1760516277.0717993,-1.914939052473479,0.0022876295684119254,0.9317073084672007,-0.3043139948646684,7.204499520511388,-0.30453322721241827,11.365638501528316
1760516277.0816882,-1.705388785846449,0.01167559141057481,0.9298178781863393,-0.3054366216877268,7.152969647691361,0.10660976880604087,11.288977337620176
1760516277.0919456,-1.4809563758007969,0.021259814806913174,0.9285623671119494,-0.30514858304104175,7.092758205623549,0.4538345722020381,11.306027353240294
1760516277.1016638,-1.2414117287030546,0.03094338778840997,0.9279363041744291,-0.303418140737953,7.033567207544371,0.7607685437759634,11.411576573125414
1760516277.111696,-0.987256821793661,0.04049393329451525,0.927877981594911,-0.30043361078901365,6.986514087783721,1.063983263001761,11.595631562873496
1760516277.1217036,-0.7198828428894033,0.04958532787020296,0.9282746207868935,-0.29658254169811327,6.962742635132507,1.4053765551623578,11.844020204529729
1760516277.1317387,-0.44157190773051674,0.05785761088766093,0.9289738504828271,-0.29240317837268126,6.9720707448201145,1.8239671260229584,12.13918009285126
1760516277.1417727,-0.15534752559226767,0.06498122134028476,0.9297992360212857,-0.28851775708581634,7.02178931515611,2.3483461994379518,12.461090764162053
1760516277.151707,0.13529130891269395,0.07071241910476571,0.9305684658743255,-0.2855583734970815,7.11569500048738,2.990864043290547,12.788313055556943
1760516277.1616735,0.42669814932149464,0.07493063876562421,0.9311134519912823,-0.2840948833189301,7.253414782547348,3.7443297979857633,13.09909528378773
1760516277.1716812,0.7154102605498818,0.07765398994725753,0.9313020963637755,-0.28457228094304693,7.4300697454946505,4.581619156619319,13.37249892489906
1760516277.1817658,0.9984320793930047,0.07903418474652021,0.9310605506800442,-0.2872637187797726,7.636322779329212,5.458167283821098,13.589489655198733
1760516277.1917167,1.2734350994703572,0.07933497772274581,0.9303923759908196,-0.29224468871448955,7.858840084433472,6.316932388497438,13.733930172446414
1760516277.2017262,1.5388523130380012,0.07889793829388471,0.9293886229848727,-0.299392392146591,8.081154206074311,7.095108271393196,13.793397826207226
1760516277.211674,1.7938547651843035,0.07809768828756694,0.9282225787271862,-0.30841098370748804,8.284857434052187,7.731683946652336,13.759742950001609
1760516277.2217047,2.0382065402880043,0.07728884209879723,0.9271257743543788,-0.3188791722823994,8.45100749573648,8.174904849622486,13.629318328891955
1760516277.2317102,2.272009591089108,0.07675017831024754,0.9263469330021687,-0.330313244966142,8.561612448320334,8.388760148098916,13.402849785231448
1760516277.24173,2.4953728820358734,0.07663586561605142,0.9261009722585797,-0.3422358906550562,8.601076495211236,8.357765808934715,13.084969377468818
1760516277.251908,2.7080641071916056,0.07694502356209067,0.9265193225637781,-0.35423868182775226,8.557516207396919,8.089504850196699,12.683479473005477
1760516277.2616858,2.9092149689251747,0.07751731256657254,0.9276141483474528,-0.36602580338743934,8.423877157599499,7.614614499313256,12.208447815019055
1760516277.2716746,3.097144594779378,0.078054904078913,0.9292663813760136,-0.3774311489646583,8.19878146984434,6.984171531810267,11.671246386597982
1760516277.281791,3.2693417311489887,0.07816414828487121,0.9312415832515382,-0.3884079879688367,7.8870199792988425,6.264713981638086,11.083640650995573
1760516277.2916749,3.422615880108062,0.07740766171199163,0.933231135175486,-0.39899487204694434,7.499585874238321,5.531431978981784,10.457016797300998
1760516277.301719,3.5534032315972675,0.07536018927595128,0.9349111695700167,-0.4092626581512458,7.053150905092726,4.860330184430072,9.801811244597184
1760516277.3116806,3.658197749517607,0.07166512008433011,0.9360084786457996,-0.41925041411805414,6.5689216860618505,4.320357953857874,9.127181358770718
1760516277.3217597,3.734061563945562,0.06608757734547367,0.9363610480167746,-0.428905264692934,6.070876835768972,3.966559983268499,8.440925389010053
1760516277.3319528,3.77914589635978,0.05855580615038596,0.9359609264840444,-0.43804734760907216,5.583461394065032,3.8351781124556403,7.749622475474368
1760516277.3416705,3.793135299220445,0.04918237383206019,0.9349697147077947,-0.44637730825170446,5.128895516444645,3.9413400800551917,7.058928321387131
1760516277.3516936,3.7775315339829234,0.03826337880835915,0.9337025961276372,-0.4535293586976406,4.724344739277531,4.279554366267548,6.373938015263756
1760516277.361689,3.7357217244387444,0.02626153627319683,0.9325843623883596,-0.4591562602345567,4.379305584259516,4.826768787280296,5.6995174633642165
1760516277.3716805,3.672813742521051,0.013780547592412594,0.9320874709690199,-0.4630220836948747,4.0936701866892,5.547340219091255,5.040509249914665
1760516277.3817284,3.59525290151569,0.0015329007713540874,0.9326647569524468,-0.46507694554555884,3.8569983926062834,6.399004114355134,4.4017397944840555
1760516277.3917832,3.5102526864854964,-0.009703249834434364,0.9346870301070974,-0.46549353714397657,3.649471506723057,7.3388800013837665,3.78779676780147
1760516277.4017532,3.425088115949695,-0.019143334665670215,0.9383911420203084,-0.46465454130452033,3.4447730317271437,8.328674185347017,3.202614110577817
1760516277.4118311,3.3463259986824387,-0.02607034329018257,0.9438410731012199,-0.4630898580356564,3.2147440290950158,9.33847027807436,2.648992810151093
1760516277.421702,3.2790980720744423,-0.02991445369794389,0.9509037625158648,-0.4613730385553687,2.935174357731619,10.34878736981056,2.128267925670133
1760516277.431713,3.2265376865220428,-0.030328701995273415,0.9592412393368578,-0.4599979974600369,2.59166159958767,11.350914829120365,1.640351585381698
1760516277.441693,3.189477978881459,-0.027256943834160916,0.9683217721997616,-0.45926610895018866,2.1842697182891766,12.345824457687971,1.1843005796659232
1760516277.4516833,3.166453921103075,-0.0209923901399974,0.9774554496804616,-0.4592141146236042,1.7298587431747967,13.342071779987082,0.7593937556857702
1760516277.4617233,3.1539882471872502,-0.012214634271725304,0.9858583950977544,-0.4596022751032841,1.261398920049292,14.352963660656952,0.3665161112750091
1760516277.4716873,3.1470961371442026,-0.00197655100068088,0.9927403207716006,-0.4599634346726174,0.8241794396305826,15.393022204639044,0.009485806546450272
1760516277.4818845,3.139922673592836,0.008389821102559326,0.9973995419673586,-0.45969628411979097,0.46941615484390004,16.47365918870053,-0.30413782432229003
1760516277.4917397,3.1264276611307054,0.017455226277606248,0.9993093695230266,-0.4581785459958316,0.24622817918976497,17.59814838042274,-0.5632286174063328
1760516277.5018592,3.101050187905272,0.02393332749335953,0.9981884516306904,-0.45487770802724653,0.1931976093467088,18.756403635905524,-0.7545814485960775
1760516277.5116887,3.0593073735507663,0.026923135326881235,0.9940519826644981,-0.4494415952262488,0.33074570075472887,19.920524443513788,-0.8657666136796365
1760516277.5216906,2.998288556352565,0.0260902477779462,0.9872354649724581,-0.44175486454707724,0.6554349573328054,21.042285274588213,-0.8890381624758793
1760516277.5317152,2.9169958724706797,0.021735936676263768,0.9783781577458007,-0.43195239993840145,1.1370845602201693,22.053547879013035,-0.8256722322128047
1760516277.541707,2.816478501787231,0.01473715358528973,0.9683598268619785,-0.4203892806412279,1.719230235880826,22.87002726949796,-0.6899830312459724
1760516277.5517015,2.699731832943421,0.006383806903364104,0.9581981073099687,-0.4075779114924233,2.3229837690377773,23.398221338561008,-0.5123064356199942
1760516277.5617192,2.5713754344647617,-0.0018340199581764857,0.9489237929267572,-0.3941107837601345,2.8538851573138446,23.54488929824462,-0.3403369747459056
1760516277.5717034,2.437153820746858,-0.008442119750724614,0.941453573212616,-0.38058917342818943,3.2110199286235424,23.228246281895785,-0.2382960055459515
1760516277.5816963,2.3033012146254594,-0.012180839255743238,0.9364773937961397,-0.36757579733885026,3.297493290265671,22.389817635472063,-0.28354340402642514
1760516277.5917356,2.17578988163066,-0.012185215670185608,0.93437446027744,-0.35558536535060087,3.0312117414509716,21.0055220678605,-0.5604761786914473
1760516277.6019475,2.059479335812976,-0.008141240382785832,0.9351696306322861,-0.34511890420077657,2.354768840030784,19.09414903645921,-1.151891568483457
1760516277.6117222,1.9572282011380269,-0.0003912782854080864,0.9385397977654308,-0.3367314587113822,1.2431510732518676,16.721247862459954,-2.128401337503588
1760516277.6217,1.8691115034903993,0.010055937738709197,0.9438750089848562,-0.3311011046278345,-0.2918940094453878,13.996773409184234,-3.5369117011108058
1760516277.6317027,1.7919570890499945,0.02164928304659524,0.9503898778218888,-0.3290529973201294,-2.201618878185319,11.065679660338594,-5.389550364929284
1760516277.6417017,1.7194193424497402,0.03255721494341138,0.9572685722353879,-0.33149767611804903,-4.404414483827302,8.091907467310197,-7.654658476973916
1760516277.6517384,1.6427190107513558,0.041023242585308956,0.9638139051025238,-0.3392680230670118,-6.793931700073798,5.237648139562204,-10.251529742000683
1760516277.6617074,1.5520201572356795,0.045733648255097445,0.9695627315886102,-0.352872929313314,-9.25013871004665,2.641087351771726,-13.050428520402722
1760516277.672135,1.4382493939559247,0.0461090032533373,0.974334183490575,-0.3722152771939892,-11.651728866578859,0.3967335393037169,-15.878986594056185
1760516277.6817348,1.295041690206985,0.042451490086462935,0.9781984909875483,-0.3963406467530351,-13.888009867852645,-1.4574206933363674,-18.535330047920144
1760516277.6916914,1.1204462172021685,0.035915078370746915,0.9813833209668836,-0.42328936708037657,-15.868496676776115,-2.942538774198395,-20.807289547798923
1760516277.7017052,0.9180499020417454,0.02830426383508117,0.9841537449456174,-0.45011564563501355,-17.528946254850336,-4.129919775626767,-22.495951406678785
1760516277.7117305,0.6972703444611077,0.021743300295185546,0.9867010863899648,-0.4731106255339831,-18.833421434303226,-5.121390132289727,-23.440801875897815
1760516277.7217014,0.4727162334241817,0.01828568151124048,0.9890627323034117,-0.48822475392743236,-19.772902526287574,-6.022713012391716,-23.543025168346475
1760516277.7317014,0.26268004010166457,0.019544888382414274,0.9910843722460904,-0.49163977473131043,-20.36167042879599,-6.915490544526751,-22.783383033284178
1760516277.741702,0.08697293907992622,0.02641581398492137,0.9924323100446071,-0.4804032883672089,-20.632980640763005,-7.833756613237116,-21.231687959342025
1760516277.7516928,-0.035598907083334075,0.03892482393397094,0.9926595240288314,-0.45301689414062085,-20.635435296910654,-8.750851615360611,-19.04610809754474
1760516277.7617202,-0.08979406536615187,0.0562096216300486,0.9913203816911443,-0.40986854269853545,-20.431033937625486,-9.580323040100811,-16.462111852997918
1760516277.7717388,-0.06623282302554931,0.07660534843444876,0.988117490705564,-0.3534220212735912,-20.09526798822667,-10.191792784462322,-13.772420545551794
1760516277.7817106,0.03682463360879836,0.09780759757002196,0.9830528193295973,-0.2881132119086662,-19.718970326001564,-10.439499453956046,-11.30060720956314
1760516277.791741,0.21242937579704851,0.11708889279455333,0.9765460720437363,-0.21994370767008672,-19.41106612849059,-10.198329505800377,-9.371759269991177
1760516277.8017123,0.4447831895387979,0.13155204779132845,0.9694807402546078,-0.1558042911336709,-19.300961076349203,-9.400358487125,-8.283800520459321
1760516277.8116877,0.7100583493818912,0.13840893527998405,0.9631464418273572,-0.10260245502057165,-19.53910520818611,-8.064652815218563,-8.282656794805515
1760516277.8218675,0.9781987059440888,0.13527646320946607,0.9590665846745986,-0.0663045973699725,-20.294351941296068,-6.314296686593088,-9.543583680144797
1760516277.8318877,1.2155738592551824,0.12047568857983455,0.9587337455084636,-0.051031439571150174,-21.747104445083696,-4.376943118778667,-12.15986472564322
1760516277.8417096,1.3881859792141973,0.09329986605205112,0.9633152047006796,-0.05836166776412979,-24.077838437002175,-2.568110632924114,-16.138983541252475
1760516277.8516946,1.464963219009194,0.05419754526511141,0.973412970134485,-0.08698754882829461,-27.451324525929408,-1.259365943764739,-21.405486005436778
1760516277.8617122,1.4206167458163843,0.004822095822103195,0.9889399206015531,-0.13280686144203638,-31.99766944486111,-0.8358956115816614,-27.809174511932433
1760516277.871705,1.237650681236754,-0.05206912582424327,1.0091179998802011,-0.18943952177559825,-37.792022743774574,-1.6493626885622847,-35.13699738989398
1760516277.8817353,0.9073407575830023,-0.112850780581162,1.0325614646347996,-0.24907183118201803,-44.83522874062532,-3.972209998327123,-43.126962977310974
1760516277.891716,0.4297221417383341,-0.17337462683695948,1.0574051839207295,-0.3034923158641734,-53.03770401126231,-7.958911691543595,-51.48260552366531
1760516277.9018335,-0.18722591888041637,-0.22939965741946802,1.0814594606501715,-0.34518361843489187,-62.20858672086424,-13.61856160995816,-59.886977894286105
1760516277.911834,-0.9289485427312583,-0.27707444790884417,1.1023896412378456,-0.36834002544670436,-72.05212616460274,-20.80201214510119,-68.01577999199841
1760516277.9217014,-1.7759832622326461,-0.31340942582967163,1.1179181505824578,-0.36966289255826723,-82.17339311534519,-29.20556724939551,-75.5498187703311
1760516277.9317086,-2.7057038461291807,-0.336646539091058,1.1260356866209607,-0.3487648970793387,-92.09515317057934,-38.391764940581254,-82.18726884611299
1760516277.9417257,-3.693963360627039,-0.34643718944803475,1.1252023797182529,-0.3080575275824449,-101.28658681900558,-47.825939475178146,-87.65609006017638
1760516277.9517257,-4.716517124118762,-0.3437898272557093,1.1145256187153254,-0.25214248566803593,-109.20254287138248,-56.92521222924829,-91.72661339581428
1760516277.9617138,-5.7501662870205115,-0.33081969662012634,1.0939078286241146,-0.18689788803182458,-115.3298364231119,-65.1146960106525,-94.22390321184209
1760516277.9717004,-6.773615698771195,-0.310381283068843,1.0641476511997359,-0.11851749221218665,-119.23531726176398,-71.8843740793602,-95.03906147037837
1760516277.981871,-7.768075111688855,-0.28566830237427804,1.0269539239610659,-0.052699014880947116,-120.60927115675348,-76.8396404536147,-94.13814598525437
1760516277.9917827,-8.717645902702541,-0.25983997750238147,0.9848218522233642,0.005933161674104384,-119.29748552131502,-79.73909883772232,-91.56701848718389
1760516278.0017338,-9.609530905133319,-0.23570364181621623,0.9407517286832568,0.054167517521727174,-115.31654226432205,-80.51490250049378,-87.45052912854159
1760516278.011714,-10.434093732498617,-0.21547067614699086,0.8978527249808601,0.09033796728811702,-108.84977885231635,-79.27334570275242,-81.98511124388547
1760516278.0218165,-11.1847861054238,-0.20060190211037524,0.8589240047262339,0.11428428662315993,-100.22519569053169,-76.27615684500927,-75.4249639812503
1760516278.0317025,-11.85796042040802,-0.1917537072816305,0.8261095199029603,0.12717175984456558,-89.88002880202873,-71.90559740096379,-68.06325119195131
1760516278.0417485,-12.452588709747667,-0.18882238730624273,0.8006890703595797,0.13120160671506514,-78.31853140927558,-66.61858873575636,-60.210778694902736
1760516278.0517137,-12.96991590624872,-0.19107070487653618,0.7830259019419835,0.1292472154514073,-66.0693460874694,-60.8962151051122,-52.17505990632982
1760516278.0619032,-13.413080951806162,-0.19731201715326402,0.772658088279332,0.12445632729622659,-53.64726051766212,-55.19485618592728,-44.24234056601182
1760516278.0718167,-13.786738631657565,-0.20612078563006775,0.7684984161596897,0.11986482268729139,-41.52213239204392,-49.90402013845705,-36.66415755878751
1760516278.0818396,-14.096706875657722,-0.2160362331918513,0.769093729387989,0.11806805933917477,-30.096165888635404,-45.31416178130583,-29.648791490692275
1760516278.091698,-14.349652970799287,-0.22573303718560409,0.772890670507252,0.12098501997722501,-19.689739767966202,-41.596050891288854,-23.35701919223089
1760516278.1017118,-14.552822463048923,-0.23414587291886152,0.7784609701740891,0.1297311998364238,-10.535331570179101,-38.792096578627785,-17.901120380458234
1760516278.1117501,-14.71380744643426,-0.2405449108743474,0.7846536583754097,0.14459708762103465,-2.77847314549062,-36.81943680495082,-13.346097433701695
1760516278.1218061,-14.840344730831854,-0.2445633684216483,0.7906595625174443,0.16511680939423823,3.5158386866894067,-35.484173155447245,-9.712351051577317
1760516278.131798,-14.94012842271626,-0.2461794656977801,0.795991744237369,0.19020605183146175,8.353085835517621,-34.5054999644424,-6.979424230741533
1760516278.1417038,-15.020618302163449,-0.2456588589570805,0.8004033137600418,0.2183460219776135,11.797281923484832,-33.547598240180186,-5.090713894252322
1760516278.151716,-15.088829077980993,-0.24347056564259661,0.803778638268831,0.24778795941563525,13.95868507264269,-32.256265745284914,-3.959157350322195
1760516278.1617653,-15.151097469092985,-0.2401951201453866,0.8060374725022235,0.2767510730712393,14.982433516874758,-30.29661624122697,-3.473842871520223
1760516278.1717222,-15.212840747307586,-0.23644407301533726,0.8070798369334133,0.3035885619397452,15.038928591534379,-27.387998730867615,-3.507351058659427
1760516278.1818337,-15.278336198016893,-0.23280532471019152,0.8067796147640744,0.32690328467529883,14.316159547318673,-23.332634774790886,-3.92347938944513
1760516278.1916914,-15.350560394677261,-0.2298212036752511,0.8050171664211826,0.34560571791500033,13.013478984940955,-18.035287559988102,-4.584882170132993
1760516278.2017431,-15.431125562281334,-0.22799647948419505,0.801730488372037,0.35891955679665066,11.335860280694511,-11.512377037713565,-5.360105361267287
1760516278.21172,-15.520335781566194,-0.2278238964134554,0.7969621456915313,0.36635124071832365,9.487604057564774,-3.890125398554355,-6.129529126522132
1760516278.22171,-15.61736248965912,-0.22980994841471203,0.7908858352292689,0.367645145872389,7.664823632808641,4.607566406393089,-6.789848200038827
1760516278.2317135,-15.720515430553387,-0.2344856028163211,0.78380748659164,0.3627443736335306,6.046678271283191,13.679762922287175,-7.256901024999895
1760516278.2417216,-15.827568688697005,-0.24239231192595626,0.7761437178304783,0.35176959767777377,4.786020419794096,22.97498509541305,-7.4668667464763825
1760516278.2517412,-15.936092745747937,-0.2540387613929124,0.7683827263374307,0.33501863422009887,4.00066127985034,32.12027624765964,-7.376038437641252
1760516278.2618306,-16.04374154847647,-0.2698280690320507,0.7610330766348029,0.3129796488078849,3.766679154265934,40.749529512042315,-6.9595115033804476
1760516278.2718778,-16.148449279607664,-0.289960776780831,0.7545675200902852,0.28634315063450133,4.1150652184247125,48.52827421464623,-6.209172675171805
1760516278.281714,-16.248506305236603,-0.3143267248355675,0.7493709836127022,0.2559952586590963,5.03260780829115,55.17296006047809,-5.131323299390045
1760516278.291766,-16.342506010102223,-0.34240677541273684,0.7457020685023882,0.22297929163027722,6.4673659789814675,60.46372988096143,-3.744129958384019
1760516278.3017337,-16.429178850118536,-0.37320975437054343,0.7436753464483221,0.18842268180772526,8.338446359237114,64.25060984813183,-2.0749219852367893
1760516278.311757,-16.507151028317743,-0.4052679385003481,0.7432684562743576,0.1534371841052569,10.549137938287858,66.45389142666674,-0.15723824635013825
1760516278.321844,-16.57467869376623,-0.4367061102859906,0.7443552398574176,0.11900874814820589,13.001868062807137,67.06015284942328,1.972470506397735
1760516278.3318186,-16.629413028676694,-0.46538718434142545,0.7467647261761269,0.08589743353702069,15.613030290821253,66.11574035519241,4.278451305988267
1760516278.3417149,-16.668246971419958,-0.48912307460924714,0.7503632563053282,0.05456754441987647,18.32560785959741,63.719437747597595,6.729336598887912
1760516278.3517263,-16.68728080190929,-0.5059233760907376,0.7551501842442873,0.0251651757197924,21.117742069705574,60.01546529737769,9.301461220664176
1760516278.3620074,-16.68192240014069,-0.5142405795651102,0.761348452225138,-0.002445001382945947,24.005950301297684,55.18710331765911,11.981208986730897
1760516278.371903,-16.647112496657517,-0.5131662148667885,0.7694667772086317,-0.028580733596043448,27.04244925972777,49.45052824461163,14.765778330771127
1760516278.3818157,-16.577642922130718,-0.5025419782130398,0.7803138124977853,-0.05359010733243115,30.306791081628763,43.048129298870556,17.6619040615336
1760516278.3917303,-16.46852422197123,-0.4829707406666307,0.7949532516457569,-0.07766775666224646,33.892625712867456,36.24057100921143,20.68231188205548
1760516278.4017954,-16.315360914343547,-0.4557360620676691,0.8145973065356347,-0.10066935931777918,37.8908143584931,29.296985247972696,23.839933904992858
1760516278.4117715,-16.11470474826483,-0.42265681852952003,0.8404425902279874,-0.12195886735952861,42.37035618234831,22.48290625232703,27.140180425524733
1760516278.4218106,-15.864371081043682,-0.3859106917040331,0.8734588978915065,-0.1403245094127714,47.35873479410093,16.046064941767685,30.571929899031268
1760516278.4317732,-15.56371286087681,-0.3478558293983842,0.9141499473083848,-0.1539978635778001,52.823481004178156,10.200981086350273,34.098394773234155
1760516278.4417105,-15.21384587330894,-0.3108673127375209,0.9623163451739207,-0.1608027876329638,58.657064350445914,5.114212075740758,37.6495018014569
1760516278.4517872,-14.817809235088973,-0.27719037848475336,1.0168627186672636,-0.1584456301121741,64.6675677971543,0.8927499398452758,41.1176501829017
1760516278.4617722,-14.3806328058142,-0.24880123255023356,1.0756974596872213,-0.14493330014370687,70.57774744552682,-2.4219391907155354,44.35853050933943
1760516278.4718652,-13.9092748818697,-0.22726169516344466,1.1357677327563664,-0.11907152684642351,76.03484292880121,-4.852476566151841,47.198123592577865
1760516278.4817307,-13.4123939044604,-0.2135584832945582,1.1932521003338983,-0.08095879786224505,80.63275385535312,-6.476246106228237,49.446152474573154
1760516278.4917543,-12.899930296059491,-0.20793404008941438,1.2439043559657408,-0.03236581889808827,83.94680518352371,-7.4091141378986505,50.915209902900415
1760516278.5017736,-12.382500996386401,-0.20974065638707995,1.2835131839522795,0.02311164725443803,85.57921735308109,-7.784428272499105,51.44359563329129
1760516278.5117378,-11.870648619675071,-0.21737360063825206,1.3084174972019424,0.08021207110202726,85.21073549269845,-7.7306674901068835,50.91873047110449
1760516278.5217595,-11.374032510783072,-0.22834906434691551,1.315999852781848,0.1325110231017238,82.65121062346776,-7.3519616325839605,49.297181783939564
1760516278.5317242,-10.90068636265845,-0.23957571681887446,1.305075779756186,0.17322450088780003,77.88019892327759,-6.715829988847565,46.617284369200284
1760516278.5417805,-10.456478123622752,-0.2478174697939739,1.2761102045679174,0.19619102492960774,71.06882654330903,-5.851405995906458,43.00142069390427
1760516278.5517864,-10.044878844167297,-0.25027008548184426,1.2312222604120961,0.19685380942279285,62.576715158630606,-4.758994220234118,38.64711227999809
1760516278.5620158,-9.667079037443692,-0.24510841719259113,1.1739783431647008,0.1730529841836823,52.92226096129541,-3.428576882555292,33.80847809962319
1760516278.5719059,-9.322403500585954,-0.23184551416085727,1.1090095294081657,0.125478193719549,42.729805505593845,-1.8619925937443953,28.771485212789187
1760516278.581987,-9.008898609397209,-0.211397919047348,1.041514799858071,0.05770434369648263,32.661730593981325,-0.09223378303743807,23.82722112413671
1760516278.5917213,-8.723927270573,-0.1858482611996066,0.9767213735065757,-0.02419237437990436,23.34612294593195,1.8057201413727015,19.247098614877636
1760516278.601728,-8.464619081259599,-0.15798617805447113,0.9193685998159377,-0.11238124072847594,15.311018607870672,3.7153945348427793,15.262785897961418
1760516278.6118772,-8.228081400663184,-0.1307554342502062,0.8732684043067883,-0.1982822296880735,8.934558843340644,5.490263025202681,12.052249518447526
1760516278.6217186,-8.011360348285388,-0.10673525838800142,0.840980685176968,-0.27368646106434724,4.417141487791815,6.9731892788653385,9.732062569699657
1760516278.631785,-7.811221287410066,-0.08775332813729066,0.823629641423707,-0.3318250212295833,1.7775540005197779,8.019561669005801,8.355316149437709
1760516278.6417596,-7.62387057656086,-0.07468360440696613,0.8208751589760063,-0.3682224875985556,0.8710572848098564,8.519677018025988,7.914111126884888
1760516278.6517665,-7.444750425999747,-0.06743689783103449,0.8310394633578992,-0.3812051738137958,1.4243015167645956,8.416645289429889,8.345586448813757
1760516278.6617558,-7.268509435185741,-0.06511505360920382,0.8513730607451327,-0.3719915429945772,3.080284205818357,7.7172146603631875,9.540586539140227
1760516278.671849,-7.089197703221918,-0.06627636624742288,0.8784277177576175,-0.34436208080103387,5.446349666844008,6.494134194027271,11.354231616659984
1760516278.6818948,-6.900674643257562,-0.06925067426720598,0.9084906057718748,-0.3039762696597907,8.13914338672522,4.879853206232235,13.61774547140939
1760516278.69177,-6.697165951998961,-0.07244574159432669,0.938024925073437,-0.2574630658377668,10.821948915143812,3.0524759328657365,16.150902799595045
1760516278.701721,-6.473877311217904,-0.07459955672521028,0.964060146322536,-0.21144647441462516,13.23146707371447,1.215884724150921,18.77441432266687
1760516278.7117317,-6.227570894908991,-0.07495114712911262,0.984481023059219,-0.17166988372322226,15.192577182349147,-0.42330379977933486,21.321511750175638
1760516278.7217288,-5.957029035867569,-0.07331954689442485,0.9981790743024128,-0.14235005189171185,16.620928471540775,-1.6788926324685312,23.64796273716478
1760516278.7317352,-5.663355239089196,-0.07009371186988438,1.0050518839927802,-0.1258343249700299,17.51445356244982,-2.4053570039364973,25.639778549306698
1760516278.7417295,-5.350085615532213,-0.06614424797906146,1.005861295542199,-0.12257045835945955,17.93609093015222,-2.5126970639079476,27.218008975929582
1760516278.7517865,-5.0230952900327654,-0.06266944454189416,1.0019860351254533,-0.1313427251987662,17.99098160758401,-1.9743106594685969,28.34026433803013
1760516278.7618203,-4.690283033107071,-0.06098639525054553,0.9951202744354866,-0.14969049351277997,17.801925337977252,-0.8274533151758048,28.998950730159326
1760516278.7717307,-4.361017864550308,-0.06228329824531121,0.9869725827719477,-0.1744119858968736,17.4867899774956,0.833033129547179,29.216606456511858
1760516278.7817283,-4.045357617560548,-0.06736811933504452,0.9790115160746886,-0.20206699695966582,17.140881855385583,2.866213316789074,29.039102756192005
1760516278.7918446,-3.753108012297539,-0.07647053362674039,0.9722904635834554,-0.22941890542191062,16.826177867650816,5.099871485852382,28.52771925087822
1760516278.8017426,-3.492854168182286,-0.08915532647209003,0.9673690735624798,-0.2537828967877612,16.5680402452316,7.346790191637207,27.751152919774242
1760516278.8117685,-3.2711238071746584,-0.10437644797949806,0.9643319237856599,-0.27326346537214136,16.3588074164103,9.420975042852792,26.778376379116413
1760516278.8217878,-3.09181497316581,-0.12065694508973844,0.9628875486222546,-0.2868715410348187,16.166646231400012,11.152702185973569,25.673004107470426
1760516278.8317804,-2.9559560274533077,-0.13634420909247255,0.9625160590771951,-0.2945178607592014,15.94739112115991,12.401552272539345,24.489537212875884
1760516278.841722,-2.8617907022330806,-0.14987438554994933,0.9626266162760475,-0.29688967459620214,15.656876592925439,13.066750518678942,23.271582122113855
1760516278.8518646,-2.8051206055906523,-0.15998552794255533,0.9626897868673996,-0.2952328314965333,15.261508440169651,13.094242455317138,22.051888138547085
1760516278.8619497,-2.7798065846732287,-0.16584223145209298,0.9623226421874885,-0.29107771729720766,14.745437371779882,12.480085635704631,20.853831024808372
1760516278.87174,-2.7783322147113525,-0.16706575046463948,0.9613212436578438,-0.28595960930315895,14.113538717017553,11.269953558151288,19.693804560800785
1760516278.881769,-2.7923593101734165,-0.16369003614059377,0.9596497302961535,-0.2811850271126052,13.390265676659439,9.554797500585524,18.583899716415928
1760516278.891762,-2.813240896462062,-0.15607632832178922,0.9574029043859373,-0.2776824862239032,12.615151356926402,7.4629558498259945,17.534278332684558
1760516278.9017634,-2.8324856835084833,-0.14481640449784805,0.9547588630011639,-0.27595222587916035,11.836180950742357,5.149233934419681,16.554790397161156
1760516278.9117305,-2.842182152566024,-0.13064451183362039,0.9519327766503771,-0.276103896805216,11.102417095389896,2.781717841255427,15.655611307342578
1760516278.9217315,-2.835390673094126,-0.11436772846626436,0.9491372777436585,-0.27795346573342283,10.457168743619649,0.5273362616732152,14.846928621370756
1760516278.931763,-2.8065009332897906,-0.09681583570258497,0.9465520318464887,-0.28114516452361243,9.932707298543342,-1.4625800332184795,14.137924336409588
1760516278.9418306,-2.751532867740806,-0.07880459522319763,0.9443040963541265,-0.285268596795051,9.547130860311132,-3.065326522294862,13.535432026619747
1760516278.951907,-2.6683413506578884,-0.061102981382474796,0.9424596327953185,-0.28994987961900986,9.303539306316674,-4.19701425916797,13.042673551636364
1760516278.9617612,-2.556679495874394,-0.04439721801880475,0.9410260495868115,-0.2949055999194837,9.191286542435247,-4.818702964370688,12.65840491391904
1760516278.971751,-2.418087410000432,-0.02925033304154092,0.9399622966313247,-0.29995786426354465,9.188785318645833,-4.937700116573775,12.376663330723646
1760516278.9817438,-2.25559927347019,-0.01606173943975162,0.9391940060994981,-0.3050165233015057,9.267191656075303,-4.603858572232201,12.187154026934715
1760516278.9918363,-2.0732939921550835,-0.005034891327428513,0.9386296563159543,-0.3100398433865934,9.394296575967177,-3.901384471290393,12.07618125493853
1760516279.001737,-1.875744884731109,0.003838341585841758,0.9381744639010403,-0.3149872681626467,9.538080087088934,-2.937296486980699,12.027935871638565
1760516279.0118027,-1.6674443366300853,0.010770241148734747,0.9377403759732735,-0.3197775345387578,9.669586376289505,-1.8281421084536027,12.025912507181353
1760516279.0217798,-1.4522851654275306,0.01614479459635716,0.9372524817974215,-0.3242625620145518,9.764992671926061,-0.6867844741093156,12.054242060842428
1760516279.0321558,-1.2331705956012236,0.02046339716296699,0.936653303111443,-0.32822298203611655,9.806905701911052,0.38901980251969787,12.09877718086498
1760516279.0417535,-1.0118016912978387,0.024276408871770204,0.93590641791974,-0.33138611719989913,9.78499603493177,1.3249009806307224,12.147840042220773
1760516279.0518649,-0.7886603753663335,0.02811095177884676,0.9350001120512277,-0.3334628739076934,9.69607886201244,2.0742291705093705,12.192613780050124
1760516279.0618649,-0.5631753971288859,0.0324052471274416,0.9339506200166766,-0.33419696740049915,9.543709904976424,2.6184076373165484,12.227215498643517
1760516279.0717509,-0.3340340118620487,0.037457555250679474,0.9328034117913159,-0.33341807822696645,9.337334673474768,2.9635984664124777,12.2485190834169
1760516279.0817304,-0.09958536496394155,0.04339525005409871,0.9316306881727259,-0.33108986985752364,9.091035323062941,3.1348590799623746,12.255797434467247
1760516279.0917354,0.14172860345293034,0.05016771702353171,0.9305241695762739,-0.32734445695949166,8.82195904151366,3.16894059203567,12.250233768424321
1760516279.1017656,0.39098176718569627,0.057564500545136524,0.9295837743338518,-0.3224969703211705,8.548564398821226,3.107030773568965,12.234325098228986
1760516279.1117527,0.6484703329424445,0.06525583202372705,0.9289040463355713,-0.31703689167487564,8.288864782060777,2.9885411908229376,12.21118272659343
1760516279.1217728,0.9135533104282403,0.07284708142211324,0.9285608211224589,-0.31159585861496614,8.058862477685544,2.846707023351993,12.183733687387159
1760516279.1317496,1.1846319779393193,0.07993487707161459,0.9286004237239751,-0.30689393142838595,7.871340482210856,2.7063659585366326,12.153846605189731
1760516279.1417723,1.4592433221904515,0.08615262823780759,0.9290327559833621,-0.30366831426902935,7.735111817805229,2.583866076254365,12.121445065032006
1760516279.1517444,1.7342213677288147,0.09119648699344983,0.9298284889575996,-0.3025912120376004,7.65473577605283,2.4886633608392317,12.08372656640099
1760516279.16187,2.0058745773208417,0.0948288422407173,0.930919672711607,-0.3041867548737766,7.630623960509928,2.4258632896304664,12.034659906774829
1760516279.1719084,2.2701417025082207,0.09686477689159119,0.93220238713812,-0.3087594975886945,7.6593997400105485,2.3988209409776493,11.964957759716254
1760516279.181855,2.5227184796252304,0.09715411911372851,0.9335397014932393,-0.316347869236561,7.734358744452829,2.4110178056386693,11.862678899958626
1760516279.1918771,2.7591770206639117,0.09557256326441141,0.9347639794056359,-0.326714053420265,7.845910616150243,2.4667826206954033,11.714492803679947
1760516279.2018437,2.9751112965505624,0.09202892687563391,0.9356799301345735,-0.3393755671808987,7.981951558063464,2.570897991311397,11.507468589301736
1760516279.2118127,3.1663322844205477,0.08648713893760773,0.9360724549369078,-0.35367353713668986,8.128195992693087,2.7275373513157244,11.231093506336208
1760516279.2217495,3.329115692472366,0.07899655555250182,0.9357238090631087,-0.3688621541827032,8.268553278562436,2.939147805131875,10.879143139018637
1760516279.23178,3.460485942223575,0.06972351239714851,0.9344418589764868,-0.3841978206693002,8.38565133466656,3.2057982454723897,10.451042178162984
1760516279.2417653,3.558507698623598,0.058978203359932334,0.9320968416628829,-0.39900773911279375,8.461580800888907,3.5252371209795372,9.95245640631197
1760516279.2524178,3.6225508769024515,0.04723219197896584,0.928660321061349,-0.41272614767114857,8.478875120071026,3.8935914902698525,9.395004298154698
1760516279.2617767,3.6534958548297736,0.035122807202333545,0.9242379348829093,-0.4248996452484051,8.421671777475517,4.306409828817119,8.795131238943618
1760516279.2717743,3.6538507231915167,0.023441034929148757,0.9190873033150325,-0.4351757098730583,8.27692852010528,4.759673954119818,8.172323938867061
1760516279.2817428,3.6277574550132288,0.013098606693333181,0.9136147521773039,-0.44329367577176215,8.035501994731876,5.250487278369993,7.546940443049212
1760516279.2917476,3.580863805425756,0.005068056747561942,0.9083490727892719,-0.44909190586505365,7.692856830712915,5.777327764554774,6.937983540876912
1760516279.3017848,3.5200331233358133,0.0002892349664897484,0.903895503704272,-0.45253309073631104,7.249212215720652,6.339930225963064,6.361152165162128
1760516279.312114,3.4528666431392563,-0.000458418249921268,0.9008763438029872,-0.45373903114536795,6.709094818742634,6.938955379099334,5.827468387469481
1760516279.3218608,3.387038204010891,0.00329484313749468,0.899865096578903,-0.4530203096780312,6.080514826265549,7.575623940197894,5.342692559689572
1760516279.3318093,3.3294925272186777,0.01156607460332714,0.9013193395348887,-0.450884353942286,5.374187294879743,8.25151014463608,4.907604051821465
1760516279.3417473,3.285616751553045,0.0238185798220557,0.9055158593244282,-0.4480077386921281,4.603253868702462,8.968710391606932,4.51905926788363
1760516279.3517537,3.2585338067830323,0.038934446134166086,0.9124925730436338,-0.44516664098015785,3.7837789394119423,9.730541968715885,4.171582951644352
1760516279.3617737,3.248667426744066,0.05527923381670723,0.9220057478418551,-0.44313218738556953,2.9359571812696164,10.542698044862417,3.8591444204542866
1760516279.3719141,3.2536888574118352,0.07086021641772118,0.9335156662791292,-0.44255029120478234,2.0855923592145946,11.414425918571316,3.5767399233375197
1760516279.382164,3.2688829424178754,0.0835622678729001,0.9462155225166249,-0.44383283355185293,1.2651178585039946,12.358975141956787,3.3214436310887834
1760516279.3918245,3.2878852092652515,0.09143170461856545,0.9591134327526909,-0.4470852441439435,0.5133292109496096,13.392475272411401,3.0926856000412637
1760516279.401753,3.303668357817068,0.0929711566938396,0.9711643772638215,-0.45208514968158664,-0.12684412531467168,14.530654886596677,2.8916519940141847
1760516279.4117715,3.309617123959759,0.08740602044517509,0.9814304137627473,-0.4583125631451752,-0.6127542478049806,15.783377128123798,2.719876685870434
1760516279.4217603,3.3005262882173607,0.07487847269621956,0.9892307137659285,-0.4650201783343972,-0.9081865712130571,17.14770824133338,2.577291810477904
1760516279.4317567,3.27337404467614,0.05651820621071055,0.9942367642727975,-0.4713260174847509,-0.9901150682508236,18.60093863749414,2.4601760829973096
1760516279.4417648,3.2277537023061385,0.034345733981074815,0.9964806453014885,-0.4763109739605177,-0.8545893486413728,20.095357356689156,2.3594835624489656
1760516279.4517937,3.165895802587082,0.011000084275789164,0.9962764234363484,-0.47911083744083766,-0.5205021592130954,21.556430665407426,2.2598835242125213
1760516279.46193,3.0922836600146284,-0.010662790036686819,0.9940910521852392,-0.4790023239559412,-0.030618584870321597,22.885458139139917,2.1395707374995694
1760516279.471826,3.0129438348517956,-0.028013474394859354,0.9904182578209921,-0.4754877149345395,0.5501128738382776,23.967117161936265,1.9706964878587965
1760516279.4818366,2.9345495467305396,-0.03904019568581572,0.98569722162484,-0.4683789728519115,1.1386087511583693,24.681691813663182,1.720238703841491
1760516279.4917977,2.8634832999780735,-0.042617964272827144,0.9802887051212268,-0.4578731925807317,1.6396609710598453,24.92098272346432,1.3512557027629644
1760516279.5019128,2.8049643761973,-0.03862862158724381,0.9744937500050439,-0.44460307347809636,1.9535655854327865,24.605765067704272,0.8246681751556626
1760516279.5119004,2.7622903793390314,-0.02794663136959485,0.9685880576923757,-0.4296422058092152,1.9849687809872347,23.70154704371374,0.10187671962325243
1760516279.5217755,2.736216408036197,-0.012323919468405553,0.9628499048157028,-0.4144454217917534,1.6522837382280628,22.22889728574086,-0.8514818324421214
1760516279.532199,2.7245218687641954,0.005806379049755624,0.9575712220870832,-0.40070894314329064,0.8966939281120805,20.265160448865316,-2.0605868429320373
1760516279.5420358,2.721866235832879,0.023608964377145738,0.9530508655679889,-0.39014593156466215,-0.31044219715580385,17.935978217825923,-3.5357024746723895
1760516279.551774,2.7200566484787028,0.03820722784925451,0.9495745590201041,-0.3841933555529509,-1.9628244606212657,15.397356947903925,-5.266600110136751
1760516279.5618374,2.7088041271265975,0.047094264221764874,0.9473892374282086,-0.3836939153711963,-4.017644355094475,12.811448965666532,-7.218491825270492
1760516279.5717835,2.6769338138734544,0.0485272112878783,0.9466802042429829,-0.3886222477959074,-6.397237961516157,10.320961057965345,-9.330959763333214
1760516279.5818422,2.61387638955066,0.041822417704098176,0.947556930062249,-0.3979328674329198,-8.993669252546152,8.027581848958345,-11.521070622689997
1760516279.5918446,2.511160936607111,0.027483209001345987,0.950049859258925,-0.4095879657369321,-11.675972187727965,5.978898096529371,-13.691137681616457
1760516279.6018212,2.3636061960001813,0.007132097881314224,0.9541196695779656,-0.42078092620842394,-14.29995254405018,4.1662676245516455,-15.740583964378263
1760516279.611908,2.169980724309566,-0.016732258603358165,0.9596810450391842,-0.4283240985749665,-16.720494761114235,2.5336313352381308,-17.580336479744897
1760516279.6218014,1.9330357899483168,-0.04109805436417433,0.9666390781381641,-0.4291333908393827,-18.806074618264713,0.9949205922134107,-19.147436962195894
1760516279.6318529,1.6589484621209882,-0.06285735224135604,0.9749252783985817,-0.42072359018459793,-20.454713456055252,-0.5439741065175812,-20.41729339615149
1760516279.6417675,1.356305090468642,-0.07921934952730367,0.9845111147120378,-0.4016283592038648,-21.610092296980884,-2.1635053683598624,-21.41126663335035
1760516279.6517894,1.0348001108937754,-0.08807605272110296,0.9953831621141732,-0.37167788026424275,-22.276077863977967,-3.913680927041724,-22.198020639252423
1760516279.6617668,0.7038362679257988,-0.08828686132435709,1.0074842374927209,-0.3320981212497075,-22.527546491912748,-5.805688229387774,-22.888130823065026
1760516279.6718123,0.37120591010240855,-0.07985438927320024,1.0206441243709838,-0.2854255983309151,-22.515211374270518,-7.813595296320492,-23.62262182258245
1760516279.6818705,0.04201437132597785,-0.0639708241908639,1.0345298965702303,-0.2352537638293246,-22.46229225482387,-9.885640708775517,-24.557110886828873
1760516279.6918707,-0.28202789027447367,-0.04292575191076676,1.0486392388374295,-0.18584437993199288,-22.65145425265638,-11.96258852010401,-25.84385137866981
1760516279.7019024,-0.6028685398547162,-0.01987863053369599,1.062344879112381,-0.14165064289137752,-23.40160058291353,-13.999074906834231,-27.61413557618521
1760516279.7117865,-0.9259155319064425,0.0014909677437658958,1.074978978141335,-0.10680462983708666,-25.035812021650163,-15.983099479459634,-29.963257070005398
1760516279.7219708,-1.2594191825578804,0.017428249767836444,1.0859305334665619,-0.08461957866826346,-27.843662563293332,-17.948995996273943,-32.93963155866605
1760516279.732053,-1.6135234773205678,0.024592873753996096,1.0947255552572528,-0.07715508947125566,-32.04269446476409,-19.980403345085485,-36.53887932231154
1760516279.7417884,-1.999109991072446,0.020520304507169605,1.1010712517180086,-0.08489659825517769,-37.744423985680314,-22.201793078561302,-40.702886843813396
1760516279.7519276,-2.4265732062736385,0.003977099989643901,1.1048632139381507,-0.10660299302025826,-44.92970690065125,-24.75957482939221,-45.32327861435064
1760516279.761816,-2.90466201227674,-0.02484815397700811,1.1061671297433535,-0.13936454499009976,-53.43693850517324,-27.796103476194155,-50.24845874729983
1760516279.7717795,-3.4395030822473593,-0.06434368245836167,1.105188968414115,-0.1788841742677463,-62.96487987545398,-31.421502973072254,-55.293414993468595
1760516279.7817755,-4.033894418777994,-0.11165746572458207,1.1022425038100347,-0.2199598384377334,-73.09020259211073,-35.68875543455204,-60.25164358721655
1760516279.7918243,-4.686926576380242,-0.16303576313807788,1.0977156942538124,-0.25711563593643477,-83.2982337907328,-40.57689010787621,-64.90861318465413
1760516279.8017793,-5.3939561567647685,-0.2142704338939401,1.0920309168992528,-0.2853027457157764,-93.02394085883441,-45.98551609880956,-69.05603863632017
1760516279.8117893,-6.146920830544456,-0.2611904871335087,1.085589943949444,-0.3005631773229533,-101.6990446038071,-51.7417487071635,-72.50600104453375
1760516279.8217812,-6.934949301641833,-0.300121307463675,1.0786969409535914,-0.30053014228962915,-108.80035491991082,-57.618217232350396,-75.10381236438026
1760516279.8317945,-7.745188610820324,-0.3282414810346858,1.0714661811358528,-0.2846581095750545,-113.89401683553443,-63.35873596409915,-76.73852853286184
1760516279.8417635,-8.563750758676045,-0.34379701856170175,1.0637423394572993,-0.2541476551414898,-116.67057107250392,-68.70682860086774,-77.35009217532392
1760516279.8518255,-9.376673259568006,-0.346172519173964,1.055076540664563,-0.21162103503763244,-116.96690434686788,-73.43200812993504,-76.93220047291221
1760516279.8618333,-10.170792472753073,-0.33584645577368966,1.0447946661792626,-0.16065749164261287,-114.7732106012553,-77.34956930072785,-75.53022716820732
1760516279.8718436,-10.934442146782036,-0.3142635113721208,1.0321609221621553,-0.1052928727829275,-110.22539945387454,-80.3313268953861,-73.23400405841704
1760516279.8818417,-11.6579119565968,-0.28364909350468986,1.016595189889867,-0.049553480805187906,-103.58532753646378,-82.30682579994507,-70.16601581171672
1760516279.891857,-12.33363155927761,-0.2467821245140313,0.9978746586950354,0.002937650582345289,-95.21243920479495,-83.25665973867248,-66.4664414838539
1760516279.9018722,-12.956082092812863,-0.20673637263587413,0.9762547852430319,0.04926188603979163,-85.53076489370353,-83.20113505971209,-62.27722704691445
1760516279.9117885,-13.52147404350427,-0.16659882224980474,0.9524758191651775,0.08740351115533453,-74.99482634515769,-82.18803942812629,-57.72771734027105
1760516279.9219246,-14.027262910172523,-0.1291795185863258,0.9276610071733699,0.11634479551743226,-64.05718380805234,-80.28251018234639,-52.924110837345694
1760516279.9319155,-14.471598378413793,-0.09674261581285534,0.9031443213759885,0.13606519881883913,-53.139591790112185,-77.56032796515595,-47.94413628522366
1760516279.9417984,-14.852815755353163,-0.07080469827112867,0.8802786755216606,0.14745610136759038,-42.60927834680657,-74.10418197164262,-42.83719256079436
1760516279.951882,-15.169076060265015,-0.052047181147929784,0.8602677986750034,0.15216111904264434,-32.761621178130994,-70.00129504960348,-37.629185062066796
1760516279.9618053,-15.418238829109072,-0.040364320989549195,0.844044280748855,0.1523517428280873,-23.810141830946204,-65.34056102850023,-32.330713119991515
1760516279.971783,-15.59800917582645,-0.035027526446126986,0.8321968665767978,0.15045477695489065,-15.884119105432113,-60.20791080479638,-26.94710068095047
1760516279.9817731,-15.706346066238341,-0.034916195698773814,0.8249400110311296,0.148860373424423,-9.033357499794542,-54.67967796646881,-21.488831973521336
1760516279.9917703,-15.742065508328835,-0.0387622507629043,0.8221162559559785,0.14964924271680044,-3.2389373393731398,-48.81491169712992,-15.981087065881487
1760516280.001824,-15.705531627101985,-0.045371757656688126,0.8232238655059747,0.15437698166936253,1.5717405637451243,-42.648484830373846,-10.47121223386628
1760516280.011783,-15.599305923358953,-0.05380205409913805,0.8274670262372233,0.16394082955909114,5.507523734826501,-36.1871663156565,-5.033133111480704
1760516280.021822,-15.428623704850741,-0.06347865584895339,0.8338299480350595,0.17853565708624458,8.695503875205132,-29.41050977794391,0.23202991534944337
1760516280.0319502,-15.201589916440335,-0.07424030894379877,0.8411744777451868,0.1976904326061127,11.26398989485297,-22.277562399284054,5.199527831001324
1760516280.0418339,-14.929033035756571,-0.08630897531023131,0.8483534263023681,0.2203678240060089,13.32783011133889,-14.739144303138186,9.728656562025721
1760516280.0518448,-14.624015362833209,-0.10019191457474713,0.8543241490635242,0.24510614584735643,14.977448312246667,-6.753976939789704,13.673936123784795
1760516280.0618463,-14.301056037518507,-0.11653213899537032,0.8582448788197449,0.27018239915405484,16.272864556486095,1.6943457142520544,16.89865910547853
1760516280.0718782,-13.975167175423099,-0.13593147078914466,0.8595415115942721,0.29377799477527955,17.24344209435808,10.58310465409317,19.289226398238657
1760516280.0818896,-13.66082728899752,-0.1587766464438617,0.8579412146358532,0.3141349120375814,17.893133807722133,19.841957476343083,20.768418321786303
1760516280.0917747,-13.371018351414246,-0.1851002339257433,0.8534754217260646,0.32969671732908873,18.20999170335875,29.351745846457685,21.305721766712583
1760516280.1017945,-13.116435945386293,-0.21450235529503137,0.8464555549706864,0.3392319499709155,18.178051339463867,38.95028309876932,20.92310829324014
1760516280.1118314,-12.904951421741982,-0.246148034601033,0.8374229205714645,0.3419349114739021,17.789500893708375,48.44319911006192,19.695244351939277
1760516280.1218443,-12.741368109559192,-0.278842527472847,0.8270752816401663,0.33749249997810926,17.055171532308236,57.617058748718726,17.743922488019045
1760516280.131783,-12.627477019782017,-0.31117558871885037,0.8161785211709389,0.32610022038762704,16.011751042654115,66.25197767857726,15.227376183219027
1760516280.1417994,-12.56238455938523,-0.34171403557189345,0.805477770390962,0.308412594664298,14.724715063082012,74.13172543473131,12.325932395364646
1760516280.1517832,-12.543055358944146,-0.3692093263393465,0.7956221596178802,0.2854264009601018,13.286746715814177,81.0505626394721,9.226057748236297
1760516280.1618721,-12.564987166303387,-0.3927776913123502,0.7871109417656609,0.2583139537805754,11.812222417397695,86.817381785211,6.105179174709762
1760516280.1717875,-12.62291533961165,-0.41201196574012444,0.7802623358644556,0.22823737197597446,10.428955578303686,91.25861407807815,3.119594418891434
1760516280.1818323,-12.711438460399467,-0.4269994416503836,0.7752049647064588,0.1961781334060508,9.268648930990201,94.22150584508795,0.39723186831240964
1760516280.1917841,-12.825469162478043,-0.4382438987167668,0.771894077460654,0.16281170745162052,8.457418243365119,95.5787734149164,-1.963984022504108
1760516280.2017765,-12.96044508425484,-0.44651332155434564,0.7701562189997684,0.1284493758068193,8.107460670559334,95.23462742182373,-3.892619887627534
1760516280.211794,-13.112278227062243,-0.4526493123010456,0.7697629689285015,0.09306078092414993,8.310596168817394,93.13117695460822,-5.3366341541096896
1760516280.2217715,-13.277068726721003,-0.457376150084076,0.7705263002881306,0.05638030745744665,9.134067559137613,89.25373037920536,-6.254965836738591
1760516280.2317946,-13.450652558419344,-0.4611392349113623,0.7723983015754948,0.018086334237127338,10.618638274542834,83.63376993945893,-6.610241930956459
1760516280.2418,-13.628084257360527,-0.4639906480466945,0.7755519483994994,-0.021973420886749542,12.778682831916344,76.34932004896163,-6.364598472295058
1760516280.2517905,-13.803169661894627,-0.4655294651194548,0.7804208887122732,-0.06354909741088623,15.603673494044578,67.52363883538737,-5.479708189840339
1760516280.2617795,-13.968157855693594,-0.4648988253222198,0.7876844146923503,-0.10579123359085901,19.0602860126923,57.32409334246331,-3.9210117496989048
1760516280.271777,-14.113677852928461,-0.4608405386189157,0.7981962720236431,-0.1471293895232068,23.094307715591814,45.963291947136355,-1.6651795813151349
1760516280.2817664,-14.228968455052076,-0.45180865777461693,0.8128696218544956,-0.18526194297005855,27.631644475742316,33.70380168968716,1.2907893931857115
1760516280.291765,-14.302404054071655,-0.43614190076894055,0.8325411965700211,-0.21728231790512434,32.57799772598558,20.866117091385625,4.920624442243426
1760516280.3017724,-14.322271802348967,-0.41228950662205194,0.8578402586201562,-0.23995009455256666,37.81720274856638,7.837415754910355,9.161595257158503
1760516280.3118222,-14.277716861202038,-0.37907797588280256,0.8890804579746904,-0.25009118662713986,43.20872619985853,-4.92322497991423,13.910195827432107
1760516280.3218453,-14.159752403728783,-0.33599780656456707,0.9261804699681638,-0.24508386761398848,48.58533113765055,-16.88835284352334,19.021222214835593
1760516280.3321025,-13.962231684057665,-0.2834771397123166,0.9686102122290838,-0.22336368235607118,53.75235648988658,-27.479048285173995,24.310305984095145
1760516280.3418126,-13.682692417205555,-0.22309294599055815,1.015355677788256,-0.18486543077032944,58.49033732931838,-36.0977392918561,29.559810496274043
1760516280.3518617,-13.322997115202844,-0.1576575526434486,1.064895633090216,-0.13131741513763917,62.56264506115815,-42.176088570343786,34.52811315693084
1760516280.3619497,-12.889700934067047,-0.09112167513295162,1.1151901833945321,-0.06631460760124896,65.72922884746808,-45.233351365418045,38.96245809161177
1760516280.371821,-12.394084353008852,-0.028263487893340503,1.1636975818326258,0.004874829517418209,67.7662854448934,-44.93755427980909,42.6154918751048
1760516280.381819,-11.851800539932302,0.025817617990262998,1.2074546308713592,0.07577294255882558,68.48998294022496,-41.160373577179165,45.26508378133047
1760516280.3918324,-11.282113958780622,0.0663320325068271,1.2432613195934599,0.1393785103338992,67.78077815420845,-34.016883444302366,46.736068127725346
1760516280.401814,-10.706748238043193,0.08945110498801938,1.2679900412446734,0.18898321988045716,65.60406251731949,-23.883028298844025,46.921392807738115
1760516280.4124954,-10.148410905345825,0.09286815934241102,1.278996761777779,0.21899487168662546,62.023175480837544,-11.386252510675217,45.79928691147053
1760516280.4220562,-9.629110119601123,0.0761778226542958,1.2745634689237793,0.22564450107170755,57.202031033197535,2.6320745313990335,43.442937829558794
1760516280.4323483,-9.168414643073392,0.04101424803085275,1.254271862163023,0.2074808669626917,51.39621727123739,17.180109170694912,40.02001388971429
1760516280.4418023,-8.781826735177342,-0.009075288563636711,1.2192128413017895,0.165593806171989,44.93306187721402,31.198766130340843,35.78102750449591
1760516280.4518223,-8.479435521889936,-0.06900851695218987,1.1719715573207812,0.10354120430175401,38.182686436821406,43.655561938747404,31.037561917298685
1760516280.4635293,-8.264995860540063,-0.13274884920258936,1.1163774925349774,0.026980043901875205,31.523484464699383,53.63821642520232,26.133247953810177
1760516280.471925,-8.135537594920331,-0.19400662457734516,1.0570581111624455,-0.05697013730687973,25.30655282709921,60.43720105508775,21.411595997697255
1760516280.4819376,-8.081557360449368,-0.2469571712606554,0.9988734986606612,-0.14056553401481967,19.823973805107077,63.60808894578234,17.185063592268605
1760516280.491925,-8.087786573532421,-0.2868702831343059,0.9463306123547851,-0.21637123527478586,15.285214064653292,63.00735400074202,13.709102011099164
1760516280.5018916,-8.13447256867653,-0.31056712104999934,0.9030744300068444,-0.27815377111967343,11.804435935179782,58.79849974150719,11.163723668641031
1760516280.5118418,-8.199061067519306,-0.3166567748476046,0.8715312711866686,-0.32159496060644754,9.39966158411629,51.428596625415615,9.64378705153971
1760516280.5219107,-8.258129642283405,-0.30554317902925304,0.8527448667086229,-0.3447163897933731,8.002923991595251,41.57833085541049,9.157986564226613
1760516280.5318224,-8.289392921431986,-0.2792258032657789,0.8464080212074077,-0.34795533038239,7.479050144207175,30.09144149376,9.635590933974838
1760516280.5418248,-8.273581481141775,-0.24094111973873827,0.8510603424257686,-0.3338959271347634,7.649711109017158,17.891664889397674,10.9393494383681
1760516280.5519083,-8.195994846627816,-0.1947051439656623,0.8644011124450808,-0.30671989458915266,8.318948314645223,5.8965640550704554,12.88267756534253
1760516280.561813,-8.04755771821939,-0.14482186865720878,0.8836578055157928,-0.2714866291431193,9.29658676102483,-5.062435895309356,15.24917236128256
1760516280.571899,-7.825274022692239,-0.09542020582796457,0.9059535357761183,-0.23337461160939235,10.416705998350887,-14.305823358619222,17.812591592779555
1760516280.581833,-7.532063862135707,-0.05007273159286616,0.9286273930045381,-0.19701022428897935,11.549475759339462,-21.35190171283582,20.355605022670407
1760516280.5918117,-7.176057241867313,-0.011532125458183284,0.9494762237350726,-0.16597969076548716,12.605920878889187,-25.93997728901783,22.685898888095917
1760516280.6018057,-6.769480650540373,0.018401919870295016,0.9669017713902788,-0.142574089687802,13.536305071858797,-28.030921932054262,24.648589718759403
1760516280.611811,-6.327297916341048,0.03889546182342431,0.9799614348406275,-0.12776826298964764,14.32363444248562,-27.78771799551058,26.1343331717456
1760516280.6218095,-5.865760507987466,0.04999935515175956,0.9883334162316535,-0.12139296622242213,14.974210708827602,-25.540352738797083,27.08293058580609
1760516280.6317916,-5.40099843325113,0.052507363097993295,0.9922168303514051,-0.12243330869210294,15.507236566466188,-21.74030239774197,27.4825995900286
1760516280.641792,-4.947755938928771,0.04778186485175934,0.9921930526744202,-0.12937798214079066,15.945261906098656,-16.909914768533707,27.365372610793575
1760516280.651963,-4.518354550565797,0.03756599130806513,0.9890751941369272,-0.14055099031079402,16.306836500312876,-11.591507785169824,26.799316735101705
1760516280.6621864,-4.12194627867282,0.02379441931296891,0.9837686241162894,-0.15437567825619994,16.602173846005407,-6.3002542196119276,25.878441241828423
1760516280.6719563,-3.7640936963634317,0.008415431001125621,0.9771583919582469,-0.16954411763739233,16.832006598555697,-1.484131661362355,24.711301284568048
1760516280.6817808,-3.4466812037322874,-0.006761743264946231,0.970030540303863,-0.18508833170291364,16.98921953726009,2.5065660713992677,23.409422915450687
1760516280.691813,-3.168131837538952,-0.020184153851764263,0.9630255216239378,-0.20036893071478154,17.062395173355636,5.438503124255179,22.076714639211406
1760516280.7018242,-2.9238810570266853,-0.030633166157296984,0.9566162483795685,-0.2150076279402863,17.040196135790836,7.202689734138547,20.800920158937426
1760516280.711809,-2.7070425486751626,-0.03726408763894949,0.951102657188706,-0.2287924842161459,16.91555675287627,7.810400163705714,19.647883128367443
1760516280.7218432,-2.509194903720653,-0.03961306075059673,0.9466177904497045,-0.24158254595181947,16.688893548015336,7.379073139716924,18.658988284201396
1760516280.7318132,-2.321224920557026,-0.037582543411847705,0.9431443609591379,-0.2532347432228315,16.369861106010294,6.11045306580967,17.851698822608814
1760516280.7420175,-2.1341736008199366,-0.03141632448016309,0.9405431567960703,-0.2635686275954549,15.977487883364278,4.263691638698703,17.222706787158792
1760516280.7519622,-1.9400314619395687,-0.021666350333892175,0.9385939991262777,-0.27237208677425134,15.538785535278851,2.1262262428347185,16.752918167081
1760516280.7618108,-1.732422584580011,-0.009145600414210727,0.9370463609469286,-0.27943782832750186,15.086128366946966,-0.01495345574716117,16.413357488769925
1760516280.7718368,-1.5071148107688,0.005138746921567811,0.9356724353297378,-0.28461273823840333,14.653842997110662,-1.8994321968557017,16.17111050183058
1760516280.7818117,-1.2623025039825397,0.020072783639044443,0.9343132272089548,-0.2878422783755239,14.274520250386717,-3.3151319975602003,15.99458851996043
1760516280.7917998,-0.9986253570634882,0.03454053280606797,0.9329090832670239,-0.28919738865642963,13.97555478713166,-4.114402827752102,15.85762266154524
1760516280.8018403,-0.718910444280457,0.04753841435024107,0.9315089091045313,-0.2888787679986264,13.776341360031244,-4.223554764675995,15.742117119554143
1760516280.8117967,-0.4276564422318453,0.058287203794189515,0.9302559956229033,-0.28720074654634625,13.686428864996525,-3.6453730412815,15.639175908758036
1760516280.821832,-0.13031708889517427,0.06632459008198988,0.9293526907051075,-0.28456235109091876,13.704780419910701,-2.454617148346776,15.548764006490199
1760516280.831822,0.16752186432105443,0.07156016200359738,0.9290109058760453,-0.2814149309649541,13.820138807504685,-0.7870019781465105,15.478080474503452
1760516280.841821,0.4609524279087927,0.07427871131278685,0.9293992368786795,-0.27823326940683746,14.012372783689672,1.1773136513905342,15.438918143286092
1760516280.851957,0.7464155095729766,0.07508637777657677,0.9305983100743284,-0.2754917680638964,14.254589020550904,3.234174381381369,15.444369008535663
1760516280.8619652,1.0221241225195479,0.07480429775236311,0.932573283597466,-0.2736423156625204,14.51574241660511,5.177771901153411,15.50530627679724
1760516280.8718162,1.2881640679991246,0.07432353381559187,0.9351677999129646,-0.27308915517054394,14.763470068655412,6.82249668381524,15.627119705332955
1760516280.881833,1.5462474833528528,0.07444300107757805,0.9381190690364632,-0.27415873543166785,14.966904163946214,8.021832879516193,15.807177385472453
1760516280.8920114,1.7991563928294139,0.07571896330518314,0.9410900388473262,-0.2770666214115382,15.099263519211247,8.682157008319184,16.03341414198409
1760516280.9018927,2.0499770305807647,0.07835730466908569,0.9437120630905518,-0.28188715493310884,15.14005994888606,8.770024393485961,16.284299155650636
1760516280.9117963,2.301272509597805,0.08217326789915048,0.9456304108136092,-0.28853419875645037,15.076772382931685,8.312466935348036,16.530229846104437
1760516280.921814,2.554354075599656,0.08662770250675782,0.9465454765998609,-0.29676158665001034,14.905838607648487,7.390742592643094,16.73617498574877
1760516280.9318254,2.808787724642577,0.09093136399347748,0.9462445246029648,-0.30618793743429557,14.632809843524091,6.128713459718956,16.86519940845112
1760516280.9418461,3.0622264700452027,0.09419697001960883,0.9446217639459683,-0.3163431491225367,14.271543860032617,4.677540748405895,16.882385642135183
1760516280.9518197,3.3106028923782556,0.09561309295448205,0.9416871478560831,-0.3267283114452704,13.842407514888137,3.1986725119462456,16.758635028745758
1760516280.9618428,3.548656480829854,0.09461023329828849,0.9375649751033869,-0.3368815806056686,13.369612071164903,1.8471476656251373,16.47387215945072
1760516280.9719565,3.770707352085582,0.09098658391936132,0.932482552025266,-0.34644626885992164,12.877973214554517,0.7570295050009102,16.019279396205903
1760516280.9818249,3.971533007877964,0.08496414162430048,0.926749162954994,-0.35523514130763073,12.389525674193123,0.03034573749629103,15.398339999416606
1760516280.9918191,4.147177529381037,0.07715945610788492,0.9207273344436679,-0.363275682773837,11.920495005257873,-0.2696654178663993,14.626644469281938
1760516281.0018103,4.295538271742755,0.06847495645508468,0.9147997430222516,-0.3708148987643111,11.479114992981506,-0.12082347492654588,13.730578406782195
1760516281.0118117,4.416632700337281,0.059938364156241014,0.9093338487055309,-0.37826746485424945,11.064672802620402,0.4598305411369353,12.745127034152524
1760516281.021802,4.51252856570454,0.05253061659753521,0.904643562267024,-0.3861070278532944,10.667978504272343,1.4211938032562157,11.711086182804783
1760516281.0318289,4.58699712761916,0.04704275601905919,0.9009471099502157,-0.3947221303174454,10.273214953183823,2.6856297603080823,10.671969889272452
1760516281.041842,4.645001537248663,0.04399159312365561,0.8983252286772858,-0.4042776922579658,9.860855496159246,4.157949592395182,9.670870015804544
1760516281.0518079,4.6921521397102754,0.04360704694514243,0.896690094145464,-0.4146268158385116,9.411088038042433,5.73509800713655,8.747473681561173
1760516281.0620482,4.734242315789745,0.04588290248759615,0.8957760099585218,-0.4252976751351396,8.907049849524197,7.315957106164805,7.935397785082017
1760516281.071818,4.77692105645264,0.05066085179180138,0.8951570332516287,-0.43554963190214985,8.337262070561447,8.810733644806973,7.259967389530169
1760516281.0819173,4.825476694402645,0.057704542380781175,0.8942906723523898,-0.4444757456529475,7.696952740423981,10.149298599375086,6.736550947631425
1760516281.091812,4.884636496632077,0.06672573885935247,0.8925846256457522,-0.45113189165749223,6.988316628011755,11.287657953702492,6.369575117181589
1760516281.1018472,4.95827097940908,0.07734977553694321,0.8894827532380721,-0.45468044213660225,6.219988756667203,12.21160559360317,6.15236459698454
1760516281.1119068,5.048948113008928,0.0890414066407887,0.8845636208434337,-0.45453542352887305,5.406032697540134,12.936750479477787,6.067943173135676
1760516281.121829,5.1573869585346745,0.10103692923360903,0.8776400397829319,-0.45048781742600863,4.564640744658024,13.504625707614277,6.09083994341034
1760516281.131809,5.281957858716799,0.11233032174410741,0.8688433075594074,-0.44278339466400024,3.716650139873051,13.975351448946245,6.189765006177739
1760516281.1418164,5.418415287109485,0.12173976176947254,0.8586737507300969,-0.43212895285499375,2.883978304288579,14.418026495758555,6.330811079008552
1760516281.1518266,5.5600112566713,0.12804898878819224,0.8480012089421982,-0.4196187087698862,2.0881325451031927,14.90035187165181,6.480692988007687
1760516281.1618242,5.698044200721969,0.13019280088930904,0.8380052002384414,-0.4065946866168985,1.3489520193309512,15.478835159595969,6.609523313450459
1760516281.1718276,5.822794590241458,0.12744748600406056,0.8300533264918166,-0.39447048541113594,0.6836356772956786,16.190473443791163,6.6927424101730075
1760516281.181852,5.9247197472127215,0.11959232464363978,0.8255264212250537,-0.3845494400448203,0.10595098511336146,17.046425494186668,6.712018586984925
1760516281.1920917,5.9957374410827,0.10701749334816128,0.825608939155561,-0.3778606616744023,-0.37457938829326903,18.02810409443416,6.6551371297633946
1760516281.201922,6.030413141399517,0.09075892395318715,0.8310732778546418,-0.3750294536086939,-0.7536661889652542,19.08626729478105,6.515059096027102
1760516281.2118144,6.026867767431172,0.07244112767365592,0.8420977746203224,-0.3761977774151198,-1.0333858940572256,20.143738996299525,6.288446078446799
1760516281.2218213,5.987240706123277,0.05411235929822575,0.8581661199137581,-0.3810133194465869,-1.2232119937085082,21.102082203991394,5.974019892784028
1760516281.2319758,5.917592198083919,0.0379755848827095,0.8780886730295004,-0.3887012930278487,-1.3405998658364797,21.851910883798947,5.571136730786465
1760516281.2421262,5.827224673811246,0.026056270580125683,0.9001550479551892,-0.3982125013731102,-1.4108712595557786,22.285825346943394,5.078878158480494
1760516281.251872,5.727527558664529,0.01988303656380161,0.922385243431167,-0.4084133047275626,-1.4663675577993105,22.312454453212638,4.4958145350438725
1760516281.2618225,5.630553462221923,0.020260663417951852,0.942819968972728,-0.4182691843249671,-1.545031118419175,21.869861628179674,3.820439135111585
1760516281.2718256,5.547569713637069,0.02718165246983412,0.9597914431159511,-0.42698257934448597,-1.6886113418665043,20.936532091457916,3.052151026212661
1760516281.281821,5.48779470172856,0.0398763749308779,0.9721334777033342,-0.4340660636437002,-1.9405982283841596,19.53821528600596,2.192592083541541
1760516281.2919984,5.457458955020404,0.05697023252795043,0.9793096400004515,-0.4393481557576373,-2.3438739756582248,17.749101307702784,1.2471010081885814
1760516281.302147,5.4592660521890375,0.07670767180493498,0.9814540936997147,-0.44291693152068295,-2.938045393090524,15.686362035723718,0.22600093506180682
1760516281.311815,5.492283135997248,0.09720714838582839,0.9793296945711419,-0.44501172238218234,-3.7565029655815985,13.498146332260536,-0.8546318237772692
1760516281.32181,5.552254130114114,0.11671474528594929,0.9742122816938416,-0.44588073452498106,-4.823383139882465,11.34654846495554,-1.9731251423548124
1760516281.3318338,5.6322844205799685,0.13382282312190735,0.9677122615953204,-0.44563163882671647,-6.150697306619759,9.388388106062699,-3.103659185840562
1760516281.3418262,5.723791998302221,0.14761964736357988,0.9615495577063977,-0.44410836276871407,-7.735900849999116,7.757294070943435,-4.219164224960286
1760516281.3518164,5.8175727852801185,0.15774415094458666,0.9573075210930967,-0.44082672302074316,-9.560136636928837,6.550302520637883,-5.295469213062458
