timestamp,angle,linear_acceleration_x,linear_acceleration_y,linear_acceleration_z,angular_velocity_x,angular_velocity_y,angular_velocity_z
1760680382.1831331,-6.8908942472012695,-0.09251292635699083,0.9648240350565289,-0.26105868399892557,7.5014666189809835,-8.383255861146896,17.673670515596257
1760680382.1934917,-6.65927614408174,-0.08888401403306141,0.9636887325627195,-0.2606704291984772,7.048152212000106,-10.127532893246348,17.626385115939417
1760680382.2034187,-6.43200045237502,-0.08634687264929815,0.9630106339276573,-0.26052464860729013,6.575285657298687,-11.584807555716838,17.515422180105077
1760680382.2135658,-6.21170219446329,-0.08498389270728811,0.9628342587704308,-0.260972750237126,6.080946062398521,-12.684116360942218,17.351034222972707
1760680382.2238877,-6.000629082599707,-0.08467102872525073,0.9631252721454371,-0.26225650846595494,5.563240743566989,-13.379636826141336,17.141104939356993
1760680382.233457,-5.800369736943948,-0.08513054151630188,0.9637925022158209,-0.2644969962876358,5.021516206136863,-13.65475197967635,16.891753684035898
1760680382.2433684,-5.611703142303282,-0.08599849683854055,0.9647167624837556,-0.2676987263995046,4.457184951218874,-13.523539926391615,16.60859633874736
1760680382.2534559,-5.434553905871121,-0.0868868006198277,0.9657761200908271,-0.27176214442436436,3.873970706937002,-13.029545339668068,16.29850501492197
1760680382.2635927,-5.268025850185536,-0.08743161657503941,0.9668614131025245,-0.27649910314390685,3.277539940183942,-12.241870259660265,15.971522812148727
1760680382.273267,-5.110489398142848,-0.08732772815564378,0.967880764424305,-0.28164924706655375,2.6746532153378095,-11.248829322266017,15.642451944644609
1760680382.2831426,-4.95970404109605,-0.08634980411456791,0.9687554913138671,-0.2868985033578033,2.072080562174719,-10.14966209215672,15.33160526649652
1760680382.2933018,-4.8129633326770564,-0.08436188167592812,0.9694118749808893,-0.2919022282599207,1.4755499707932058,-9.045056632728986,15.06432942122086
1760680382.3035207,-4.667257512082019,-0.08131803584050967,0.9697738355016209,-0.29631393874125184,0.8889455361233513,-8.027455414439794,14.86915887140037
1760680382.3133357,-4.5194551446579245,-0.07725796287325865,0.9697605226088946,-0.2998168616849487,0.313878391340145,-7.172217211768096,14.774772679949061
1760680382.323521,-4.366505595565452,-0.07229979486672908,0.9692905716268158,-0.3021524211427019,-0.2503397789882103,-6.5306470676485775,14.806202084001544
1760680382.3334591,-4.205658302132156,-0.06663042791166679,0.9682923833885758,-0.30313962990150123,-0.8063576585105884,-6.125682980347775,14.98090140793543
1760680382.3432198,-4.0346867167382685,-0.06049284191506489,0.9667180881787428,-0.3026822759202979,-1.3581505103438742,-5.950692027112493,15.305323459657895
1760680382.3531916,-3.8520996950771296,-0.054170806246373625,0.9645579475165456,-0.30076475904787436,-1.9101725320300573,-5.971442595185643,15.772551107678723
1760680382.3632007,-3.657323846118474,-0.047973094916497816,0.9618517813698579,-0.2974400634342945,-2.4663767803153895,-6.13094126469821,16.361366067441605
1760680382.3733878,-3.4508453675170805,-0.04222017744012439,0.958694651021603,-0.29281377769369815,-3.029188522236702,-6.35650522689665,17.036925303476863
1760680382.3834,-3.2343047609987523,-0.037235272760398785,0.9552353162974485,-0.2870272465150589,-3.5985359263932475,-6.568221598567693,17.753006058375597
1760680382.3933845,-3.010539105481481,-0.03333925394009555,0.9516673638999565,-0.2802421232630546,-4.171074103061175,-6.687834687713165,18.45560939848341
1760680382.4033597,-2.78356386002212,-0.030846573965493944,0.9482137690089837,-0.2726279433263022,-4.73976753877904,-6.647086522459972,19.087596537157484
1760680382.4134998,-2.558481130669616,-0.030057884017507124,0.945105793359688,-0.2643535403934364,-5.293990773842886,-6.394591583622657,19.593953053713104
1760680382.423303,-2.3412964465088075,-0.0312445159540841,0.9425570287777981,-0.25558277674136515,-5.820245465743092,-5.900448528111284,19.92719740822929
1760680382.4331298,-2.1386257495055268,-0.03462150666713008,0.9407341527065081,-0.24647583696654993,-6.303482535657575,-5.158003530801172,20.052366251759178
1760680382.4434366,-1.9572845311741538,-0.040310455374001936,0.9397282014404287,-0.23719824505079834,-6.728895449958628,-4.182511816624974,19.950960223616082
1760680382.453418,-1.8037743063459273,-0.04829979430260042,0.9395329600187765,-0.22793885736026584,-7.083950945968652,-3.0068933040646746,19.623270328035844
1760680382.4635983,-1.6837120800250172,-0.05841414493229245,0.9400383808934233,-0.2189348340061389,-7.360368835370722,-1.6752825657593777,19.088646399592754
1760680382.4734313,-1.6012739301652965,-0.07030323337883361,0.9410451751898873,-0.21049747042401876,-7.555761718063161,-0.23551694531359868,18.383499941079062
1760680382.4837556,-1.5587326500313798,-0.08345452170261333,0.9423018575955421,-0.20302976043072998,-7.674696649193727,1.2680328798483445,17.557121340773325
1760680382.4934464,-1.5561573098706498,-0.09722567782584812,0.9435593267360686,-0.19702586867526967,-7.729027638069721,2.7998896344986237,16.66569653872649
1760680382.5031486,-1.5913148970944626,-0.11088761525095239,0.944633038746558,-0.19304466440833726,-7.737441503356759,4.336050124730293,15.765180030550788
1760680382.513373,-1.6597815458357144,-0.12366832799737063,0.94546058901247,-0.19165386354524036,-7.724235801696774,5.8631773170693675,14.90386856457067
1760680382.5234025,-1.7552425432727572,-0.13479108518583424,0.9461430329024128,-0.1933472437540177,-7.71740122611545,7.374583163326564,14.115594528924003
1760680382.5334523,-1.8699406089676323,-0.1435051034699084,0.9469606548423387,-0.19844355535780947,-7.746123408049199,8.863907347789356,13.414416079560704
1760680382.5431626,-1.9952217588212589,-0.14911082005166593,0.9483574705349271,-0.2069812613117882,-7.837867016098595,10.317972330576104,12.791528900131212
1760680382.5535433,-2.1221277446214284,-0.1509850385239769,0.9508933853142093,-0.21862762298872537,-8.015271184527826,11.71059970119038,12.214878690215064
1760680382.5633361,-2.2419929048502345,-0.14861310294180463,0.9551684485525443,-0.2326229233090197,-8.29317099287555,12.999125323545941,11.631648890191416
1760680382.5735173,-2.347016642898632,-0.14163433888255464,0.9617292506923132,-0.24777922484657827,-8.676148792232029,14.12492344493325,10.973480339531559
1760680382.583413,-2.430792638535627,-0.12990204597519564,0.9709720927037657,-0.26254703083792125,-9.157079064960248,15.018492492695515,10.163986438476202
1760680382.5933888,-2.488775846455252,-0.11355122492313578,0.9830602015308841,-0.27515285846706494,-9.717122600950612,15.608693846054496,9.127877997268325
1760680382.6033006,-2.5186579561997933,-0.09305884926623233,0.9978719879776626,-0.2837971774061211,-10.327517585924344,15.834749464876635,7.800808117540087
1760680382.6134136,-2.5206074256085236,-0.06927616737421526,1.014992719653482,-0.2868872209520381,-10.95328740810831,15.658807552136741,6.138884716342836
1760680382.6236033,-2.4973212298186573,-0.04341280188278884,1.033752328725468,-0.2832662376492742,-11.558640410517574,15.076491406440736,4.126685518735242
1760680382.633362,-2.4538414376095696,-0.016959773458606303,1.0532997788409004,-0.272395070531389,-12.113420249463772,14.123005511777698,1.782588234778458
1760680382.643404,-2.3971156705544123,0.008447279086246904,1.0726950909104402,-0.25444812976301606,-12.599574191947127,12.873100318651122,-0.8396339343806167
1760680382.6537328,-2.335323824099426,0.031206282305796928,1.0909988091241702,-0.23030383821241904,-13.016360998258747,11.434346282605697,-3.6536416191470673
1760680382.6634789,-2.2770429256479,0.049936876904556005,1.107345414457097,-0.2014336501914169,-13.383016771712725,9.934463482689997,-6.5478873247985465
1760680382.6735508,-2.230361886206589,0.06364372198835257,1.1209967520997195,-0.16971518196526375,-13.73788811048165,8.504587245876689,-9.396880606161846
1760680382.6833875,-2.202075356642281,0.07182614068388625,1.131377813654878,-0.1372070512412634,-14.133620179991786,7.261102135041275,-12.075025994477507
1760680382.6934178,-2.1970762726319504,0.074516253174574,1.138097823733185,-0.10592385899585549,-14.628759378821496,6.288972586577514,-14.47115523915408
1760680382.7032185,-2.218033627424329,0.07223968680875112,1.1409567051330551,-0.07764230367443659,-15.276918582233545,5.629355237771327,-16.50162845314902
1760680382.7134805,-2.265395231855825,0.0659038064924818,1.139934909118732,-0.05375808866699432,-16.11525561568888,5.273709441929929,-18.1200195067037
1760680382.7233992,-2.337707006192094,0.05662749818904194,1.135166576558608,-0.03520122609763479,-17.154278913626847,5.165629318037841,-19.321956327239594
1760680382.733411,-2.4322003056181134,0.045534538487081555,1.126901703378219,-0.022406860735866514,-18.370859019665236,5.210276461555835,-20.144578024125675
1760680382.7434113,-2.5455693257520675,0.033540672040840866,1.1154682509313971,-0.015331994754243579,-19.705838004222237,5.289825076074386,-20.661093453007933
1760680382.7531781,-2.6748384956636917,0.02117197210012715,1.101245619044329,-0.013506348440884856,-21.0669181133421,5.2820940980377005,-20.97180097574347
1760680382.7634058,-2.818202692895672,0.00845493205072663,1.0846557206171952,-0.016106881486685248,-22.336726071836274,5.078871788774233,-21.19341393151518
1760680382.7734487,-2.975713945667123,-0.005087573924453961,1.0661697204719407,-0.022048358224523484,-23.38520921913839,4.600522758671821,-21.448506723646393
1760680382.7834527,-3.1496927055988126,-0.020317151161321927,1.0463214382676178,-0.030085462172369164,-24.084891250141908,3.804301156225715,-21.856370540371497
1760680382.7934175,-3.344765159070106,-0.038245535507163295,1.0257156201480435,-0.038924150545800375,-24.327037848220478,2.6852083961477042,-22.52571919368734
1760680382.8032205,-3.567474717387763,-0.05972318823695967,1.0050212316029943,-0.04733968931930757,-24.036513245691623,1.2699187310737925,-23.548841255543554
1760680382.8132513,-3.825486155220868,-0.0851177101005415,0.9849448007122394,-0.05429537604845846,-23.183133335292222,-0.39415630141419544,-24.996329009190973
1760680382.8232033,-4.126485181112119,-0.114065471700071,0.9661841916493635,-0.05905015151712367,-21.787692205963243,-2.2515855798954156,-26.91164427294146
1760680382.833395,-4.4769534147634165,-0.1453739265690143,0.9493673419708694,-0.06123736596076169,-19.921516997496077,-4.250151899999563,-29.30542962100701
1760680382.8433056,-4.881043834708711,-0.1771213232598178,0.9349834790240124,-0.060894595308507486,-17.69929098462311,-6.348031647962736,-32.150334699168425
1760680382.8535805,-5.339776201348187,-0.20695179774002023,0.9233173663395453,-0.058429486521358764,-15.265888989432076,-8.515726781870944,-35.37783926149791
1760680382.8633509,-5.850711233670828,-0.23251006459972012,0.9144007322828939,-0.05451994328809555,-12.778999277111643,-10.73317951913496,-38.87882858844084
1760680382.873414,-6.408160424212497,-0.25191767746646976,0.9079972979913016,-0.04996467181607985,-10.390178943806381,-12.983864557012684,-42.50935555132181
1760680382.883206,-7.003875119463311,-0.2641769080868914,0.9036346127392562,-0.04551572674898858,-8.2274326949942,-15.248356648168539,-46.10212250748183
1760680382.8932545,-7.628066554020628,-0.26940361522491996,0.9006842978346944,-0.041731898046146264,-6.382185939881328,-17.49974891659328,-49.4829391890771
1760680382.9032547,-8.270559210659417,-0.26883015214048567,0.8984753773947111,-0.03888635386677725,-4.902606796776679,-19.702456839378254,-52.490098142197915
1760680382.9132252,-8.921877867980326,-0.26457125010220134,0.8964123307214903,-0.03694446042902026,-3.7938448643811706,-21.81471458252968,-54.99363507866185
1760680382.923499,-9.574105282252946,-0.2591987499585444,0.8940687569228951,-0.03560510214547692,-3.0243196698507138,-23.79387921976547,-56.911118995431316
1760680382.9332404,-10.221407399867585,-0.2552154616418496,0.891239299908068,-0.03438164923200403,-2.536147046977147,-25.602840843192652,-58.217084266230046
1760680382.943384,-10.860191446345375,-0.2545445215885998,0.8879484813705407,-0.032694694743572436,-2.2573820078097793,-27.215528204777,-58.94438022185427
1760680382.953433,-11.488927485390551,-0.258149513039112,0.884425404610337,-0.02995779086730532,-2.1139270945804287,-28.619673981770195,-59.17726309908684
1760680382.963436,-12.10771627398693,-0.2658697266391231,0.8810539463017304,-0.025652068360155614,-2.0394462759360956,-29.81558764883669,-59.037558351241096
1760680382.9734745,-12.717717327176073,-0.2765023279363989,0.8783036374117554,-0.01939574224859374,-1.9821889345306705,-30.810623617708544,-58.666298149310705
1760680382.9831765,-13.320557089503916,-0.28810497683639325,0.8766448926770655,-0.011013710580753757,-1.9081734260274597,-31.610241121753,-58.20372140585318
1760680382.9934657,-13.917819752882432,-0.29844481872008727,0.8764563385534336,-0.0006016419180566695,-1.8007341437158804,-32.20778710707947,-57.77046501574622
1760680383.003413,-14.510688864108475,-0.3054927629195433,0.8779375894051664,0.011434063319984316,-1.6570187121484006,-32.575975130841684,-57.45233634312524
1760680383.0131943,-15.099765415827003,-0.3078587254384278,0.881043238319358,0.02438419562299247,-1.4825471094832554,-32.66306604153235,-57.29040822314877
1760680383.023315,-15.685048010927694,-0.30508240980235446,0.8854523282804764,0.03730819356577505,-1.2852485624356706,-32.39581941098884,-57.27745891985496
1760680383.0335424,-16.266032442918995,-0.2977297695602786,0.890583553050604,0.04916624110005042,-1.0703522100880043,-31.68960228553717,-57.36107361638721
1760680383.0434384,-16.84187666953613,-0.2872886313606181,0.8956601568264287,0.05898829177433535,-0.8371377325167474,-30.46414088880717,-57.45303277861212
1760680383.0539005,-17.411581367163365,-0.27589759688943516,0.8998190603217456,0.06604148742581477,-0.5779920831853125,-28.661877344258738,-57.44388795214091
1760680383.0633044,-17.974150028491405,-0.26597102225406477,0.902247016514334,0.06995407316244219,-0.27964707218787016,-26.265165328290816,-57.22085901125569
1760680383.0734262,-18.52870843680408,-0.2597944727290758,0.9023170051898317,0.07076383284487844,0.0739724352413309,-23.30871705135826,-56.68647795623359
1760680383.0834124,-19.074575269562573,-0.2591607722064459,0.8996960098177392,0.06887975172487994,0.49811485568587666,-19.884640778511997,-55.774953870950824
1760680383.093369,-19.611281088989635,-0.26510217408141584,0.8944023868834305,0.06497028164647985,1.0036686763155562,-16.138786422135514,-54.46328466845527
1760680383.1034575,-20.138534195790903,-0.27775402400612287,0.8868034062032648,0.05981188293131861,1.5944986996947619,-12.25862759438619,-52.774875435687406
1760680383.1134126,-20.65613395712543,-0.2963619528824017,0.8775554373325835,0.05414085043245577,2.266144768093246,-8.454288052865621,-50.77481837078258
1760680383.123494,-21.163839308897845,-0.31942076739182207,0.8674974549511585,0.04854665943715068,3.0059908089645404,-4.935390345422554,-48.55773513613606
1760680383.1334462,-21.66121103305809,-0.3449123849086242,0.8575133743893117,0.04342773022224223,3.79463005758055,-1.8870389779576187,-46.23067296700872
1760680383.1439085,-22.147455316125086,-0.3705958197591653,0.8483821003843905,0.03900758887822647,4.607910477345853,0.5516351340253323,-43.89451976113345
1760680383.153433,-22.621298151714946,-0.39429803122419677,0.8406371983376936,0.035390389318035016,5.4191170197726,2.303341105948363,-41.627545370689745
1760680383.163785,-23.080916014289627,-0.41416286761525367,0.8344600880575185,0.03262598925714811,6.2009057612842415,3.3606937753156303,-39.47403412484644
1760680383.1734397,-23.523941240750364,-0.42883289957400944,0.8296296103237464,0.030757101070011825,6.926851984389201,3.7853786494564625,-37.43975478285283
1760680383.183734,-23.94755077677081,-0.4375562879309703,0.825544748750537,0.029832215233756117,7.572699083194841,3.698584379804553,-35.494509271550406
1760680383.1935427,-24.34863179352095,-0.4402210163566934,0.8213258102636944,0.029884421544663392,8.117516724702833,3.2641170825359604,-33.580547973636534
1760680383.203496,-24.7239980990637,-0.43732273035633057,0.8159846047605231,0.030892321511641205,8.544971747042403,2.666643158178857,-31.62456506192978
1760680383.2132206,-25.070613941684133,-0.4298747214874216,0.8086398393578237,0.03274809900254027,8.844813351231192,2.0881699860275824,-29.550532736488304
1760680383.223525,-25.38577504825462,-0.41927184099012565,0.7987433814459133,0.03525502034624252,9.01452317579597,1.6860780896902146,-27.29087842881969
1760680383.2334511,-25.667205557836464,-0.40712407043830723,0.786278369742281,0.03816307636184176,9.060919634557527,1.5757502650548272,-24.7943355102423
1760680383.2434304,-25.913053298383634,-0.3950788206935533,0.771892454777476,0.04123333540246869,9.00136330624903,1.8201369904999238,-22.029920138525497
1760680383.253406,-26.1217980997634,-0.3846520758351461,0.7569384345585025,0.044307249583087696,8.86411581482534,2.427517662186951,-18.98756108924588
1760680383.2634337,-26.29211709154809,-0.37708541398285383,0.7434080665648194,0.04735276885865165,8.687392757961339,3.357400776597119,-15.676645346419523
1760680383.2732458,-26.42276499650419,-0.37323851115074597,0.7337593040236506,0.05046552662469378,8.516755736878192,4.5331956348527545,-12.123948440181307
1760680383.2831607,-26.512520525467142,-0.37351811424304937,0.7306491866276607,0.053817104580772976,8.400729863140594,5.859260387897037,-8.372042152836238
1760680383.2934778,-26.56022609814748,-0.3778392678603467,0.736593357834642,0.057558546738357384,8.38490157200994,7.239374378390465,-4.478465294448585
1760680383.3034017,-26.56491664349759,-0.38561506539671514,0.7535817952609118,0.061701088965814124,8.505200543524246,8.59364531319398,-0.5150428141610938
1760680383.3134658,-26.52600367772213,-0.3957766889147938,0.7826926663462246,0.06600396379187484,8.781512365980534,9.871291310602167,3.433879900998421
1760680383.3232071,-26.44346184006779,-0.4068338884301288,0.8237616832415257,0.06990000853291481,9.213066856249403,11.057529278189312,7.275593942076506
1760680383.3341703,-26.31796361809856,-0.41699365045942194,0.8751766574896438,0.07248392256046035,9.77702588240904,12.173808245626743,10.916332873981752
1760680383.3434217,-26.15092603896574,-0.4243556753553944,0.9338672664109057,0.07257529215188718,10.431223940106733,13.27166235684491,14.271450767440166
1760680383.3535726,-25.9444640367226,-0.42719022387343314,0.9955402337085112,0.06884995387258132,11.121109142033413,14.421333446933808,17.277011159057544
1760680383.363506,-25.701274985573235,-0.42427265247419904,1.0551661356424282,0.06001452028606989,11.789789658524583,15.69691087288319,19.900439573020474
1760680383.3733778,-25.42449300394045,-0.4152064123656695,1.1076609068071706,0.04499011428028919,12.389051591723057,17.160060567191554,22.147691101590755
1760680383.3834252,-25.117544200448396,-0.4006353412208029,1.1486402418412516,0.02307913453645335,12.888654789371458,18.84454127921317,24.065019754445206
1760680383.3934903,-24.784012171511772,-0.38225389857742914,1.175083582726032,-0.005895310309231109,13.281390801001391,20.743673844376442,25.73469072896563
1760680383.403224,-24.427502160866617,-0.36257727481194235,1.1857481282083622,-0.041483365875204695,13.582333923851792,22.80271457166776,27.265306041990335
1760680383.4133008,-24.051485651929482,-0.34450800440235524,1.18123078335843,-0.08255516735004724,13.822250813309362,24.91765130525808,28.77829098566851
1760680383.4236536,-23.659118682787017,-0.3307962955914939,1.1636746972143865,-0.12733178096161854,14.036887544372659,26.941249920912128,30.392394119590264
1760680383.433275,-23.25305047297332,-0.3235165259033842,1.136221555628538,-0.1735223630997518,14.255249797559006,28.696178722734928,32.208057384287585
1760680383.4433959,-22.83526033100875,-0.3236709149076049,1.1023765712834128,-0.21856088398146162,14.490408862653117,29.99380224979416,34.293489581938495
1760680383.4536138,-22.406966145369875,-0.3309931820347823,1.0654535987105547,-0.25990483305548734,14.735538955575976,30.65609871880378,36.67423236796229
1760680383.4632585,-21.96863259003276,-0.34397574607171527,1.0282107250314152,-0.29533856346300774,14.966156336293837,30.53755499231986,39.32775246183386
1760680383.4739769,-21.520080836988157,-0.36010072581739416,0.9927051152892037,-0.32322129026975227,15.147599749930349,29.54401618578735,42.1839640581226
1760680383.484003,-21.06067894294274,-0.37622668157942296,0.9603260961548828,-0.34263524204511925,15.24533398497562,27.6461115421675,45.131625397180876
1760680383.493766,-20.58958124025203,-0.3890667482547112,0.9319294521700558,-0.3534178754796801,15.235056490332672,24.88568792932434,48.02955979060996
1760680383.5036733,-20.105983494123297,-0.3956832459336219,0.9079959768549218,-0.3560918651575456,15.109888926339218,21.374459483901152,50.72100620452236
1760680383.513739,-19.609361586563782,-0.3939194703040605,0.8887614643488458,-0.35172596471456535,14.882914976277672,17.284861325627865,53.04928435248089
1760680383.5234015,-19.099661835728313,-0.38269682858331683,0.8742971256475475,-0.3417639173376081,14.584623809814461,12.833985087398071,54.87321768778273
1760680383.5334985,-18.577412693607705,-0.36212778434279114,0.8645453059463248,-0.3278507227500694,14.256083004152126,8.26246143553891,56.081100360234345
1760680383.5432904,-18.043734754503205,-0.33343016287911037,0.8593281855163523,-0.3116733367736856,13.939613680478315,3.8110409985982128,56.60221636763191
1760680383.553534,-17.50024207712649,-0.29866971283395766,0.8583473214662207,-0.294823292980767,13.669192185227319,-0.30186858753088675,56.41498540880184
1760680383.5634577,-16.94885225217253,-0.26039406681348665,0.8611851612493289,-0.27868481874227147,13.462705085463448,-3.8985277973830548,55.550814190369515
1760680383.5734339,-16.3915494646869,-0.2212407891919797,0.8673121058172585,-0.26435216936400113,13.317612547088677,-6.853594212415565,54.09283609795153
1760680383.5832467,-15.830164130303324,-0.1835996849394242,0.8760981759936572,-0.2525803816530905,13.210696319074083,-9.098079955186746,52.1690763445634
1760680383.5934715,-15.26623498634728,-0.1493863418363732,0.8868284851149691,-0.2437720253727279,13.101614179910314,-10.61591291954137,49.94023906947295
1760680383.6036458,-14.701000407909046,-0.11994692149623205,0.8987251852482714,-0.23799896554442512,12.939207460835911,-11.434846313652603,47.583199832887786
1760680383.6134856,-14.135529135456661,-0.09607639678313426,0.9109809602014878,-0.23505389828975495,12.669104393292596,-11.61424796594676,45.272192294533994
1760680383.6234097,-13.570958240498676,-0.07810793068522888,0.9228066537835224,-0.23452247884267996,12.241184248982131,-11.232342848577332,43.160307858275104
1760680383.6336253,-13.008772887316482,-0.06602665719065227,0.9334887844512557,-0.23586422936495646,11.615828208294161,-10.374890935878406,41.3640377190608
1760680383.643285,-12.451050165193326,-0.0595733541913953,0.9424459977877467,-0.23849017337920903,10.76840247283142,-9.126368319477479,39.953118105233
1760680383.6532466,-11.90060213338816,-0.05832350053489151,0.9492714989922985,-0.24182751573409228,9.691894241563366,-7.563858493224629,38.947011175161805
1760680383.6635554,-11.360985844785699,-0.0617455551654224,0.9537524045952965,-0.24536572957888322,8.397904536829202,-5.75333532037534,38.31817472413438
1760680383.6734655,-10.836387390070367,-0.0692516754753353,0.9558642335204687,-0.24868291655863511,6.916253852573681,-3.7479016140454626,38.00109473850606
1760680383.6836216,-10.331417824275443,-0.0802518655324676,0.9557453376235162,-0.2514555933035643,5.29333546032361,-1.5876991490757169,37.90514088804005
1760680383.693591,-9.85087099423312,-0.094211915407213,0.9536589659414403,-0.25345848080586214,3.5891704055981593,0.698602374616076,37.92886081547976
1760680383.703473,-9.3994849418474,-0.11070284053803102,0.9499494064421673,-0.25456211779805754,1.8730106861551852,3.090773654022569,37.973425693858815
1760680383.7136226,-8.981725387152078,-0.1294212032493318,0.9449953544633726,-0.2547341857712808,0.217415885752567,5.572624140761243,37.953497787833
1760680383.7237291,-8.601582949026154,-0.15016133588155048,0.9391620190219144,-0.25404627686844594,-1.3089669589734023,8.126697458406252,37.804607113893304
1760680383.7332716,-8.262358844944663,-0.17273482776786758,0.9327563604129336,-0.25268384170502833,-2.6492278543087933,10.72889069840014,37.486928738511125
1760680383.7432318,-7.966416887803017,-0.19685498878597119,0.9259962627864133,-0.2509546568418938,-3.7654629356609957,13.344102969140573,36.98590967915407
1760680383.7532604,-7.714902856047041,-0.22202261308492724,0.919009320780006,-0.2492897658541638,-4.644042341384142,15.924038024418456,36.3104108527737
1760680383.7637496,-7.507464147020969,-0.24745255358033633,0.9118745863574523,-0.24822931486555994,-5.297496324759134,18.4079314100937,35.48897989334003
1760680383.7732604,-7.342025120477916,-0.27206505372539785,0.9047089471351996,-0.24838421829691573,-5.762145793277007,20.726293305737435,34.564725048664556
1760680383.7838385,-7.214674883946136,-0.2945408055428205,0.8977824116018361,-0.2503651531970649,-6.091486230240944,22.806967862235258,33.58917218719777
1760680383.7941089,-7.119707759022714,-0.3134202181434482,0.8916313651239139,-0.2546757082886787,-6.346365578702258,24.582183302595087,32.6155111515926
1760680383.803506,-7.049834579864716,-0.32722352108599784,0.8871329890867204,-0.261577809931464,-6.583876386395006,25.995018939020547,31.691719167936796
1760680383.8133688,-6.996562714506057,-0.3345739784257368,0.885509712501245,-0.270952195574692,-6.847342206181427,27.003934352200496,30.854091051350636
1760680383.8232944,-6.95072314573436,-0.33431281243068167,0.8882471739081872,-0.28218860620944974,-7.159663453213671,27.584639451986696,30.121667749128516
1760680383.8332598,-6.903102268895892,-0.325598162863295,0.8969277994686881,-0.29414338812615265,-7.521607520293962,27.729439060440612,29.49198495268363
1760680383.8432174,-6.8451176118775,-0.30798317532966885,0.9129998344141949,-0.3051933224400441,-7.9155443152351825,27.444977545428912,28.938536745443404
1760680383.8535569,-6.769466582404463,-0.2814715399896966,0.9375151104088454,-0.3133950451496475,-8.313896526116512,26.74977038658256,28.410381377931675
1760680383.86322,-6.670678662474001,-0.24655080536262047,0.9708765552125577,-0.3167349146275902,-8.690481970113309,25.672883500436487,27.83434472950818
1760680383.8732872,-6.5455119654811424,-0.20420176901753445,1.0126383585526548,-0.31343213608205905,-9.032236768575377,24.25459476647737,27.12020180513526
1760680383.8832502,-6.393150972742366,-0.15587717243558755,1.0613982142527256,-0.3022440018603716,-9.348676921058669,22.54897992890101,26.168948860274348
1760680383.8936212,-6.215183298163124,-0.10344057337305669,1.1148120994585926,-0.2827183631072491,-9.67687018436992,20.627368952042698,24.883781502784124
1760680383.903538,-6.01536214683099,-0.04906183641079871,1.1697463482910149,-0.2553449359038207,-10.080515948662871,18.580845922127697,23.182720149164552
1760680383.9135623,-5.799197169327452,0.004921519232130538,1.2225585406285135,-0.22157295168041216,-10.642798445763061,16.51971800696227,21.011132123482405
1760680383.9236617,-5.573451430139147,0.0561542156412441,1.269471614211751,-0.1836855593277996,-11.453811171927997,14.568338972386513,18.351924546218914
1760680383.9336166,-5.3456431040075385,0.10239471441421012,1.3069835512458514,-0.14454636217109404,-12.594355575874276,12.854805526345174,15.231155088007455
1760680383.9436433,-5.123647229316482,0.14160333154876095,1.332246529697107,-0.10725461462305588,-14.118621321949709,11.496545211230414,11.717341661712378
1760680383.9535613,-4.915464165539773,0.1719771139798806,1.3433563243908153,-0.07475888415726968,-16.03857093896526,10.584179038314462,7.913768079935713
1760680383.9635496,-4.729174546615395,0.19194218713446998,1.33951083221817,-0.04948340236832584,-18.312790423618292,10.166777262642569,3.944356907124434
1760680383.9735131,-4.57304739269747,0.2001332905717338,1.3210214766831465,-0.0330177719980294,-20.842165777008038,10.241470107749828,-0.06505197756472152
1760680383.9832218,-4.455721830206297,0.19540084965164045,1.2891895935121958,-0.02591097406392439,-23.4739884232454,10.74938596168827,-4.007184493416517
1760680383.9934323,-4.386354890548882,0.17688396852922547,1.2460861317407579,-0.027597647053265624,-26.01494504423945,11.578411685519727,-7.812250318340841
1760680384.003279,-4.374624469910598,0.1441719992879761,1.1942890297825393,-0.03647152821315578,-28.251964964361918,12.571824317509707,-11.462053578326728
1760680384.0133927,-4.430498177099702,0.09754877046478912,1.136632212184406,-0.050107963424046706,-29.978300460393395,13.540939792964947,-14.996613658177088
1760680384.0234106,-4.563721787371435,0.0382764409547218,1.0760032300035032,-0.06562022603043284,-31.020872029625977,14.27983323540969,-18.51147866867524
1760680384.033332,-4.7830403930000465,-0.03116072087899203,1.0152005206877674,-0.08010871997423467,-31.26424478709211,14.580811776484426,-22.144987709281047
1760680384.0432744,-5.095235495433674,-0.10695621585272404,0.956837785062239,-0.09113137809352068,-30.66691450257094,14.250237611541417,-26.05602710318301
1760680384.0534906,-5.50413122898628,-0.184125079151295,0.9032710048423022,-0.09710133742676541,-29.266883536507777,13.124913628241343,-30.394367985093083
1760680384.0633357,-6.009770190288347,-0.25694785832191064,0.8565246396082733,-0.09752043515781372,-27.17551479972842,11.089073357369891,-35.267391876080126
1760680384.0732982,-6.607954787395482,-0.3196867568943704,0.8182041675235954,-0.09299053680290092,-24.560920457108445,8.090989129828355,-40.708562676744336
1760680384.0835016,-7.290278001466606,-0.3674474878839566,0.7893983166304176,-0.08499994141030823,-21.624154429614634,4.156787739844784,-46.65379217621894
1760680384.0935035,-8.044647219526619,-0.3969932258474108,0.7705907585009012,-0.07553939663110057,-18.57270537752892,-0.6019824275878675,-52.93135462104692
1760680384.1032522,-8.856188848484816,-0.40731531743054267,0.7616102204883374,-0.06664176056936616,-15.595884058210604,-5.9904945763431705,-59.269172696394186
1760680384.1133423,-9.708362560303653,-0.39982716156345005,0.7616444219103232,-0.059949895866781525,-12.845737944998868,-11.744700125670203,-65.3205021885451
1760680384.123706,-10.584125649554757,-0.3781394362126204,0.769328353411455,-0.05639987492569877,-10.425573576436367,-17.557234235522866,-70.7057735802644
1760680384.1333597,-11.467037465646781,-0.3474593851766088,0.7828985773053873,-0.056071165935544044,-8.386582702588198,-23.112433896392318,-75.06504949935078
1760680384.1436057,-12.34223633025152,-0.31371694758643026,0.8003901261026806,-0.058215601232511974,-6.731811761192446,-28.125388043218738,-78.11278145573955
1760680384.1533484,-13.197236275102535,-0.28256005699898695,0.819845314415678,-0.06144377116444111,-5.425856215889736,-32.378492458541174,-79.68502709543945
1760680384.1639874,-14.022488036793202,-0.2583884239911609,0.8395047721833744,-0.064025520059458,-4.408092131975376,-35.74870810699678,-79.76968515392366
1760680384.1734352,-14.811649888022448,-0.24360557709785433,0.8579576562808775,-0.06424762648898691,-3.606907119700901,-38.219742839510154,-78.51291049451987
1760680384.1833003,-15.561535321775535,-0.23824800530217025,0.8742362323497879,-0.0607627832725705,-2.9523734573449874,-39.87573796559175,-76.19939568359432
1760680384.1933775,-16.271748892124247,-0.24008751374341486,0.8878476029628707,-0.05286216096306494,-2.3853036554286295,-40.87650071288205,-73.20967669581528
1760680384.203664,-16.944077123590116,-0.245205329596614,0.8987426437976781,-0.04061575579541174,-1.861648948661824,-41.41820570434537,-69.96256961669329
1760680384.213648,-17.581748988638378,-0.2489277584068211,0.9072291256129,-0.024852053651479904,-1.3524637154782924,-41.68686259751451,-66.85386543774787
1760680384.2232962,-18.188703063394847,-0.24692393532497833,0.9138413231111556,-0.006984328804292794,-0.8407419079228629,-41.81384333580975,-64.20273537178508
1760680384.2335436,-18.768988801859948,-0.23622389951277145,0.9191827377300544,0.011275028745405492,-0.31700268644396645,-41.84281781093864,-62.215018911332926
1760680384.2433665,-19.326390718576963,-0.21593464149822802,0.9237643416829076,0.028246210989680397,0.22454595621757062,-41.71544126673197,-60.968483738066745
1760680384.253568,-19.864307483466817,-0.18750670955414697,0.9278674732726435,0.04258400074100291,0.7879848137907468,-41.279429634172665,-60.420429790938016
1760680384.2635295,-20.38585698460738,-0.15450860455877863,0.9314622443821784,0.05348255771405135,1.3753210257457227,-40.31802365812496,-60.43375308340123
1760680384.273576,-20.894126568156373,-0.12196975145716944,0.934202606006011,0.06074089184034755,1.984123139433419,-38.595301675290244,-60.81451258792713
1760680384.283256,-21.392455503284758,-0.09543422579532018,0.9354986425022976,0.06468399668251651,2.6041926908440036,-35.90838065535729,-61.35253463155957
1760680384.2936387,-21.884631116561717,-0.07991757283164194,0.9346442084892014,0.06597305002696348,3.214795759894785,-32.136018046665875,-61.85681041943678
1760680384.3032935,-22.374903284785233,-0.07897445467249134,0.9309639607258389,0.06536542481022668,3.7840949630420524,-27.273829434950937,-62.17933456402
1760680384.313652,-22.867771009687633,-0.0940626063193988,0.9239424556309714,0.06349277943513358,4.272019424238496,-21.449116930462072,-62.224208447040084
1760680384.323671,-23.367559030100736,-0.12432791293080978,0.9133075033426078,0.06071354060688292,4.636887489683545,-14.912572758848686,-61.94255975122828
1760680384.3335335,-23.877862535294703,-0.16684332674181063,0.8990560655220419,0.057072118259881,4.8448820148378235,-8.008967689196277,-61.317172388553494
1760680384.3434212,-24.40097260818429,-0.21722943648152843,0.8814283978694777,0.05236911343697005,4.880349786204096,-1.1332754918438406,-60.34281018587739
1760680384.3533788,-24.937392571654065,-0.2704950590697794,0.8608498436705285,0.04631976189557014,4.754244947842582,5.318528064141031,-59.00854188753631
1760680384.3635426,-25.485520233349245,-0.32189125024725074,0.8378665942889818,0.03875620027435938,4.508132666222507,10.994311308246521,-57.286961863972
1760680384.3733063,-26.041519507576513,-0.36758727544875464,0.8131006867832242,0.029817462926292376,4.212059726885789,15.618696994352243,-55.132621253188276
1760680384.383334,-26.59935837911687,-0.4050454558255541,0.7872407888379426,0.020072546332925965,3.9560577622646913,19.01042560946641,-52.48914540988519
1760680384.3932867,-27.15096726143708,-0.4330686381212268,0.7610717791683269,0.010536570144686789,3.8366439902834952,21.085030506798645,-49.30228797365087
1760680384.403333,-27.686480214618715,-0.4515877399483147,0.7355331198697018,0.002565273238819519,3.9409535791953063,21.847167501337466,-45.53507033610181
1760680384.4136333,-28.19455372799496,-0.46131754093733024,0.7117879174097334,-0.002356700056988033,4.3317270109509165,21.378402094856273,-41.181232426454955
1760680384.4232693,-28.66279499502083,-0.46341827728059554,0.6912812053411268,-0.0028909017956341397,5.036149592494405,19.825429543573282,-36.2741885146239
1760680384.4334073,-29.07835279023585,-0.45926134750990666,0.6757635169170775,0.0018757256511394236,6.0405984472533225,17.391163576238814,-30.890083059218256
1760680384.4432971,-29.428713063468937,-0.450330880443342,0.6672525008125635,0.012207612269268768,7.29199049709264,14.32806457172825,-25.14490503033466
1760680384.4537086,-29.702691284691785,-0.4382258880055825,0.6679055833351004,0.027598898089749673,8.705038029685994,10.930765444220464,-19.18660765936468
1760680384.4636765,-29.891533616782507,-0.42468360149794426,0.6797871716696057,0.04677491528865972,10.173673688799555,7.524323055121153,-13.183684315146044
1760680384.473536,-29.989958963785696,-0.41153964385269143,0.7045365764614582,0.06781294678237093,11.584432952625253,4.445405486126382,-7.311741647516146
1760680384.4835322,-29.996932814257796,-0.40057632615639593,0.7429734224645382,0.08835858569114444,12.829702215717033,2.0159564692933873,-1.739442422850316
1760680384.4935393,-29.91598566607826,-0.3932684993148964,0.794708140432848,0.10590231864702544,13.819276751157034,0.511566625127839,3.385057578852601
1760680384.5038774,-29.75496857738091,-0.3904902886153813,0.857847591616604,0.11807581375042557,14.489350230477012,0.12908016291538205,7.946244756533562
1760680384.5135972,-29.525249346660953,-0.39227640222903776,0.9288920171677597,0.12292692948738602,14.808638385899512,0.9592196378896899,11.871109529610566
1760680384.5232553,-29.24046401318551,-0.3977312333022855,1.0029031483815216,0.11913642462639089,14.7816830474201,2.969914600603985,15.135888446427725
1760680384.5333204,-28.915024595577542,-0.4051476090232425,1.0739810457677263,0.10614762020862457,14.44943565387702,6.004596522474434,17.76880707710258
1760680384.5434792,-28.562626815574912,-0.41233997450789267,1.13602020107851,0.08419245840326413,13.887014316020874,9.797229849695018,19.848019829400307
1760680384.5535698,-28.194989770990297,-0.4171271791254747,1.1836324264682465,0.05421510825193022,13.198210055675641,14.002757491897881,21.494307694102353
1760680384.5632508,-27.820994551663777,-0.4178405720385345,1.2130461942816126,0.017717852210526786,12.50614231503808,18.23860842329025,22.85881932895203
1760680384.573389,-27.446290608391845,-0.41371073690012045,1.222754256901386,-0.02342657741847696,11.939734807724655,22.130683899151304,24.107058482731766
1760680384.583395,-27.073341038584793,-0.40501740670692776,1.21371870309513,-0.06715360800949574,11.616612846846126,25.35645657774742,25.40107709815677
1760680384.593449,-26.70181139949388,-0.39296392343610975,1.189061845206098,-0.111358671013806,11.624524391596426,27.6787614433628,26.882129906143813
1760680384.603439,-26.329183095400676,-0.3793283294375464,1.1533318498910754,-0.15403187961423565,12.004897347434769,28.96614157777934,28.655850641625513
1760680384.6136994,-25.951482090075643,-0.3660085467820757,1.1115628889156097,-0.1933921169465971,12.742775806128089,29.19833012842472,30.781517155483336
1760680384.6235034,-25.564035246680124,-0.35459410759810184,1.0683938622149047,-0.22802183254073513,13.766479622038357,28.457797069753287,33.26640767380414
1760680384.6336496,-25.162183638929527,-0.34606453672210513,1.02745677551797,-0.2569820940167525,14.958026492329124,26.90997259102843,36.06572414360517
1760680384.6434388,-24.74189327956891,-0.34065957403254954,0.9911286968473804,-0.27987563250783265,16.172478191784634,24.775837529128957,39.08805125992512
1760680384.653244,-24.300216306063636,-0.3379155852284667,0.9606130416064004,-0.2968308957920091,17.261964234041148,22.301124213485043,42.205765017605025
1760680384.6638916,-23.83557445091147,-0.33682970056821626,0.9362256347670981,-0.30840063099123416,18.099001968430674,19.726385817168453,45.269206436751944
1760680384.6736546,-23.34785969817348,-0.33609873038790283,0.9177347215512495,-0.31539631029970683,18.59419864170838,17.261641814626717,48.12291167627218
1760680384.6832976,-22.838368613600576,-0.3343775000816107,0.9046373563473337,-0.3187027881188752,18.705225147314827,15.06825832282505,50.62189962069095
1760680384.6934495,-22.309601350651665,-0.33050633557707165,0.8963195186021087,-0.31912421986629147,18.43637168135961,13.249383034385122,52.64606912511764
1760680384.7033458,-21.764962397729715,-0.3236701802625506,0.8921099775552914,-0.31729833726652845,17.830225849217253,11.848920158692605,54.11114636498843
1760680384.7138727,-21.20840160285783,-0.31347282366028406,0.8912748606209953,-0.31368876249541316,16.954488991167402,10.857955477578413,54.97522114736756
1760680384.723415,-20.644035518450465,-0.2999336014404179,0.8930055677631595,-0.30863781551968494,15.887439157995145,10.226829402992244,55.240535271872524
1760680384.7335598,-20.075790950787898,-0.28343049814481563,0.8964359656436427,-0.3024465000381142,14.705126114388365,9.880664577111672,54.9507151614591
1760680384.743345,-19.50711144806496,-0.2646169812790331,0.9006991112611287,-0.29544728868280407,13.472331762405567,9.736005116333448,54.18406851685069
1760680384.7532902,-18.940760801585576,-0.2443335787907756,0.9050102951823016,-0.28804513222923567,12.23804287651578,9.716291672262347,53.04392961647721
1760680384.7633832,-18.37874586937247,-0.22352672567102352,0.9087497231887449,-0.2807165218337427,11.035026195255698,9.764195260821518,51.64732870430113
1760680384.7734282,-17.822366186382833,-0.2031813265297501,0.9115184579340252,-0.2739702930414833,9.88231073511917,9.849353477716427,50.113398188797994
1760680384.7834074,-17.272381492017523,-0.18426991569556042,0.9131533577856216,-0.26828412946462726,8.789065588850946,9.970730975041407,48.552839202965224
1760680384.7935283,-16.72927106311105,-0.16771818684102296,0.9137032477009566,-0.2640360206704747,7.75847825179655,10.153572470056599,47.05947010982517
1760680384.8034391,-16.193541763371137,-0.1543820326308196,0.9133802656425791,-0.26144961857831966,6.790655599673381,10.441654161156734,45.70445515492188
1760680384.8133383,-15.666028627807332,-0.14502506215023664,0.9125017753505864,-0.2605664810126333,5.884112772196961,10.886199787621253,44.5333677192004
1760680384.8233879,-15.148128199118386,-0.1402819927342971,0.9114316604832088,-0.2612486345450318,5.035927975271378,11.533327098274613,43.56585768611901
1760680384.8335934,-14.64191514006102,-0.14059832076261908,0.9105230335087451,-0.2632063137123522,4.241018617446956,12.412138081620181,42.79743225633766
1760680384.8433433,-14.150115927821753,-0.1461499625816638,0.9100629643810281,-0.26604195153021865,3.4911867235932874,13.525497244180523,42.202764136569165
1760680384.853614,-13.675942618311094,-0.15676008965028335,0.9102227748700381,-0.26930220580692626,2.7745827674532033,14.845140067329243,41.73999289616034
1760680384.8633766,-13.22281614554067,-0.17183737397029228,0.9110208250560513,-0.2725320572617474,2.0760699482768032,16.312055629316195,41.35561586118354
1760680384.8734813,-12.794026344075704,-0.19035868844356524,0.9123058023276764,-0.2753266599263488,1.3786824351107887,17.842190471287857,40.98969987479154
1760680384.883331,-12.392381218239711,-0.21090967571116045,0.9137660490969528,-0.2773770782436844,0.6660309719244105,19.33658104687736,40.581232697334954
1760680384.8935072,-12.019890839802708,-0.231781424289906,0.9149650260582558,-0.27850566886289213,-0.07479459794656018,20.69422269578362,40.07344427803341
1760680384.9035165,-11.677517657216955,-0.2511096224028178,0.9153976849473112,-0.278686795255742,-0.8504546364716906,21.825489730739324,39.41886402368604
1760680384.9135244,-11.365012847261841,-0.2670391459263915,0.9145598414415863,-0.278049731444185,-1.6593447395556031,22.663848408351743,38.58377554640547
1760680384.9235396,-11.080849318996242,-0.27789588712769375,0.9120215287465258,-0.27686278374084117,-2.4907755264855562,23.173974997890355,37.55164204795282
1760680384.9334517,-10.822252521759458,-0.2823429911580721,0.9074942432736692,-0.2755002397314856,-3.3254878162757135,23.35510213059451,36.32505801359887
1760680384.9435184,-10.585319993560953,-0.27949709876330975,0.900882951636027,-0.274396608319857,-4.137337567347223,23.239277398779322,34.92586724016935
1760680384.953446,-10.365214934960946,-0.2689908851040145,0.8923192818555242,-0.2739955306242284,-4.895773995159525,22.885041933078384,33.39327376898406
1760680384.9636035,-10.156423041278233,-0.25098837841025656,0.8821803728247297,-0.274702678704494,-5.5686784474663575,22.367694003989858,31.780036131147988
1760680384.973811,-9.953073249394903,-0.22617560923046423,0.8711021183495782,-0.2768511318960827,-6.125230548212965,21.767718098884735,30.14713023874862
1760680384.9836175,-9.749329902341069,-0.19574750705921198,0.8599910517134918,-0.28068299080484066,-6.53866275820799,21.159102637118902,28.557530554207087
1760680384.99339,-9.539851398133392,-0.16139066591981266,0.8500273155938096,-0.2863435539619088,-6.788949800845297,20.599158115923792,27.069933832984553
1760680385.0035644,-9.320276890900281,-0.12523544758239868,0.8426399100664509,-0.2938775715521552,-6.865545175276053,20.12114840692533,25.73329461427684
1760680385.013787,-9.087664404853172,-0.08973978048645173,0.8394329797879351,-0.3032144267134038,-6.770170101077715,19.730648228414793,24.58292911167158
1760680385.0234175,-8.840781552959255,-0.05747784473884064,0.8420505739532073,-0.3141325116600856,-6.519420168801065,19.40610474580607,23.638648711582345
1760680385.0335689,-8.580155892614957,-0.030833367303811532,0.8519831947617819,-0.32620225081534354,-6.146690379840453,19.103631962990136,22.904906592133347
1760680385.043542,-8.307831339246274,-0.01163367139468297,0.8703372720272868,-0.33872001696110576,-5.702753055216016,18.765589292719024,22.372347207363866
1760680385.0538442,-8.026852393197277,-0.0008026361554267548,0.8976044589661406,-0.3506577557354472,-5.254358262642599,18.33196142663569,22.019580533689215
1760680385.0634153,-7.740595664804128,0.0018596156306937707,0.9334764658323834,-0.3606593700235662,-4.880530362427212,17.75296225795733,21.81369046474975
1760680385.0736897,-7.452146453013598,-0.0023223310967548246,0.976747438648867,-0.3671086051626948,-4.666785976638608,17.000734754279666,21.70823658855618
1760680385.0833728,-7.163927114924688,-0.011138204736043522,1.0253298221030565,-0.36827458572542604,-4.6981144896266835,16.077765850866506,21.63851357316099
1760680385.093394,-6.877707957066144,-0.021900703500602414,1.0763892050180974,-0.36251962057789744,-5.05192980250195,15.019979781769035,21.51536708212186
1760680385.1037877,-6.595002786998749,-0.031900521521584506,1.1265858026873945,-0.3485397114355437,-5.792077566936945,13.893526769812127,21.22027908234977
1760680385.1133583,-6.317724417436586,-0.03879176771119732,1.1723953896948158,-0.32560370163306535,-6.964395037335499,12.785794563414251,20.605049967509398
1760680385.123459,-6.048895897088546,-0.04084122029228934,1.2104706591013927,-0.2937579864987046,-8.593590336602185,11.792577430283561,19.498893411159944
1760680385.1335714,-5.793202361778053,-0.037036067055028606,1.2379988906825328,-0.25396577190732345,-10.680743287731945,11.00407372388661,17.724221698831563
1760680385.1433423,-5.557219486496636,-0.027091289705547625,1.2530151149274578,-0.20815126374553938,-13.200766293480987,10.49222251527313,15.120242313535137
1760680385.1535122,-5.349241554449849,-0.011413328995351609,1.2546365946030715,-0.15912159747291435,-16.099642371849704,10.301071013142856,11.571264349965798
1760680385.16345,-5.178724894429713,0.00894003333289054,1.2431874032718377,-0.11034764132418225,-19.291917946972188,10.440903571190573,7.034869516262657
1760680385.1735973,-5.055437421450838,0.03229875602262157,1.2201812771870344,-0.06560362259457511,-22.659486163390596,10.88620374626341,1.5642620211220113
1760680385.1837428,-4.988452123547357,0.05644372324254577,1.1881374174520107,-0.02849501679778529,-26.05295766821814,11.57726054291848,-4.680593191997201
1760680385.1934464,-4.98514448845257,0.07872491653758357,1.1502292536087937,-0.0019382925034183687,-29.29679625553086,12.425103845946852,-11.43702113979441
1760680385.2034113,-5.050356812199438,0.0962484836003665,1.1098090559921865,0.012316407306409802,-32.198911534157006,13.319131969080585,-18.360569461537754
1760680385.2133899,-5.185875657451945,0.10612396000759063,1.0698965360335135,0.014019491128325859,-34.5646501516966,14.136265645109278,-25.0617070702484
1760680385.2234323,-5.3903273731671,0.10574816700788021,1.0327469576598267,0.004528465021726523,-36.21425735480546,14.750100880570324,-31.15417675137723
1760680385.2335842,-5.659528048948886,0.09309912424127807,0.9996047898238765,-0.013357693981286278,-37.00203891710485,15.038734508630169,-36.30814433359094
1760680385.2435079,-5.987236306977227,0.06701808960113818,0.9706974760007878,-0.03582243230424371,-36.83479880521446,14.890699546101162,-40.29950719923134
1760680385.2534108,-6.366171803334626,0.027459699143764657,0.9454529817943761,-0.0586385295621582,-35.68684254707232,14.209322100709503,-43.046662840151065
1760680385.2638953,-6.789107369596759,-0.02432160935173008,0.9228694158849353,-0.07783960768073798,-33.60903951631907,12.91631761263637,-44.62786626989306
1760680385.273356,-7.249835950917883,-0.08570117827742302,0.9019402089045939,-0.09032737265992014,-30.730089054930914,10.955537095405603,-45.27541533220117
1760680385.2833009,-7.743852101727445,-0.15278972737776234,0.8820348683439682,-0.09430840221796695,-27.249069215893257,8.297728873133744,-45.34645749634841
1760680385.2935948,-8.268653647808337,-0.22075079553639082,0.8631444217548153,-0.08949826210761912,-23.419395832800028,4.947014109568625,-45.273720000522644
1760680385.303519,-8.823640918234231,-0.28431192483912904,0.8459275738780827,-0.0770780440289407,-19.525392528382977,0.9491247132204501,-45.502706964283966
1760680385.3133698,-9.409655338280583,-0.3383964310777382,0.8315446444836314,-0.05942620086363765,-15.85371127715838,-3.5998135692196853,-46.42450609376441
1760680385.3237424,-10.028254269287713,-0.378780393935893,0.8213301771221779,-0.03967680123824127,-12.662734680869164,-8.546574162701333,-48.314709853406534
1760680385.333454,-10.68086449861113,-0.4026910985334857,0.8164037184308338,-0.02117834783072526,-10.153673936511536,-13.679643690294542,-51.28861747377023
1760680385.3433096,-11.367981291652361,-0.4092743037013153,0.8173287982094344,-0.006941409165805192,-8.447226502280962,-18.736761849327866,-55.280722437007334
1760680385.353575,-12.08856667132423,-0.3998478522917195,0.8239033145466708,0.0008388168586627522,-7.569306883837561,-23.4229535095717,-60.05267253100232
1760680385.3637357,-12.83974820681818,-0.3778520834013922,0.8351204026898357,0.0011156742219119028,-7.448467411937874,-27.438445433893936,-65.22893380855687
1760680385.3733587,-13.616848508279839,-0.34844061824122197,0.8492975279842941,-0.0058673435119434925,-7.9261715636000645,-30.513247643782382,-70.35430296578191
1760680385.383379,-14.41371116798877,-0.3177337836655654,0.864340502885248,-0.01865071136281325,-8.77915870962854,-32.44315200929232,-74.96344214148142
1760680385.3934221,-15.223244064897488,-0.29184880232171345,0.8780869678574598,-0.03484284787917657,-9.751026146581212,-33.120944193600955,-78.65064996624179
1760680385.4034483,-16.038076392828053,-0.275886104761017,0.8886605842840568,-0.05156727921497937,-10.588329488144822,-32.556808707076044,-81.12834644538187
1760680385.4133205,-16.851218735048747,-0.2730704336680763,0.8947673969261764,-0.06598568779952454,-11.075464653250755,-30.883139485407924,-82.2649434192389
1760680385.423718,-17.656624557279283,-0.2842208528657553,0.8958821014537999,-0.07578918193624473,-11.062655717900801,-28.34116341412706,-82.09642022351498
1760680385.4335132,-18.449575817400447,-0.30766403209059295,0.8922980725498473,-0.07956067419288304,-10.482588393380563,-25.249839212482772,-80.81050773582281
1760680385.443453,-19.226852667354958,-0.33961895466933223,0.8850401854203827,-0.07694638350170416,-9.353382448494061,-21.961117688697115,-78.70724301643497
1760680385.453283,-19.986691096759966,-0.37498266524169654,0.8756592758671075,-0.06861998591549337,-7.768197746132793,-18.809084555266537,-76.14386635085518
1760680385.4636862,-20.7285721465681,-0.4083597280723939,0.865944780992356,-0.056066334135482884,-5.874195193007213,-16.062598497572818,-73.47461161690418
1760680385.4733458,-21.452911566828327,-0.4351268103126238,0.8576079124269049,-0.04124446425954388,-3.8453030386167635,-13.890862361050479,-70.99631282420381
1760680385.4834354,-22.16072399487847,-0.4523162221499608,0.8519939497768156,-0.026206803282540936,-1.8539676390881532,-12.348793209175277,-68.9089539922844
1760680385.4933476,-22.853320426436,-0.4591319837480116,0.8498730230769722,-0.012751126887950052,-0.046722638788182204,-11.384723782376954,-67.29683196399084
1760680385.503418,-23.532066594174744,-0.45697808862303085,0.8513388282748584,-0.002165146878647633,1.4728499055323385,-10.867965791210304,-66.13166715388547
1760680385.5134442,-24.198194652024846,-0.4489850053636882,0.8558233795251332,0.004904408577232646,2.6520204978906277,-10.629360760786241,-65.29470664416914
1760680385.523699,-24.8526374577673,-0.439149251280788,0.8622164079646245,0.008457245108809679,3.4878942172061893,-10.50525009423216,-64.61147509994967
1760680385.5335817,-25.495855141669878,-0.4313076015779443,0.8690591743677605,0.009042676167969508,4.019364022280606,-10.374932889933074,-63.89097814471966
1760680385.543475,-26.127646679731477,-0.4282113239379589,0.8747676404659573,0.00759554441765527,4.314931464863616,-10.183643138983307,-62.96118688252438
1760680385.553513,-26.746971742478546,-0.43093197008447737,0.8778370883380768,0.005241053230381022,4.459443678352484,-9.94682837929992,-61.69444314748486
1760680385.563546,-27.351831677941586,-0.43872874001994566,0.8769926105063229,0.0031008181464549675,4.542196744085699,-9.73612107107404,-60.019439562203026
1760680385.5733707,-27.939259713702814,-0.44937054980089447,0.8712719237065989,0.0021276639213611086,4.6478420003607335,-9.651717147057742,-57.91976965855898
1760680385.5835834,-28.50544851255352,-0.45978318447629113,0.8600502601254936,0.0029915344267198904,4.850509775214825,-9.788819262096847,-55.421883537421635
1760680385.5935707,-29.046008268407356,-0.4668265890660166,0.8430351178934014,0.006031299677343401,5.210833821666879,-10.206633002559801,-52.57705623481679
1760680385.6035037,-29.556314078160597,-0.4680110746101919,0.8202661455634286,0.011274801080371944,5.7751847008417325,-10.90700925212314,-49.44244917107393
1760680385.6134279,-30.031878425774007,-0.4620140327135779,0.7921492220763608,0.01851339517855944,6.5762719705890085,-11.826790579154677,-46.06563883402204
1760680385.6236036,-30.46867971062999,-0.4489294652234386,0.7595355165652348,0.027403759262458156,7.63422878364148,-12.844302239106312,-42.475466873126
1760680385.6336746,-30.86339104425624,-0.4302458676274579,0.7238314245378552,0.037565481565032886,8.957348438930827,-13.797302070582713,-38.68018959286502
1760680385.6433403,-31.213478720211654,-0.40859069621988925,0.6871006028830804,0.048649572301736985,10.54185083967449,-14.507761985845352,-34.67212350269071
1760680385.653602,-31.51716783660854,-0.3873024220709074,0.6521034346761209,0.06036582153088481,12.37041256030753,-14.808285457088758,-30.436663979898103
1760680385.6636832,-31.77329702347925,-0.3699035843989008,0.6222209857425062,0.07246875567062985,14.409626764097185,-14.565544238976825,-25.96290478039238
1760680385.6735392,-31.98110229824082,-0.3595569434475992,0.6012325978391067,0.08470906382081818,16.606976762901077,-13.697395001337439,-21.253142747997494
1760680385.6835115,-32.13998025311941,-0.3585878859205448,0.5929511764741466,0.09676149147191143,18.888230311739605,-12.181876375008294,-16.329196898649272
1760680385.6935732,-32.2492814773901,-0.3681415175326108,0.6007540602154845,0.10814457494003193,21.156332386540274,-10.057814117771349,-11.234450693493644
1760680385.7042027,-32.308175535189676,-0.38801225878706735,0.6270688323126032,0.11815261372803193,23.29285454780238,-7.418108797398607,-6.031523277590114
1760680385.7137504,-32.31561047264771,-0.4166485803776537,0.6728812284939155,0.1258234030032135,25.162839409632547,-4.397760230414879,-0.7962566714724444
1760680385.723519,-32.27036745492832,-0.45131050229315994,0.7373337434882113,0.12996310700626917,26.623484627604576,-1.1590986015820297,4.390777634551072
1760680385.733818,-32.17119193494055,-0.48835017506898987,0.8174854325468497,0.12924006534093638,27.53659356933644,2.1235411468368985,9.453732368720894
1760680385.7434866,-32.01697359675102,-0.5235924455510997,0.9083045901382231,0.12234341147666165,27.78412494356821,5.27821123538372,14.330216909536546
1760680385.7533646,-31.806951027705775,-0.5528008605194,1.0029578915253714,0.1081847799720537,27.28551448260162,8.1482128545669,18.97764225807308
1760680385.7640162,-31.540929507969974,-0.5722110498998701,1.0934313484650195,0.08610725849685318,26.01472658018814,10.603421144324344,23.375770893978387
1760680385.7735,-31.219510799929754,-0.579088350899108,1.1714624059116443,0.056059310511694764,24.014289675253952,12.550042913758812,27.524644120846613
1760680385.7837305,-30.844331123045276,-0.572223813493321,1.2296800608604188,0.018697185328784918,21.403045499208055,13.93813231075862,31.437981579863372
1760680385.7933474,-30.418284308378507,-0.5522458333406554,1.2627587921686714,-0.02460191957201441,18.374290748259465,14.765256952268839,35.13329421175394
1760680385.8033872,-29.945680106789645,-0.5216263778745281,1.2683304757724363,-0.07181324129587617,15.181811047920926,15.074145673174256,38.621027637581555
1760680385.8136115,-29.432268989461218,-0.4843180004303891,1.2474118634268434,-0.12041543623032845,12.113356156329367,14.94278249772819,41.89564504702632
1760680385.8236618,-28.88506964531547,-0.4450571451388305,1.2042137023640376,-0.16761620218175993,9.454305844859649,14.467639355029675,44.93133610922581
1760680385.833517,-28.311970685626846,-0.40847604008487365,1.1453689069108328,-0.21064654643358283,7.447716019213672,13.743785264603785,47.68394836420939
1760680385.84375,-27.721137194338024,-0.37823910676422284,1.078778380073851,-0.24709419714590758,6.259023009393841,12.847625870082915,50.09904930595436
1760680385.8534336,-27.120314131701605,-0.35642573549342516,1.0123568479687444,-0.2752176079137147,5.953140408041391,11.827481620269992,52.12425651306568
1760680385.8634288,-26.516155220423883,-0.3433085095827588,0.9529458687228475,-0.2941708070205939,6.488562963930866,10.704252524365279,53.722729156559375
1760680385.8734198,-25.913702211502777,-0.3375504376026618,0.905572494440371,-0.30408480218676426,7.72873783256714,9.480704182087408,54.88444319194659
1760680385.8834941,-25.316100018228912,-0.3367196230108598,0.8731152232142438,-0.30598548510196205,9.46702397816169,8.155233834100317,55.632603437003105
1760680385.8934703,-24.72457745393743,-0.33794614817783036,0.8563346575267298,-0.3015673287785861,11.459159084985464,6.735178070644337,56.02387844436134
1760680385.903384,-24.13867218191914,-0.33854442561908177,0.854161803988047,-0.2928750816969316,13.456656794233185,5.245640608702545,56.14252609228481
1760680385.9134815,-23.556643976887305,-0.33647673698689945,0.8641225583285855,-0.2819639791034786,15.235674834988227,3.731748387111713,56.0895246268295
1760680385.9235919,-22.976003215511657,-0.3306018532276096,0.8828032494593648,-0.27060793546179424,16.617930853440615,2.254385032788437,55.968447123814364
1760680385.933598,-22.394076919037058,-0.3207081319445142,0.9063041805401227,-0.26010565494658533,17.482440236492963,0.8811782048402763,55.87013618267586
1760680385.9436681,-21.80853949193091,-0.30736792567915966,0.9306604261208822,-0.2512046716806669,17.76865184131357,-0.32448858881654385,55.85838872760128
1760680385.953445,-21.217848735631563,-0.29167456665870467,0.952221032471917,-0.2441344404896085,17.47269162626418,-1.3134674878230264,55.958870539870155
1760680385.9637434,-20.621547248296288,-0.27493464611969054,0.9679748604529074,-0.23872008946987075,16.638876006862134,-2.0573704181484374,56.15325818619104
1760680385.9738088,-20.02040969774337,-0.25838380836348385,0.975804753704599,-0.2345406948976797,15.348588978252309,-2.5501762301032946,56.38005182402091
1760680385.9833508,-19.416433961205563,-0.24297739790545142,0.9746488417201773,-0.23109769556955942,13.708261833080718,-2.8047485245696318,56.542589458225
1760680385.993584,-18.812689415429652,-0.2292864384197639,0.9645511681520273,-0.22796588934247738,11.837750516153971,-2.8453254970889366,56.5236068150583
1760680386.0037632,-18.21305044543139,-0.2175079699229933,0.9465934000671178,-0.2249070553064044,9.859983072950222,-2.6979634355489153,56.204429012894444
1760680386.0134892,-17.621855736005575,-0.2075742666412205,0.9227134855387827,-0.2219326680478331,7.892376242159499,-2.3813457885662426,55.48583042898632
1760680386.023549,-17.043540070558095,-0.19932046725290511,0.8954336652356188,-0.21930836416253063,6.040187300351972,-1.9002565058258043,54.30702778746993
1760680386.0336852,-16.48228372409633,-0.1926558031074236,0.8675363940030133,-0.21750039829030954,4.3916726631901,-1.2434154934170947,52.6593522842104
1760680386.0438366,-15.941716936006246,-0.18768705189032908,0.8417368736133295,-0.21707306646054353,3.0146982365209998,-0.3864176386969067,50.591915875006485
1760680386.053533,-15.42470502271956,-0.1847589385279739,0.8203983086253456,-0.21855421263464872,1.954347889398997,0.7006165462629054,48.207934768127984
1760680386.0634646,-14.933224004426826,-0.1843966239384274,0.805319841297726,-0.22229191914407392,1.231152092772326,2.042183189449161,45.652047278344455
1760680386.0735369,-14.468319551253295,-0.18715782207837917,0.7976054795867482,-0.2283284995932476,0.8397914652551418,3.6457312300956928,43.090616718769
1760680386.0834262,-14.030128755801872,-0.19342588749250256,0.7976059403461985,-0.2363172966632742,0.7484420286996266,5.49209542055426,40.68830862875787
1760680386.0934792,-13.61793973140289,-0.20319548115634103,0.8049198426776728,-0.24550293801298384,0.8992270508649908,7.530888864094998,38.58494333417101
1760680386.1034575,-13.230270845700723,-0.2159127283654215,0.8184451811485556,-0.2547770380663251,1.2104416525709232,9.683030399235973,36.87661419356366
1760680386.1136336,-12.864968849043958,-0.23042847531596677,0.8364816479970276,-0.2628107025322936,1.5812388545614506,11.851191790323607,35.60425091357224
1760680386.1237543,-12.519346377324018,-0.24510349733994144,0.8568921703694641,-0.26825391651069846,1.899221676861213,13.93691478824016,34.75125862034304
1760680386.133525,-12.190389887988704,-0.25806664208852714,0.8773303584561507,-0.2699786881596399,2.050832302463579,15.86083462111421,34.24994366886471
1760680386.1436481,-11.8750562051203,-0.26757797920483734,0.8955260946694634,-0.26732675217931096,1.9336614931625775,17.580665149321224,33.99475075177828
1760680386.1537254,-11.57064105228632,-0.2724071351789947,0.9095996253672208,-0.26030901178347476,1.469074593468962,19.10132368545949,33.85936717319189
1760680386.1636274,-11.275162562046209,-0.2721216708520532,0.9183556018591391,-0.24970267985722283,0.6131485737225513,20.473277575768172,33.714618702693585
1760680386.173604,-10.987675988284439,-0.2672005628371663,0.9215007096596946,-0.23700818314807676,-0.6360282222858621,21.77842557827239,33.444611067986436
1760680386.1835432,-10.708433971910265,-0.2589361845444362,0.91973643752511,-0.22425687516934192,-2.2361808551714857,23.106408962044057,32.95943353069024
1760680386.1935096,-10.438830872852154,-0.24914634492827806,0.9147029714139545,-0.21369422811663574,-4.104548982333363,24.526936297008277,32.20357116851842
1760680386.2035596,-10.18111435106163,-0.2397679135506524,0.9087838496046429,-0.20739325075557685,-6.127311159725985,26.06475817729214,31.159738926796308
1760680386.213775,-9.937902137188921,-0.23243178439791637,0.9048093424832735,-0.20687016613408257,-8.173608480714528,27.683259726923033,29.848163316156434
1760680386.223489,-9.711591476134952,-0.22811689815931316,0.9057079647208869,-0.2127719052852023,-10.112183020007082,29.28064912463741,28.321561086199313
1760680386.233402,-9.503777739856275,-0.22695147357617926,0.9141499660878696,-0.2246850541534377,-11.828123812527439,30.70002408769091,26.65634125043048
1760680386.2434695,-9.314799971770626,-0.22818775133844257,0.9322137922277219,-0.24108983691411723,-13.237206820250133,31.751825036374875,24.940907831023456
1760680386.25366,-9.143506912275745,-0.23033832532675388,0.9610976232177986,-0.2594617658665644,-14.295860793488313,32.24485604018444,23.262278536161624
1760680386.2636702,-8.987294637401538,-0.2314350646881704,1.0008981235637644,-0.2765115775951289,-15.005734954536964,32.02050738975128,21.692454526525918
1760680386.2734265,-8.84241719631423,-0.22935875334079406,1.050483953891646,-0.2885480024737439,-15.412863402909208,30.984200638460603,20.276040430268555
1760680386.283768,-8.70452721333397,-0.22218881989896028,1.1074946119596096,-0.29194142420137664,-15.602156680713255,29.128458958843492,19.02056236829401
1760680386.2934043,-8.569371369771138,-0.2085300680221218,1.168488772197836,-0.2836528042788361,-15.688221230469908,26.5433522254918,17.890824276047088
1760680386.3035219,-8.433545351050249,-0.18777775283661466,1.229246610450497,-0.26176919377619073,-15.80341815897126,23.41215626005586,16.808473844932795
1760680386.3134105,-8.295203547138676,-0.16028455994881363,1.2851998372278324,-0.2259614405697562,-16.083911863499484,19.99250358822217,15.657610916547885
1760680386.3236964,-8.154623286776634,-0.1274013536735693,1.3319318528711963,-0.17776476952986353,-16.65446415379468,16.585665027198072,14.296619393396115
1760680386.3333669,-8.014543101081788,-0.09138226219426367,1.3656716030572602,-0.12059190003454012,-17.612940947143837,13.498504667193687,12.575391098914503
1760680386.3436756,-7.880227046231728,-0.05517017569000986,1.3837040796016566,-0.059426588214118434,-19.015809657597334,11.003759156265081,10.35587537319883
1760680386.3536856,-7.759247813153193,-0.022102223090914745,1.3846353842165138,-0.00020693869290383006,-20.866196272002227,9.3044053035026,7.532758788919633
1760680386.3636923,-7.661023494182619,0.004413905724097619,1.368476098163046,0.051021518561635205,-23.106259619512088,8.507019796822386,4.050478431020811
1760680386.3736598,-7.59617743806843,0.0212090044675462,1.3365389767316527,0.08904056377115076,-25.615628783441903,8.607405636173782,-0.08696476772968231
1760680386.3836665,-7.575809069179093,0.025625601228276958,1.2911801567667631,0.11030397320523216,-28.21729253213675,9.489684173145376,-4.815738812791533
1760680386.3934863,-7.61076215342361,0.015759835695301285,1.235440430898236,0.11352065180628712,-30.69151569995887,10.937955724442613,-10.0219592029621
1760680386.403411,-7.710958628906789,-0.009310970267866368,1.1726584831184819,0.09985496273981503,-32.79713600501107,12.657982373953176,-15.559963771492502
1760680386.4136605,-7.884838109352511,-0.04930701498176857,1.1061272447024155,0.07270381324137873,-34.29821136951717,14.305506013190174,-21.275725543901522
1760680386.4235175,-8.138914019769395,-0.1025504746959121,1.0388477244110854,0.03709855369128332,-34.99278566142724,15.517916537293198,-27.030796791186102
1760680386.433831,-8.477435273952302,-0.16585013906345042,0.973406155158622,-0.0011469270478188952,-34.739804871974115,15.946868105720768,-32.72172948644808
1760680386.443645,-8.90213494499976,-0.2345487978584342,0.9119666828803195,-0.036377136456042784,-33.48008743547545,15.29060479162273,-38.290500180636826
1760680386.4540625,-9.412058235275516,-0.30281949338188136,0.8563407074475324,-0.06395198909275622,-31.247769227457994,13.325443468215372,-43.72319713288577
1760680386.4636965,-10.003485735053397,-0.36425690814593925,0.8080741478881214,-0.08087310826213226,-28.169816739955753,9.935424607745198,-49.03686666440312
1760680386.4734502,-10.66998943021594,-0.41272480653287474,0.7684936424738981,-0.08608631302683396,-24.453004926196982,5.137544500522115,-54.25731332610728
1760680386.4837174,-11.402663204146235,-0.44332250203914464,0.7386756414028611,-0.08043510619558618,-20.359987685505768,-0.9020007571578161,-59.39299746778697
1760680386.4939315,-12.19055203479069,-0.4532733507103003,0.7193416970165986,-0.066307057796882,-16.17822613964453,-7.866268004315676,-64.41135153064694
1760680386.5038009,-13.02127005015667,-0.442539387738191,0.7107202414753436,-0.047067830878105586,-12.186853452542692,-15.305715478898458,-69.22358210002749
1760680386.5141222,-13.881756515822737,-0.4140129507667023,0.712430716398005,-0.02640516710656362,-8.626558564025853,-22.67822931416764,-73.682414854137
1760680386.5234342,-14.759082873429625,-0.3732085165251822,0.7234367095775995,-0.0077034310947099475,-5.676391466642978,-29.408852434775994,-77.59458721290382
1760680386.5338101,-15.641206963148626,-0.32746989591607484,0.7420925663547623,0.00645498174243596,-3.4396418340959203,-34.96227438236336,-80.74670091636206
1760680386.5435011,-16.51758034019445,-0.28480930643496033,0.7662847591472639,0.01460037864618457,-1.9392801812107325,-38.91729022225921,-82.93998044766882
1760680386.5536563,-17.379546527998425,-0.2525810462001968,0.7936487202774404,0.0164751833254455,-1.1222721814720196,-41.03061753656657,-84.02726698609133
1760680386.5636053,-18.220509368058117,-0.23623784998295727,0.8218240169645087,0.012932865650946365,-0.8714367476258476,-41.27821344077495,-83.9447795956861
1760680386.5735934,-19.03588923520624,-0.23840911635178286,0.8486994406729048,0.005674191580673822,-1.023193734029102,-39.8653862604719,-82.73199965678812
1760680386.5838723,-19.822913350776457,-0.2584782141223625,0.8726008302181334,-0.003123699111777147,-1.3892296306715874,-37.20190128816779,-80.53528164038629
1760680386.5934343,-20.580301624511385,-0.2927351236390537,0.892389211363735,-0.011220307228551385,-1.7796701489334052,-33.84413170726078,-77.59397152742035
1760680386.6036153,-21.307911618146658,-0.3350646601047666,0.9074591720382528,-0.01669852683010277,-2.02496712175459,-30.412197665138155,-74.21124183930831
1760680386.6134963,-22.006397926536067,-0.3780278172904382,0.9176508034884571,-0.018260834941603066,-1.9937203272959256,-27.494913467617472,-70.71476657299286
1760680386.6236973,-22.676926452165052,-0.414129215144605,0.9231090804743084,-0.015385845550491887,-1.604253138439688,-25.55814482742753,-67.41412408299678
1760680386.6341035,-23.320966994168327,-0.4370482278785948,0.9241370814122747,-0.008324670553049501,-0.8288387210459924,-24.87206137092228,-64.56212922021044
1760680386.6438396,-23.940171765608696,-0.4426380546518881,0.9210877378055289,0.0020464197694305465,0.30927074893074946,-25.469593189668213,-62.32624935436701
1760680386.653451,-24.536334907503658,-0.4295498329641842,0.9143217400840747,0.014467053064374421,1.7447544080724657,-27.142835955804358,-60.77422366994585
1760680386.6639714,-25.111419136749642,-0.39940519181036477,0.9042333466360772,0.027560827758863666,3.3831000249472782,-29.477484701889225,-59.875431744867484
1760680386.673686,-25.667629101913533,-0.35651240176296406,0.8913209524105123,0.040069211630396534,5.115218770960935,-31.91902906359081,-59.51685028012921
1760680386.6837683,-26.20750530643877,-0.3071897349909722,0.8762628425208954,0.05101145481046373,6.831678868639429,-33.85955275105674,-59.52997935326995
1760680386.693408,-26.7340074183695,-0.2588141442922843,0.8599540726831555,0.05975523964369029,8.434794477046111,-34.731237443105954,-59.72331759051969
1760680386.7037365,-27.250551872184833,-0.21874532689649717,0.8434694398535288,0.06600235589250156,9.847327427218595,-34.09230804075839,-59.91417889794024
1760680386.7136075,-27.76096576830783,-0.19328155567380823,0.8279403127465222,0.06970911886641676,11.017194162062884,-31.693003985314963,-59.954053813528844
1760680386.7237651,-28.269318643282347,-0.18678773170914126,0.8143649766090715,0.07097456474581687,11.9182658704314,-27.512738481931905,-59.74324965389301
1760680386.7337124,-28.77960115667797,-0.20110585756380506,0.80340078854599,0.06993630265777116,12.548029650068797,-21.76421432582568,-59.232868249910766
1760680386.743679,-29.29524118799866,-0.23532016701903063,0.7951981035143194,0.06670835606574838,12.923396388026141,-14.865117822944427,-58.41480445805654
1760680386.753578,-29.818483211535433,-0.2859046075145073,0.7893261526486887,0.06137878297158954,13.076109671721657,-7.382446666209716,-57.302848567715124
1760680386.7636619,-30.349698122626293,-0.34722937893042977,0.7848167105039446,0.05406500792753512,13.048929743422146,0.04190078047009513,-55.909713186236
1760680386.7738113,-30.886726542525608,-0.4123517972060104,0.7803232979866002,0.0450079827835525,12.893125425644726,6.773292698626571,-54.2255760587194
1760680386.7836373,-31.42437923907587,-0.47397501711477386,0.7743702792040704,0.03467489068231557,12.667052729141929,12.262523105182343,-52.20339273562848
1760680386.7936802,-31.954217512684224,-0.5254341856047976,0.7656514512797361,0.023835315333804175,12.435013135747445,16.109206469449834,-49.75484447225031
1760680386.8034966,-32.46471208966572,-0.5615681171615239,0.7533309506021096,0.013578968699934668,12.2653577517224,18.10237356278599,-46.75860158191597
1760680386.8137164,-32.941832938463996,-0.5793575260316585,0.7372985016256034,0.005254195879299851,12.226977768262511,18.234238707502737,-43.08001084161114
1760680386.8237066,-33.37005959930299,-0.5782544752949101,0.7183363256615023,0.0003235583692286852,12.38380762539688,16.687590400767384,-38.59886751861337
1760680386.8337178,-33.733730438678435,-0.5601800503896719,0.698166734405073,0.00015288702966358676,12.78760850598144,13.801238875348966,-33.24011451433303
1760680386.84382,-34.01858096087635,-0.529212831589061,0.6793646870352942,0.005769310344866202,13.469937681705245,10.020660713804423,-27.001489640847105
1760680386.853575,-34.21326976393075,-0.4910214280878094,0.6651344762244292,0.01763605749326242,14.434702638159774,5.8420650728258625,-19.972466921883463
1760680386.8637319,-34.31067084934755,-0.4521140760622449,0.6589635673557582,0.035491757660393745,15.652913606402727,1.7576394010494438,-12.340240694975117
1760680386.8738065,-34.30873303659825,-0.4189934587374074,0.6641810890690529,0.05828871557665203,17.061081222431092,-1.7918977915109262,-4.380697282647107
1760680386.883406,-34.2107694365227,-0.39731449469219327,0.6834634504067747,0.0842435933112585,18.56415944476702,-4.453561259503769,3.565169338968897
1760680386.8935637,-34.02512803169437,-0.39114256383937734,0.7183429365107677,0.11099294187834274,20.043155720945506,-5.98563864951639,11.126623630992826
1760680386.9035873,-33.76428847781685,-0.40239949505085704,0.7687855707147372,0.13583064955041269,21.3667454009149,-6.268905496257187,17.945758996387077
1760680386.913535,-33.44351180239401,-0.43056776504013666,0.8329114775732605,0.15599569081406467,22.405607495611008,-5.307107940930722,23.721508263648246
1760680386.9237068,-33.07922606972685,-0.47270176545423476,0.9069320363680209,0.1689742457925454,23.047807079493104,-3.2186254637542877,28.248816321969713
1760680386.9337022,-32.687357469558634,-0.5237685211705906,0.9853678982517124,0.17277759832103504,23.213385300269206,-0.2208533543615407,31.446988356798517
1760680386.9438503,-32.28181435012359,-0.5773062082364286,1.0615829367047542,0.1661566563165719,22.86635706740825,3.3917980382717423,33.372425303836614
1760680386.9536896,-31.873305733364774,-0.6263427536446532,1.128614022720379,0.14872050162029132,22.022493402388406,7.275770225723645,34.21298360554456
1760680386.963602,-31.46862921032915,-0.6644579574748446,1.1801950616189596,0.12094571275052235,20.751485820626794,11.071208899709136,34.263818695140884
1760680386.9737353,-31.070497892492252,-0.6868118101585828,1.2117846806889132,0.08409247977068565,19.17234063720636,14.437619596693176,33.88751889960188
1760680386.9836528,-30.677896628361854,-0.6909246933455899,1.221351284364206,0.04006631533918043,17.441314793594614,17.088309247298476,33.46422426480506
1760680386.9936266,-30.286875569699095,-0.6770151392861802,1.2096919635278032,-0.008738125363445787,15.732709585368758,18.818305351790386,33.33961723465373
1760680387.003583,-29.89162383486212,-0.6477968812479774,1.1801776799918395,-0.05960138052110919,14.214540353114408,19.520856788687393,33.7794141255105
1760680387.0135968,-29.485636584026707,-0.607787747159722,1.1379889370258094,-0.1096695647537357,13.023095857687867,19.18998779210367,34.93781945670132
1760680387.0236764,-29.062800851953998,-0.5623248650342836,1.0890604167266373,-0.15619176370710072,12.241750477441169,17.909916116476403,36.84451230132998
1760680387.03386,-28.618266699887876,-0.516547865991503,1.0390243378618318,-0.19679849879736339,11.889201482301061,15.834962744816398,39.410929393880934
1760680387.0434847,-28.149022254820615,-0.4745841896234863,0.992409328541512,-0.22977588191771972,11.920333947511581,13.164837938406281,42.45299265950039
1760680387.0534358,-27.654142431375416,-0.4390772703529923,0.9522404526411464,-0.25426498733084046,12.23969791381952,10.119748662277294,45.724904614644885
1760680387.0637434,-27.134726798492277,-0.411084932158552,0.9200466837208278,-0.2703230191411793,12.72415692970925,6.91827700493102,48.95759551311003
1760680387.0738225,-26.59357889055965,-0.3902809910229543,0.8961644319255299,-0.2788203063073381,13.248834744205395,3.7594056766649415,51.89574208035363
1760680387.0837045,-26.03470472746003,-0.37534280665052755,0.8801653699200789,-0.28119739496353297,13.709941193224742,0.8091420109370407,54.32857860374193
1760680387.0936232,-25.462721209114246,-0.3644041621011484,0.871245795561105,-0.27914765639065786,14.03951030563226,-1.8080206280404307,56.11145912623765
1760680387.1036398,-24.882265006646527,-0.3554789973266781,0.8684775643577155,-0.27430771071915216,14.209812618740559,-4.012557226083862,57.176841971131104
1760680387.113809,-24.297480401650997,-0.3467958198228504,0.8709025067693449,-0.2680272397585188,14.228135743162973,-5.7682925798997635,57.53480563931469
1760680387.123841,-23.711643283596416,-0.33701348208035226,0.877517376615144,-0.26125824081988325,14.124877422026257,-7.076291904192677,57.26431218553553
1760680387.1336439,-23.12695336116467,-0.32531535485409224,0.8872240915667654,-0.2545640166127286,13.93899905778899,-7.9654341512096565,56.49722467793565
1760680387.143719,-22.544502963720202,-0.31140160763741953,0.898809794266389,-0.2482144728162756,13.70478119775046,-8.48120025562565,55.39758472723082
1760680387.1538663,-21.964411478013787,-0.29541422483306046,0.9109871032715091,-0.24231748209090054,13.442745478208872,-8.674304487044736,54.13890503153361
1760680387.1636138,-21.386098532436293,-0.27783103847721435,0.9224869112828321,-0.23693864421736827,13.155996941575625,-8.590723020555737,52.88227140471347
1760680387.1736763,-20.808653729448295,-0.2593547325508204,0.9321720752092313,-0.232177827089909,12.831623023298938,-8.264467844184642,51.757877383350824
1760680387.1834633,-20.231245560799433,-0.24080867258279723,0.9391380372061325,-0.22819145495224724,12.445638931321644,-7.714054881363926,50.852173777480964
1760680387.1936069,-19.653501465914488,-0.22304174706156818,0.9427803221746495,-0.22516760095730431,11.969551452465677,-6.942976107707451,50.202052054172256
1760680387.2037203,-19.07579199114874,-0.20684247196191854,0.9428257181549248,-0.2232726772360573,11.376857031628726,-5.943695158391412,49.796440560066635
1760680387.21393,-18.499368960287836,-0.19286594685533828,0.9393330175820275,-0.22259251804254576,10.648378411097262,-4.703957821465674,49.58454584181743
1760680387.223662,-17.926337120343995,-0.18157999504984562,0.9326691936304918,-0.223087789088214,9.775930606419678,-3.213769206648747,49.48894438968516
1760680387.2338607,-17.35947148704182,-0.17323524617249014,0.9234636716634819,-0.2245764879775328,8.764201818277249,-1.4713756094053938,49.4210260747504
1760680387.24352,-16.80192011188212,-0.16786008527613214,0.9125419960817188,-0.22674762969414372,7.630930130780375,0.5129960592151517,49.29604400925493
1760680387.2536495,-16.256851004403206,-0.16527964844522053,0.9008414443022302,-0.22920234882214172,6.4055317150781805,2.716181027104713,49.04528407020665
1760680387.264475,-15.72711212551328,-0.16515913109027275,0.8893141965030638,-0.2315135792729357,5.126368778930093,5.103671370709652,48.62357979264285
1760680387.2738342,-15.214973320763852,-0.16707221031273012,0.8788279543955024,-0.23329415128131734,3.836890755634662,7.632919645454287,48.01142139157987
1760680387.2835379,-14.722005859439477,-0.170591717664353,0.8700778405067887,-0.2342643548331115,2.5809761089702947,10.257175098920401,47.212040388783855
1760680387.2935386,-14.249126934361831,-0.1753904872098608,0.8635241500793829,-0.23431110122409132,1.397944886182726,12.928655298422774,46.24487454229004
1760680387.3036337,-13.796795407422694,-0.1813276079136805,0.8593659783433211,-0.23353017536563903,0.31785873605622245,15.600139311214564,45.13752197815566
1760680387.3137128,-13.365299890241927,-0.18848600652291966,0.8575520879371836,-0.23224164018751625,-0.6421905428787025,18.224611994744006,43.918506732234874
1760680387.3237233,-12.955044580105282,-0.19713084895130387,0.8578220669416909,-0.23096879780505267,-1.4801406953571932,20.753296250499798,42.612807052165486
1760680387.3336616,-12.566726178260316,-0.2075789651488483,0.8597671865458235,-0.23037551854702948,-2.2088948699398214,23.133124953958784,41.241191277159025
1760680387.3436482,-12.20131520326263,-0.22000184930982128,0.8629023880923167,-0.2311657239545241,-2.85397864142579,25.30521173365064,39.823196187507044
1760680387.3538244,-11.859806666327605,-0.2342181708578987,0.8667457531949743,-0.23396032211623102,-3.4491297620771446,27.205940696123427,38.382415090121405
1760680387.363683,-11.542778629014753,-0.24955435066776596,0.8709048840862436,-0.23917653735307493,-4.030387385349013,28.771725611037343,36.9519467807167
1760680387.3739645,-11.249871417500488,-0.2648467624942477,0.8751671337644267,-0.24693717633216009,-4.629575456889238,29.94727812217474,35.57759641720904
1760680387.3838823,-10.979344518223666,-0.27861250719696723,0.8795828055811973,-0.257029922761847,-5.268344791735792,30.69566589297594,34.316837215116415
1760680387.3936815,-10.727859458894251,-0.28934192488010096,0.8845221342219772,-0.26892100232721683,-5.9540439032811445,31.007161646717492,33.232623353261665
1760680387.4037077,-10.49057887134308,-0.29580964979904323,0.8906846331750559,-0.28181008181439965,-6.6784963575732235,30.903614379743146,32.38262485503031
1760680387.4134748,-10.261589963869515,-0.2972970445080184,0.8990464450419929,-0.294702379845256,-7.420232189912039,30.436189448248065,31.805866860159153
1760680387.4234478,-10.034582460180069,-0.29366294340713495,0.9107450258733568,-0.3064750619668313,-8.149968343207677,29.676478858448014,31.509652109629837
1760680387.4334278,-9.803656509606178,-0.28526178960853005,0.9269149815201112,-0.31592707724836344,-8.83837488437037,28.703242954181903,31.45978236541437
1760680387.4436913,-9.564116671896954,-0.27275937756185853,0.9484993003166545,-0.32181750449759594,-9.464613003468223,27.588456390706124,31.576478202974712
1760680387.4534712,-9.313124235629727,-0.25692021242150126,0.9760647237140013,-0.3229082298456193,-10.023923951301041,26.38642286291905,31.73725235028949
1760680387.4635656,-9.050119690981314,-0.23843465796170574,1.009649014053358,-0.31802750452598466,-10.532712521726543,25.12862410660482,31.786662217805844
1760680387.4734168,-8.7769729272418,-0.2178274927683966,1.0486625752766916,-0.3061634779059772,-11.030022086718658,23.825227725828356,31.551674434917906
1760680387.4834292,-8.497858869210024,-0.1954562372268737,1.0918586497346308,-0.28658637697406136,-11.574899942282451,22.472435798496555,30.860528409167863
1760680387.4936392,-8.218887622679382,-0.17157971384598614,1.1373772381436644,-0.2589881611029853,-12.23978088089439,21.06354002071001,29.56256018406168
1760680387.5038939,-7.947542033233441,-0.14646104820412878,1.1828600062856605,-0.22362024538424824,-13.100604066192435,19.600800903286537,27.546397960751083
1760680387.5138156,-7.691993095987088,-0.12046584065615992,1.225627160325605,-0.18140394400880017,-14.22488419475698,18.105115769931697,24.754180508518875
1760680387.523814,-7.460374709359996,-0.09412407237194235,1.2629014016182942,-0.1339857435407948,-15.659346891535455,16.620935789489018,21.189930585951327
1760680387.534067,-7.2601031545789105,-0.068140715722583,1.292057791018213,-0.08371116176946393,-17.418960128235316,15.215008638045258,16.920913551480194
1760680387.543691,-7.097323390095762,-0.043360531823884836,1.3108730749455777,-0.03349758092674465,-19.479174183599262,13.968989240846339,12.071662921254386
1760680387.5538192,-6.97655394892179,-0.020711214175678363,1.3177461652273526,0.013400032158786096,-21.77285180409529,12.967320663653618,6.811252563631217
1760680387.5635898,-6.900583364291206,-0.0011595284294372173,1.3118628209522167,0.05371488520048692,-24.192721618456144,12.282650814492383,1.3352394006818968
1760680387.5741587,-6.870640056137926,0.014290042177960245,1.293280250039836,0.08454467927445292,-26.599310528392554,11.961308985271895,-4.155566438307264
1760680387.5835147,-6.886812610435337,0.02455106742524712,1.2629136335773596,0.10372065925231012,-28.833373850373622,12.011184336718026,-9.476780063368611
1760680387.5935102,-6.948644006237629,0.02840245922193477,1.2224222429516842,0.1101123283846702,-30.731080417576656,12.393913426286158,-14.479614141741184
1760680387.6037335,-7.0557764292637515,0.024493510251159565,1.1740170951983573,0.10382444129260003,-32.13986537052792,13.022612734976645,-19.064953121969356
1760680387.613673,-7.208500453784423,0.011467723579273982,1.120233305183159,0.08625614913192532,-32.93302636644911,13.765496888959536,-23.190734446556394
1760680387.6237245,-7.408074432280699,-0.01177335690299406,1.0637152107864154,0.060000478178445,-33.021654866544,14.454843082754044,-26.872310089712965
1760680387.6349416,-7.656726945533188,-0.04570085706531667,1.0070478036608086,0.028574671871204448,-32.363083844023464,14.900222327355944,-30.176490777801394
1760680387.6437075,-7.957328017306287,-0.08977018877100493,0.9526424141487702,-0.004002460570468362,-30.96547398915052,14.904813086669431,-33.21048029481131
1760680387.653975,-8.312796858510042,-0.14213277444850478,0.9026611697260031,-0.033734135470157044,-28.88835342956633,14.283747256074513,-36.10693329517365
1760680387.6639967,-8.72538200927706,-0.19956716148275788,0.858954373594169,-0.057185995382301145,-26.2389114258334,12.88349845979891,-39.00619642300516
1760680387.6737795,-9.195979838016244,-0.2577066246113484,0.8229913993546335,-0.07194561436310791,-23.163825144386585,10.601055520803811,-42.03678889223353
1760680387.6837404,-9.723636546005768,-0.31156125148790875,0.7957832076967382,-0.07691443805593778,-19.83665393154928,7.401006259898788,-45.2955889985052
1760680387.6934803,-10.305316481551616,-0.35624375444254536,0.7778117218481752,-0.07237869591097737,-16.441515433964735,3.3280008180791865,-48.82992441643595
1760680387.7038755,-10.935945905521974,-0.3877489288937167,0.7689895423337637,-0.059853939369946,-13.15470561914028,-1.4881414495656309,-52.62440740106743
1760680387.713652,-11.608688929596774,-0.4036294560787482,0.76867058635356,-0.041748332514857565,-10.126755680512641,-6.8368707587536015,-56.59544799605254
1760680387.7238417,-12.315393483411611,-0.40344395090371776,0.7757191458926403,-0.02092583319061982,-7.4677526328420765,-12.441856300457449,-60.595659056280354
1760680387.7335835,-13.047147933116786,-0.3888986790981891,0.7886261780107472,-0.0002598464571553752,-5.238374831478778,-17.98582243673012,-64.42888130764882
1760680387.7436128,-13.7948946722896,-0.3636485699685098,0.8056479156406733,0.01774812825993356,-3.448034333330263,-23.143025101106623,-67.87461545627467
1760680387.7538197,-14.550046925659693,-0.3327716629741543,0.8249428557535278,0.03123987505435424,-2.060067087363261,-27.615705091518397,-70.71870209294089
1760680387.763762,-15.305051792342082,-0.30198922108355236,0.8446969685353378,0.03914661166143561,-1.0025383740784053,-31.16980718520572,-72.785597152752
1760680387.7735372,-16.05384301564845,-0.2767611242223343,0.8632407679666325,0.04121715327746601,-0.18235661709451048,-33.66474178021136,-73.96691752168728
1760680387.7838335,-16.792135846297317,-0.26142118220072164,0.8791645414059054,0.0379488793546537,0.4998109938879385,-35.07220541145355,-74.24126400610281
1760680387.7936795,-17.517533580459524,-0.258512885964538,0.8914292548916896,0.030447589829240163,1.1359630577890172,-35.48024144260471,-73.68161917010875
1760680387.803723,-18.229437355719735,-0.26844260466953035,0.8994579433841771,0.020241755803908072,1.8000198598430501,-35.08077817514004,-72.44862313904152
1760680387.8134775,-18.928774184061893,-0.2894991446309308,0.9031833337670473,0.009074243505866282,2.540735033081781,-34.141533443224986,-70.7704074880818
1760680387.8235319,-19.61758059012063,-0.3182160011171586,0.9030271723678593,-0.0013069389765481111,3.378545340047049,-32.96594112077758,-68.9120037773092
1760680387.8335595,-20.298497188238592,-0.3499927698927702,0.8997987199592613,-0.009338747779006505,4.306217604037143,-31.847051828502003,-67.13916338243625
1760680387.8435001,-20.974239207712287,-0.3798563937567431,0.8945228819558436,-0.013797597094161295,5.292778967391209,-31.022617135422717,-65.68231750453796
1760680387.8535116,-21.647108198709088,-0.4032347265965525,0.8882328207368978,-0.013908334612108702,6.289881019325098,-30.638442211553727,-64.7062232015082
1760680387.8635154,-22.318602656654157,-0.4166287795774278,0.8817746073944531,-0.009404907634710994,7.239528538511792,-30.725651614647077,-64.28972772657096
1760680387.8736632,-22.989171899716226,-0.4180964289360643,0.8756667189623932,-0.0005438164588396988,8.082094809085582,-31.195184939903243,-64.4183183556304
1760680387.883707,-23.65813900430627,-0.4074932496636896,0.8700400702813345,0.01192917836098982,8.763761497634958,-31.850180498164853,-64.9900137766431
1760680387.8935437,-24.32379589807483,-0.38645251246026024,0.8646640011085583,0.026860709688508875,9.242856637318342,-32.4143782013315,-65.83304274364508
1760680387.9036896,-24.98364915313873,-0.3581219077749945,0.8590458524210239,0.0428202224249443,9.494839199561476,-32.57257030746767,-66.73202239154807
1760680387.9138234,-25.634772799222283,-0.32670486663863607,0.8525779989810081,0.058272108758348054,9.515761169212606,-32.01761350835617,-67.45829896577739
1760680387.9238808,-26.27420945313589,-0.2968769918229904,0.844697645030237,0.0717697337605282,9.3239621454553,-30.49766874768447,-67.79988201706776
1760680387.9335735,-26.899355930202816,-0.2731602751654923,0.8350234940011136,0.08213913613954134,8.959690709793165,-27.857197165729414,-67.58691612901352
1760680387.9437547,-27.508273384436407,-0.2593371464933553,0.823441006125884,0.08861611507067663,8.482456185410237,-24.065879303645218,-66.7096641425659
1760680387.9538634,-28.09987232046222,-0.2579751973922144,0.810122911351634,0.09090904628787462,7.966210803582717,-19.231129289163423,-65.1272596300169
1760680387.9639366,-28.673937963500197,-0.2701168024185011,0.7954888615490875,0.08917875579063034,7.492833016443586,-13.592177684997234,-62.8668209312524
1760680387.9737446,-29.230981480009948,-0.29516835602987107,0.7801213771901833,0.08394904223591874,7.144677308052037,-7.496403240001383,-60.013767255022074
1760680387.9838133,-29.771927142334107,-0.3310004906215254,0.7646612067127652,0.07597915935863005,6.997082725251944,-1.3611251997477594,-56.69523976170803
1760680387.993679,-30.297672336995994,-0.3742434600928493,0.749704558268856,0.0661366450726445,7.111690412776162,4.374020901767841,-53.059330153960985
1760680388.0037506,-30.80858183522039,-0.4207348074237403,0.7357208430136765,0.05530248818887261,7.5312528541543085,9.297891867024836,-49.25327595794053
1760680388.0138667,-31.303994685694786,-0.46605526325586827,0.7230064272102609,0.04432321713077078,8.276366897768282,13.075312955666723,-45.40380206515746
1760680388.0237148,-31.781826880643525,-0.5060780035943251,0.7116878073627243,0.03400361133793874,9.344281035334983,15.485228094384198,-41.60230629207543
1760680388.033684,-32.238343171077936,-0.537458242933531,0.7017824368053929,0.025117827733558074,10.709679241974284,16.44484870306816,-37.89662649077408
1760680388.0434496,-32.668148052207385,-0.5580045198351904,0.6933135742675413,0.01841113278184442,12.327160946475855,16.017134208835824,-34.28986890546409
1760680388.054109,-33.06441365293499,-0.5668961478755131,0.6864590443178983,0.01457027960715575,14.134997775430616,14.401294763126563,-30.745568455389055
1760680388.063459,-33.4193274450874,-0.5647357755688788,0.6816990734401573,0.014154842622549955,16.059627437790443,11.908203038289047,-27.19764484790422
1760680388.073529,-33.72471029624513,-0.5534441297016627,0.6799213904210364,0.01749815256665049,18.02027330959605,8.924248069647568,-23.56334149822759
1760680388.083532,-33.972728529504685,-0.5360131483617213,0.682444746939273,0.024598607728994096,19.9331309590808,5.868155468996446,-19.757431885806525
1760680388.0938156,-34.15660706360062,-0.5161387940885592,0.690932909434893,0.035027640638291446,21.714781948598056,3.1457212461143573,-15.70618954412464
1760680388.1038384,-34.27125120492249,-0.4977630694851691,0.707186827642801,0.04788028679263731,23.284817632906197,1.1073633769231868,-11.359785296238767
1760680388.113518,-34.313704181600464,-0.4845671854588619,0.7328225330466395,0.061788646559937856,24.56794757835206,0.012914096170815315,-6.701891133065385
1760680388.1237416,-34.2833977378163,-0.4794692247546149,0.7688676603045921,0.07500728247364281,25.49603338802258,0.007161684891898521,-1.7554064574555857
1760680388.13379,-34.182181616886325,-0.48418598957566594,0.8153383090202625,0.08556488169158297,26.010526401010047,1.1084038748043095,3.4165328889583058
1760680388.1437416,-34.01413935190579,-0.49892110915237603,0.8708827799763414,0.09146368205315386,26.065740642165686,3.2108979264602553,8.714689549003642
1760680388.1536887,-33.78521643618579,-0.5222414605507382,0.9325907829230952,0.09090129385786692,25.633269695778008,6.100754549960209,14.012840793606344
1760680388.1637955,-33.50270702477782,-0.5511967499759366,0.9960596206859335,0.08248780131229873,24.707596674917863,9.483562958535734,19.17097068183106
1760680388.1738994,-33.17466473945081,-0.5817116039165054,1.055777274225329,0.06543139460331306,23.31246910581207,13.020802884507424,24.05080203258791
1760680388.1838446,-32.80931471000318,-0.6092266434790713,1.1058225811568358,0.03966828290857874,21.506915985810725,16.370884803513906,28.531207471277575
1760680388.1934485,-32.41453986338218,-0.6294901444553593,1.1407992012268848,0.005920372656707044,19.38902705750935,19.22959764454238,32.520777383811065
1760680388.2036104,-31.997491788968848,-0.6393329910301611,1.1568310493513696,-0.03432329717961189,17.09510511126511,21.364140458851683,35.96533071852211
