timestamp,angle,linear_acceleration_x,linear_acceleration_y,linear_acceleration_z,angular_velocity_x,angular_velocity_y,angular_velocity_z
1760515018.175534,-5.564142602149436,-0.12416630994611924,0.9486742602424844,-0.48603412256403816,6.279403623653836,1.323930797954556,4.633378184260042
1760515018.1854994,-5.619145278562372,-0.12637417613360713,0.9208303218408123,-0.47565038184141717,6.272866828428681,2.382065732325054,3.7820871781519143
1760515018.1957796,-5.70103284148274,-0.1295291145062535,0.8992372059612105,-0.46780239254623357,6.121179690921247,3.3469778594597686,3.028648496237947
1760515018.2054977,-5.805338744683598,-0.13330410193722758,0.8841490339355805,-0.462284452133936,5.8062019208976485,4.113002608696212,2.4050239461803073
1760515018.2155128,-5.926538617226664,-0.13722892774328868,0.875102452385866,-0.45857217196298944,5.330672724659022,4.60311842469321,1.9354676701463884
1760515018.2256489,-6.05834193668185,-0.14078334586315874,0.8711266387263151,-0.4560047775286399,4.7167078973863825,4.774853480208196,1.6344905471671103
1760515018.2357666,-6.194097248172083,-0.14349149387614257,0.8709721740177518,-0.4539480460232119,4.002019604705695,4.621702509954221,1.5055426584240903
1760515018.2454963,-6.3272795347258475,-0.14500297208228188,0.8733242010978102,-0.45191389649576247,3.234699639132173,4.170582145011886,1.540541122893777
1760515018.2558024,-6.45201263865083,-0.14514989074715479,0.87697635051561,-0.4496249377270273,2.467413175719844,3.476305196267495,1.7203064145441644
1760515018.2655947,-6.563570434569139,-0.14397409085720245,0.8809525502156582,-0.447023802007139,1.7517374353023376,2.61423734260208,2.015898118152481
1760515018.2755382,-6.658798672282739,-0.1417232075993161,0.884572556946075,-0.4442367132124148,1.133210843604993,1.672238200922335,2.3907631810221965
1760515018.2855036,-6.736404189116373,-0.13881765504340554,0.8874639119149867,-0.44150722221064737,0.6474769174116053,0.7427540438892484,2.8035342472609783
1760515018.2955604,-6.797068593136585,-0.13579320959205052,0.8895287087837631,-0.43911855862619065,0.31773199523694173,-0.08438897580145355,3.2112523575746996
1760515018.305538,-6.843358841678886,-0.13322600304660903,0.8908782410627352,-0.43732160067396214,0.15352592190158462,-0.7282518875972693,3.5727453468034263
1760515018.3155262,-6.879426147377555,-0.13164833580957722,0.8917515475449393,-0.4362808805783728,0.150830598657047,-1.1220952054128688,3.851877554271504
1760515018.3254986,-6.910505829086832,-0.1314646893280205,0.8924341159216559,-0.4360447921501666,0.29319208883405273,-1.2178187333923085,4.020399832173122
1760515018.3355165,-6.942253554947476,-0.1328779240398475,0.8931902252277775,-0.43654008844183506,0.5537193158570266,-0.9895783942535127,4.0601627887146785
1760515018.3455033,-6.979977268334235,-0.1358358461786978,0.8942173899018633,-0.43758650733403015,0.8976300789391858,-0.4364972156766495,3.964497906301525
1760515018.3555171,-7.027845178241865,-0.1400071353684945,0.8956256735475825,-0.43892565528654565,1.2850658385875675,0.41578202513553353,3.738617083716312
1760515018.3655095,-7.088161975645409,-0.14479218441336802,0.8974397800979063,-0.44025849615948487,1.673901130329648,1.515082845624852,3.3989405618351465
1760515018.3755083,-7.160803632082658,-0.14936945096063722,0.8996184287891236,-0.4412865749148499,2.022316947368493,2.7846253865733868,2.9713484587032073
1760515018.3854997,-7.242887805096019,-0.15277349533381615,0.902083252969668,-0.4417526351693749,2.290976866412716,4.127215901897507,2.488464721500598
1760515018.3955135,-7.328738321024061,-0.15399840336401197,0.9047479431123187,-0.44147682020197804,2.4447275329390847,5.43183182149016,1.9862105348946397
1760515018.4061422,-7.410182542329859,-0.15211917708031655,0.9075380078551322,-0.4403855576497679,2.4538303167843574,6.582502847962138,1.4999828642788018
1760515018.41552,-7.477197483514414,-0.1464220304015166,0.9103935600832819,-0.4385311206440867,2.2948091551068623,7.469098695444582,1.0608981306749232
1760515018.4255006,-7.518888435709567,-0.13653126143922273,0.9132528546065571,-0.43610015075033143,1.9510531655986807,7.999285597270702,0.6925700239234998
1760515018.4359844,-7.52473920714016,-0.12251624063598547,0.9160220084685908,-0.4334092406973179,1.4133152604654902,8.110527482071785,0.40885072630683855
1760515018.4455485,-7.486018685094615,-0.10495878896751658,0.9185434509091642,-0.43088554668087203,0.6801818550000439,7.780634469686811,0.2128583631505626
1760515018.4555457,-7.397173008097148,-0.08496052362193761,0.9205789446124093,-0.4290305418171436,-0.24153170297698717,7.035076547476726,0.09745672164918513
1760515018.4655838,-7.2569895480836575,-0.06407326050758547,0.9218208072931351,-0.42836531858299653,-1.3366259312083142,5.94920541485101,0.04716277945234071
1760515018.475532,-7.069305132792515,-0.04414497145699669,0.9219372521974641,-0.4293567291543647,-2.581821025034113,4.643843059021359,0.041240615361628076
1760515018.4857385,-6.843064394339829,-0.027090034521874203,0.9206462999656122,-0.43232682308899845,-3.94668751205704,3.2735686490892646,0.05750601237149854
1760515018.495526,-6.591625803541505,-0.014613787484428386,0.9178014137611011,-0.43735522085393824,-5.395244422998761,2.0084526214462834,0.076153283920011
1760515018.5055225,-6.331354637390724,-0.007941226547018065,0.9134656166192435,-0.4441936933097329,-6.88814443846055,1.0116272802780137,0.08280710147545395
1760515018.5155292,-6.079698845520287,-0.007608194000887337,0.9079519861282174,-0.4522182570882609,-8.385326549930372,0.416398811491693,0.07009076310968279
1760515018.525676,-5.853063903723058,-0.013363481275116546,0.9018163034959557,-0.4604404820851926,-9.849059950121974,0.30709155279096506,0.03732214803562847
1760515018.5355322,-5.664846058776461,-0.024204578760569917,0.8957992669775205,-0.46758659627490406,-11.247343042351932,0.7072488128717318,-0.011575233771340397
1760515018.5455322,-5.523944440015979,-0.03853995704257053,0.890727484305929,-0.4722368819043227,-12.557554938589627,1.5773140674411603,-0.07138532097667011
1760515018.555516,-5.433975518870552,-0.05444756362307816,0.8873914118027675,-0.47300543110273313,-13.77004537736009,2.8218735776199453,-0.1392644984107871
1760515018.5655107,-5.39328674532116,-0.06998485136868401,0.8864229518253128,-0.46873368672562415,-14.891064240051596,4.3045073198438795,-0.21781880511132473
1760515018.5755877,-5.395728666041323,-0.08349734138905396,0.8881955552520114,-0.4586691354435264,-15.944229079529382,5.866837595691831,-0.31682007870184753
1760515018.5856993,-5.43201410734087,-0.09387087858894606,0.8927658397017294,-0.44260174770008764,-16.96975859619594,7.347894538376398,-0.4531244631033073
1760515018.5955305,-5.491395004701501,-0.10068144575117205,0.8998679243988604,-0.420935154040642,-18.021010055595777,8.600511675256715,-0.6487852643461457
1760515018.6055176,-5.563348824199111,-0.10421709488565863,0.9089604832042132,-0.39467766498939594,-19.15836423403119,9.502802915738203,-0.9277854102493276
1760515018.6155508,-5.638997902775328,-0.10537412360964198,0.9193147409299158,-0.3653498528817409,-20.441048738802987,9.964296069892715,-1.3121521915919652
1760515018.625535,-5.712072585214195,-0.10545490064513637,0.9301234948120763,-0.3348182129910211,-21.917947110909118,9.92748926285924,-1.8183693651348258
1760515018.6355696,-5.7793420054028495,-0.10591045784896158,0.9406094464051694,-0.30507512661539277,-23.618725069737604,9.366171680951396,-2.4549341261743964
1760515018.645634,-5.840543032194412,-0.10807532188472993,0.9501155452963339,-0.2779924532355462,-25.546671567477315,8.281805265544325,-3.2216493936323567
1760515018.6555638,-5.897916251829596,-0.11293719196451837,0.9581684082452386,-0.25508033560635324,-27.674498490468263,6.69883693716077,-4.110866085512875
1760515018.6655474,-5.9554976699564675,-0.12097309843531645,0.9645144665896682,-0.23728469719117795,-29.944015134821292,4.659369948199469,-5.110482544930682
1760515018.6756039,-6.018317093872618,-0.13207007316294125,0.9691333838418261,-0.224855053236605,-32.27014849469667,2.2174671006365627,-6.2081557942386665
1760515018.6854987,-6.091630316370895,-0.1455361790708669,0.9722330082188302,-0.21730701591841603,-34.54924716021501,-0.5664734092182095,-7.395947005433169
1760515018.6955152,-6.180279072361406,-0.16019922049402915,0.974226942732668,-0.21349129972981062,-36.67101938868663,-3.6305590772434893,-8.674537956503823
1760515018.7055502,-6.288242042827841,-0.17458273343417258,0.9756933332471847,-0.21176432293351133,-38.53289850145571,-6.914641666950935,-10.056202936642187
1760515018.7155323,-6.4184121442661715,-0.18713739897073664,0.9773134823635912,-0.2102367153665151,-40.055203217849375,-10.361282716622586,-11.565868448038097
1760515018.7255194,-6.572604188081211,-0.1964931387473983,0.9797915108759623,-0.20705978580717435,-41.19522921422013,-13.914139357062394,-13.239820689910774
1760515018.7355094,-6.75176123735072,-0.20169113727546287,0.98376139010132,-0.20070219453880433,-41.95838662536887,-17.51398278164716,-15.1219220458317
1760515018.7455235,-6.956293808470919,-0.2023591580444465,0.9896933209789875,-0.19017164814979967,-42.40467592808963,-21.09315741934185,-17.257548478819217
1760515018.7555351,-7.186463345379502,-0.19880319563481652,0.9978132734856264,-0.1751463008366385,-42.64915415401244,-24.56981675666378,-19.685814698664057
1760515018.7656174,-7.4427176374781245,-0.19199980115590234,1.0080460389046155,-0.15599511681940542,-42.855580772748134,-27.843576455188288,-22.43097716442841
1760515018.7755375,-7.725901838271905,-0.1834868371641284,1.0199880251568192,-0.13368598414191873,-43.223154627032756,-30.794220686538846,-25.494170050781243
1760515018.78552,-8.037299023182323,-0.17516643124215214,1.0329152109501294,-0.10960321053630674,-43.96712854049036,-33.284766679175505,-28.846787262889645
1760515018.7955375,-8.37849123088421,-0.1690495537393779,1.045830772217475,-0.08531490614663517,-45.294999017077316,-35.16956910870372,-32.42679860017217
1760515018.8055832,-8.751068496045034,-0.16698194295438276,1.057550803472873,-0.062337239350618606,-47.380733092732235,-36.30732991341081,-36.13902330651879
1760515018.8155322,-9.15624279099995,-0.1703926895417308,1.0668176911632181,-0.041934876071859764,-50.3399527118519,-36.57801004375785,-39.8598822089866
1760515018.8255222,-9.594440445312658,-0.18010002783446935,1.072426218993882,-0.024981079521224865,-54.209082550206105,-35.90179786807752,-43.44647045654882
1760515018.8359978,-10.064947716252929,-0.1961967481605593,1.0733493023487584,-0.011884919174115414,-58.93120215287913,-34.25746188368088,-46.74904107901379
1760515018.8455644,-10.565670839421005,-0.21802439176045613,1.0688534936116059,-0.0025821554851188067,-64.3507649891485,-31.696637646117626,-49.625302422348376
1760515018.855562,-11.093048849109778,-0.24423571977308337,1.0585950026414155,0.0034176870736597233,-70.21846218118155,-28.35014118650366,-51.954458065350515
1760515018.8660386,-11.64213162347168,-0.272941364291062,1.042686007643046,0.006935313674279398,-76.20635943327693,-24.42278822867133,-53.64880819376564
1760515018.8755214,-12.206813636369315,-0.3019356066171484,1.021720748501344,0.008985724366209669,-81.93220869010156,-20.174977811178216,-54.66112299520334
1760515018.885531,-12.78019936932787,-0.3289880025043519,0.996750743028529,0.010619565661814002,-86.99081931676515,-15.892587458268773,-54.98689054736448
1760515018.8955166,-13.355067332518663,-0.3521642895263286,0.9691990964966567,0.012768939994114163,-90.98970916918888,-11.850650874640191,-54.661642457570196
1760515018.9055412,-13.924390471751382,-0.37011094973146197,0.9407112691361712,0.016126659684529077,-93.58578258910147,-8.278948008086191,-53.75439764500496
1760515018.915566,-14.481859620857515,-0.3822296299429224,0.9129573079059049,0.02107998274278261,-94.5192614748582,-5.337318450492192,-52.35859511447363
1760515018.925576,-15.022350359476764,-0.3886982764731409,0.8874203234162511,0.02770768185635484,-93.64060343562956,-3.1052747895241986,-50.58188040243279
1760515018.9355628,-15.542280034947753,-0.3903510473545132,0.8652153913043888,0.0358339180327956,-90.92617743169274,-1.586171638261617,-48.536014867312865
1760515018.9455833,-16.039818836354748,-0.38847224453268075,0.8469776011609566,0.045116511597813665,-86.47964186258923,-0.7227451001692045,-46.32799705348418
1760515018.9558048,-16.514936270207574,-0.38456534910445545,0.8328407693735627,0.055142196318356776,-80.51843413966995,-0.41911953065199015,-44.05312506677494
1760515018.9655285,-16.96927595187595,-0.3801357045914058,0.8225047412490605,0.06551006514002317,-73.34783605133003,-0.5641754884726327,-41.79026068380118
1760515018.975552,-17.405861390903684,-0.37650344358837684,0.8153667529944288,0.07589372438785211,-65.32748745426933,-1.0519100478484171,-39.59919605433228
1760515018.9858496,-17.828650104124524,-0.3746566061701088,0.8106791447179661,0.08607539308529381,-56.83607798805601,-1.7956657216581873,-37.51989762492134
1760515018.9957917,-18.241973306872517,-0.37515530443669215,0.8076955302424005,0.09594797221561785,-48.2392384399367,-2.734649152388292,-35.57342382162243
1760515019.0055525,-18.649918057968666,-0.3780953242888639,0.8057779894608712,0.10548891146937993,-39.86402274639783,-3.832813418586472,-33.764312032234265
1760515019.0156155,-19.05572157043372,-0.38313129658127176,0.8044533343385113,0.11471881167768908,-31.981551413636318,-5.071622586833802,-32.08413198158961
1760515019.0255363,-19.461249178927485,-0.389549071715332,0.8034212403989279,0.12366266759059355,-24.797851531501113,-6.439120385725542,-30.515750856770026
1760515019.0355406,-19.86661797280394,-0.39637004772414036,0.8025269084510592,0.13232954936953006,-18.45185467778396,-7.91793639378475,-29.0377287895123
1760515019.045631,-20.270011883403484,-0.40247124794156547,0.8017144801642991,0.14071721009848676,-13.01890291176179,-9.474506534152667,-27.62823252863366
1760515019.055537,-20.66771726880386,-0.4067123477369145,0.8009759673555804,0.14883513323469372,-8.517906551738113,-11.0511620053775,-26.267972058133385
1760515019.065538,-21.054393250926108,-0.408067837065016,0.8003066031430631,0.1567294239820926,-4.92043094012919,-12.56214376576064,-24.941918606722133
1760515019.075685,-21.423574742776132,-0.40576302747607534,0.7996733262438295,0.16449117559349868,-2.160402611305688,-13.89418434716006,-23.639855974847375
1760515019.0855954,-21.768381826835718,-0.3994055689179791,0.7989990512560207,0.17223727439789974,-0.14371820068837995,-14.912043019811653,-22.356030495948293
1760515019.0955942,-22.082373535783198,-0.38909307650530744,0.7981610426090869,0.18006523604624375,1.2424064296021964,-15.469072437565403,-21.088249382122967
1760515019.1055903,-22.360443369818306,-0.3754695096263764,0.7969977475132805,0.18799529591447164,2.1202870697179965,-15.42225078053096,-19.8367643582741
1760515019.1155713,-22.599624935116353,-0.3597063486263721,0.7953177831697573,0.1959175929219051,2.612995940817519,-14.650074786168632,-18.603211112399144
1760515019.125633,-22.79967581941556,-0.3434015978085888,0.7929098805119865,0.20355857628705734,2.8365975323672923,-13.070635587316197,-17.389773369438892
1760515019.1355672,-22.963339589968655,-0.3284118343847201,0.7895602600506256,0.21047386415300864,2.894304511264956,-10.656656585220137,-16.198613969261103
1760515019.145522,-23.096238512158607,-0.3166475225932802,0.7850858008968715,0.21607067988962378,2.8732711613706265,-7.444592461067927,-15.031487569875555
1760515019.1555758,-23.206408042094868,-0.3098639018230798,0.7793829331580806,0.21966177083274077,2.844155298110212,-3.5359636971820607,-13.88936382046303
1760515019.1657352,-23.303536661142488,-0.30947259277167477,0.7724792605734134,0.22054956539965342,2.8629196437624946,0.9094369447382358,-12.771898171006484
1760515019.1755297,-23.398012901025965,-0.3163895879504615,0.764568128971641,0.2181316803654881,2.973926820644548,5.687355753680661,-11.676704127243887
1760515019.1855364,-23.49989876602973,-0.3309275276545875,0.7560106454395482,0.21201037579916282,3.2133132961140003,10.567612691485218,-10.598540484843234
1760515019.1955297,-23.617942950970722,-0.3527352981907366,0.7473014034157923,0.20208504342468134,3.6118022212060894,15.314391965292378,-9.528621955515026
1760515019.2055323,-23.75872515294622,-0.3807870282083122,0.7390062479177416,0.188610170413522,4.19638087204522,19.705266445289677,-8.454238827184717
1760515019.2156234,-23.925997563281875,-0.4134250899248327,0.7316875682993891,0.17220841567035367,4.990567394691359,23.54648253350721,-7.3587815425080025
1760515019.225547,-24.120270602650614,-0.44846391166063637,0.725833615094958,0.15383543039683864,6.013353798238232,26.683060192776626,-6.222206335884023
1760515019.235539,-24.338676875897978,-0.48335897368436714,0.7218054703609716,0.1346978146475543,7.277332417130156,29.003520070476686,-5.021995055417067
1760515019.2455702,-24.57513412693037,-0.515437219576558,0.7198112981738591,0.11612862013906969,8.786865217752995,30.440192407006627,-3.734711331447665
1760515019.255584,-24.820808874571703,-0.5421728016046592,0.7199125567070014,0.09942846529244151,10.53725611950482,30.966786964758864,-2.338240818829605
1760515019.2655814,-25.064854977454694,-0.5614779941572398,0.7220601064394097,0.08568678682040354,12.515646216446283,30.595090982442155,-0.8146498070072808
1760515019.2756417,-25.295366924736346,-0.5719662801581382,0.7261514780491966,0.07560629574272137,14.703842596525599,29.372394803488167,0.8467000228669017
1760515019.2855463,-25.50045074539828,-0.5731376899124584,0.7320973733849581,0.0693603392007302,17.08268433106146,27.380652782010937,2.6464829097267253
1760515019.2955678,-25.669285188369468,-0.5654432405994629,0.7398859847590261,0.06651287176255684,19.63702790800858,24.737529232561908,4.574082746916044
1760515019.305597,-25.79303563566465,-0.5502111097954012,0.7496351518524392,0.06602244507780843,22.360142405875347,21.598441183928003,6.6083829327451165
1760515019.3155437,-25.865502196934774,-0.5294529885735096,0.7616234203783954,0.06633825116962033,25.25630473202961,18.157751526165676,8.720987433416388
1760515019.3255696,-25.88342717957101,-0.5055948606819003,0.7762927073044,0.0655829943089031,28.34065629786872,14.64674935989127,10.881542170610643
1760515019.335538,-25.846441473662463,-0.48118157253597105,0.794217987364546,0.06180663629318651,31.635849415421013,11.326215326636769,13.064197604803159
1760515019.3455567,-25.756681787998037,-0.45859529778336755,0.8160424416452461,0.05328598807270145,35.165561593146904,8.472185101873185,15.253805896319916
1760515019.3555725,-25.618153826385225,-0.4398145670709004,0.8423794623151311,0.03883678305909705,38.945469426685584,6.35475773802699,17.45028932110718
1760515019.3657236,-25.43594524847714,-0.4262277125000397,0.8736867995193057,0.018097674184842406,42.97267586885295,5.211165542515181,19.669809755543326
1760515019.3758514,-25.215403477893023,-0.41850486015884586,0.910124430774609,-0.00825965436763759,47.21485255376903,5.215659269413685,21.941890658960066
1760515019.385658,-24.96138822766287,-0.4165287897001905,0.9514157805482042,-0.038441889517996694,51.600503889955796,6.450011720854027,24.302391885116666
1760515019.3955514,-24.677691497287654,-0.41938807138175066,0.9967380104659779,-0.06961007187181631,56.01183281469157,8.879507083956387,26.783074455832683
1760515019.4055483,-24.366693577320685,-0.42544348820037486,1.0446667920432848,-0.09814889712238598,60.28175902699786,12.339854640583514,29.399267178325516
1760515019.4155834,-24.029295470294215,-0.432483784054348,1.0931924885768023,-0.1201313098107601,64.19669886365502,16.540029756117267,32.13771467858148
1760515019.4255383,-23.665137026311086,-0.4379789883692167,1.1398114589578572,-0.13194055062240645,67.50659273434782,21.084177567547513,34.94694043797001
1760515019.4355962,-23.273075735253006,-0.43941456803267454,1.1816856403853229,-0.1309640573617022,69.94310701718993,25.512489209851555,37.73235218960799
1760515019.445583,-22.85186489651783,-0.43465613817440457,1.2158603114288222,-0.11623095549461748,71.24577873452512,29.357032650547932,40.357839741698236
1760515019.4556785,-22.400937023505833,-0.42227150022216764,1.2395311131421398,-0.08884525422470234,71.19416479138675,32.20480963051283,42.65477234693748
1760515019.4658725,-21.921177377414647,-0.4017453486730962,1.2503499499606194,-0.052086100562248994,69.64210369307264,33.757695927774556,44.43815220253413
1760515019.4755795,-21.415570741848533,-0.3735647951854479,1.246749355247147,-0.011107814459558473,66.54852224931402,33.87814195363664,45.5283760370708
1760515019.4855673,-20.889621100549544,-0.33919734144830943,1.2282447607996476,0.0277402911463051,61.998483888615695,32.61105822716493,45.77583959965631
1760515019.4957035,-20.351469339660735,-0.3009862971738854,1.1956514788258306,0.057868482211074164,56.208954594594495,30.176248663133443,45.0847673878147
1760515019.5056837,-19.811660001474685,-0.261957639218222,1.151145104750979,0.07350776530794169,49.51618469057811,26.931503199857588,43.43239961923599
1760515019.5155659,-19.282534945545176,-0.22551385422188852,1.0981150694607171,0.07068325516893383,42.34511385026962,23.312689855149436,40.88015165581539
1760515019.5255451,-18.77726598294381,-0.19501297189769895,1.0408097697107965,0.04791713439857537,35.164805009457645,19.762160389418746,37.57454805407244
1760515019.535675,-18.308585253792767,-0.17327895477898847,0.9838291682457332,0.006524722290191729,28.436680511275856,16.65913429874899,33.737378343461344
1760515019.5456097,-17.88733117916545,-0.16213119682336746,0.931561710634444,-0.04955999701932455,22.56369616624954,14.264951023694861,29.646196499724464
1760515019.5555727,-17.520991462031002,-0.16203752454816275,0.8876712491194599,-0.11440345849797397,17.848309937073637,12.692482836998611,25.607587821424865
1760515019.5655549,-17.2124750835837,-0.1719817550092469,0.8547189581614396,-0.18102052400450896,14.465296130786136,11.903523073981514,21.92640948227187
1760515019.5755463,-16.959357756512293,-0.18959433217368113,0.8339687201617249,-0.24246849756299627,12.452578968455315,11.732057188666483,18.874585492293388
1760515019.5856419,-16.753799263577662,-0.21153228137293872,0.8253852207080513,-0.2928789887772881,11.71997996725112,11.92653147806095,16.66313712452945
1760515019.5955606,-16.583223401389397,-0.23403328185412667,0.8278007061523629,-0.3282435603965888,12.072823770075432,12.201592953872145,15.420919171862383
1760515019.6055503,-16.431702554425883,-0.253529170086101,0.8392041258214735,-0.3468341282010038,13.245349021756919,12.28947689174804,15.182854053243748
1760515019.6156592,-16.281838984486573,-0.2671958298023786,0.8570961932987582,-0.34922328859009166,14.938119458405257,11.982744618115168,15.889239729047219
1760515019.6255581,-16.116828258983062,-0.27333627462440696,0.8788531977984663,-0.33794826574203257,16.854002509277446,11.162646448703285,17.39609562970904
1760515019.6355557,-15.922359687620279,-0.27153460193206796,0.9020479323347838,-0.31691854072988374,18.72838897091923,9.810389376257088,19.49481248863316
1760515019.6455598,-15.688063972374206,-0.26257312242091196,0.9246868354463473,-0.2906963666697836,20.350775547851686,8.001616308880928,21.937953523381932
1760515019.655578,-15.408341231724409,-0.24816159256545312,0.9453391822497097,-0.2637824757532206,21.576385613680955,5.887032391618177,24.467247982470223
1760515019.6655753,-15.082550101983188,-0.23056616992805623,0.9631553045366817,-0.2400192769709476,22.32803500162974,3.6638818369756945,26.839819102340673
1760515019.6755524,-14.714659515703962,-0.21222946172768858,0.9777908481056216,-0.22218649877961474,22.589803250998038,1.5436454510140132,28.8494553505719
1760515019.6855462,-14.312524535349775,-0.19544508013153153,0.9892682088206867,-0.21181980327083083,22.395031132326423,-0.2789593864156022,30.340992541171264
1760515019.6956575,-13.886944445876333,-0.18211286792035572,0.9978136202299094,-0.2092420107256065,21.8115584099636,-1.6515068809184654,31.217252917956838
1760515019.7056363,-13.450620156706503,-0.17357560136739728,1.0037093668583725,-0.21376502372508863,20.926905333220958,-2.481054609908504,31.43917319935435
1760515019.7155552,-13.017080193536355,-0.1705293677445406,1.007194196582923,-0.2240002069278037,19.835407998415526,-2.7416896089821856,31.020572511631574
1760515019.725576,-12.599611688117289,-0.17299999952331221,1.0084293278680188,-0.23820696379704107,18.62838732188321,-2.472671654080485,30.019406208002472
1760515019.7355514,-12.210222318237491,-0.18037751192650217,1.0075239073885855,-0.25461321790621827,17.387560132911986,-1.7686112254643498,28.527333170947923
1760515019.745537,-11.858667447873474,-0.19149640078735536,1.0045911508446401,-0.27165560011686873,16.181318052908225,-0.7637556153258611,26.659067051612354
1760515019.7557814,-11.551595397676568,-0.20474814099356964,0.9997984833223852,-0.2881110683287874,15.063259635963535,0.38736244404616105,24.54243566398726
1760515019.7659009,-11.291885527326961,-0.21822091162945528,0.9933884636947802,-0.30312344380031314,14.072334822348768,1.530641281965014,22.309520321878658
1760515019.775626,-11.078270285018101,-0.22987419667938858,0.9856711700488044,-0.3161565658878532,13.23397635570656,2.5321264747641314,20.088843010109198
1760515019.785572,-10.905329730024835,-0.23775429965244207,0.9770031287446473,-0.3269157769874424,12.561613668322126,3.2942196529333847,17.99840874347762
1760515019.7956614,-10.763911764414097,-0.240233420234597,0.9677645038281125,-0.3352689624201351,12.05809175873079,3.765995118561533,16.13950733698175
1760515019.805616,-10.641964436515451,-0.23622546534918834,0.9583343938299728,-0.3411794046925416,11.71680417162338,3.9459546363549034,14.59144032968107
1760515019.8156579,-10.525689454624283,-0.22532222186254522,0.9490580428157993,-0.3446496689644103,11.522677669648552,3.8768449944343124,13.40758117376425
1760515019.8255894,-10.400866688171927,-0.20781538280516543,0.9402056671005286,-0.34567525136293925,11.453326675036934,3.63362321631259,12.613232988537233
1760515019.8355796,-10.254174359015138,-0.1846082447804234,0.9319342997771564,-0.344214423376489,11.480649905256357,3.306814188054196,12.205591804149929
1760515019.845596,-10.074340128067588,-0.1570506973974852,0.9242701091889911,-0.34018597195615524,11.572950599320414,2.9841779585217694,12.155856340738637
1760515019.855599,-9.852998815816784,-0.12674176009069077,0.9171238995045573,-0.3335028100331373,11.697455368196449,2.733820716694755,12.413255573551242
1760515019.8655822,-9.585193946731426,-0.09534070646740041,0.9103410872028501,-0.32413909089117005,11.822962434148211,2.5916578219328446,12.910544555161144
1760515019.8759277,-9.269528336467314,-0.06441791678551807,0.9037759959111409,-0.3122179138858326,11.922292707293671,2.555435705987043,13.570372070899245
1760515019.8857348,-8.908025802217084,-0.03536275416459685,0.8973726900059587,-0.29810015373064874,11.974253717485274,2.5863896342741692,14.311867853165866
1760515019.8956697,-8.50579597156702,-0.009349191958054304,0.8912319307038415,-0.2824529999080514,11.964944836706326,2.618234841190729,15.056830042886133
1760515019.90556,-8.07058935451891,0.012656644222046216,0.885645838224256,-0.26627822305454624,11.888384641994271,2.571813798365191,15.734991039801196
1760515019.9155602,-7.612295701629853,0.02987462448225315,0.8810872928611603,-0.25088393583443624,11.746553894169228,2.3726168451342535,16.287971647067327
1760515019.9255848,-7.142393295292864,0.04170409891285532,0.8781487180484931,-0.23779017988531995,11.548961366931271,1.9677891424421252,16.67168233181251
1760515019.9355567,-6.673323279981017,0.04775269270453921,0.877434089243325,-0.22856972459056513,11.311754540137962,1.3392865499364859,16.857097289792218
1760515019.9455888,-6.217760409185965,0.04790084754654585,0.8794192044408145,-0.2246417934054297,11.056287266355579,0.5105787397950727,16.829520511437025
1760515019.9557502,-5.787788905336843,0.04237802175459931,0.884308535914838,-0.22705575909899706,10.807034620447402,-0.4543727307577477,16.586682394870678
1760515019.965567,-5.3940605731441575,0.03180705157702769,0.8919286094367926,-0.2363162292467398,10.588870996537377,-1.4594585626385428,16.13620865616924
1760515019.975569,-5.0450752891154576,0.017174613494604342,0.9016977532325191,-0.2522967883672961,10.42392212109684,-2.3901432219427727,15.493088062045555
1760515019.9855819,-4.746732119291414,-0.0002843491940043128,0.9126913795081031,-0.2742602650582963,10.328302256108625,-3.1297832049541463,14.67764383563066
1760515019.995597,-4.502233951570741,-0.019258532063622942,0.9237873755391535,-0.30096492411442793,10.309014648940815,-3.5758390145390098,13.714234829786882
1760515020.0055845,-4.3123237970856545,-0.038534371474074854,0.933848519957725,-0.33081675801005306,10.361304622511254,-3.653861724741707,12.630637946635552
1760515020.015637,-4.175742404588817,-0.05712377743846273,0.9418929195804632,-0.36203655817994623,10.466974351475466,-3.327653258207726,11.457895798043626
1760515020.025808,-4.08975863243729,-0.07432139943880117,0.9472166950526317,-0.3928272807036318,10.594430520518827,-2.6043493308161767,10.23033332419262
1760515020.0358028,-4.0506379063874345,-0.08969347684926832,0.9494538265855446,-0.4215319378309103,10.701136821580748,-1.5336960191790807,8.985415600947784
1760515020.045585,-4.053962004166265,-0.1030178942146376,0.9485762850060298,-0.4467664831990884,10.738526278940505,-0.20168011012725198,7.763155357552603
1760515020.055653,-4.09477242067845,-0.11420174043627024,0.9448487224768372,-0.46751089041746524,10.65861854477039,1.2803306210292864,6.6049032224572635
1760515020.0655658,-4.167562917990829,-0.12320138099475045,0.9387560264731705,-0.4831506650416975,10.421052263861899,2.7891012243200026,5.5515174466174315
1760515020.0755956,-4.266186965642628,-0.1299648405782263,0.9309209062169107,-0.49347298862240513,9.999180456751152,4.203690586856076,4.641032275067366
1760515020.0855792,-4.383769256634943,-0.134408984007148,0.922024282590007,-0.49862873276454633,9.38418591716143,5.418498264949901,3.9060030601972002
1760515020.0955756,-4.512713647037178,-0.1364348075728908,0.9127356538838877,-0.49907249477171794,8.586652206640045,6.353894034307761,3.3707464095758204
1760515020.1056058,-4.64488091017427,-0.13597460488285515,0.9036564334402839,-0.49549050328772165,7.635516388413232,6.9636268937308925,3.0487540274636737
1760515020.1156623,-4.771973317097197,-0.13305797917885964,0.8952780331900891,-0.48872401324333453,6.574747544202059,7.238649420702118,2.940624647484522
1760515020.125587,-4.886118658194146,-0.1278811878045862,0.8879571427692807,-0.47969485645832,5.458401662196999,7.207323072291616,3.032884812153273
1760515020.1355727,-4.9806013047007465,-0.12086429338471481,0.8819106889288577,-0.4693387965645256,4.344877388871749,6.932183173593335,3.298027435547764
1760515020.1455777,-5.050646058185251,-0.11268078862503945,0.8772306278469966,-0.4585497270452574,3.2912230532821294,6.503570900797715,3.6959847279892033
1760515020.155603,-5.094126801469509,-0.10424527791967214,0.8739144547110757,-0.44813415351538466,2.3482221656527895,6.03054240752907,4.177074959513625
1760515020.16585,-5.112055120909206,-0.09664885363974911,0.8719035593415516,-0.43877304111540694,1.5567433629863177,5.629600607474998,4.6862326823764775
1760515020.175583,-5.108713551660972,-0.09104040735985802,0.8711208851521196,-0.43098862012073325,0.9455431067434935,5.411991562133454,5.168086096827254
1760515020.1855896,-5.09133908013021,-0.08846427936019748,0.8715018689367944,-0.4251167263399783,0.530423251897003,5.47055177494994,5.572244746943816
1760515020.1955802,-5.06933270191507,-0.08967740495395791,0.8730158425423382,-0.4212885319455062,0.31442606172992266,5.867338059364239,5.858064108720772
1760515020.205592,-5.0530587995992455,-0.09497855752840188,0.8756767413589396,-0.41942675551804,0.2886314237669362,6.623451334902643,5.998191490412559
1760515020.2155733,-5.052384209484516,-0.10408484298859616,0.8795422183099727,-0.41925977983319235,0.4331175812847786,7.712503696893639,5.9803679121668925
1760515020.2255874,-5.075168715277322,-0.1160847080690562,0.884700406397742,-0.42035352986795904,0.7177494072582855,9.059003650849236,5.80723264541919
1760515020.2357304,-5.125940451024145,-0.12948400517767367,0.8912441933965612,-0.4221573975784003,1.1026383730186156,10.542510335209354,5.494197978039977
1760515020.245741,-5.204968076706304,-0.14234599791193076,0.8992338689469576,-0.42405872468582206,1.5383278727259668,12.00776051779078,5.0657673090502175
1760515020.2555866,-5.307885006031536,-0.15251148710217632,0.908650467762893,-0.4254410514578402,1.9659415900443793,13.280191866109188,4.550901226820051
1760515020.265574,-5.425944193013103,-0.15787401843035848,0.9193442983640624,-0.4257435702450702,2.317648738001319,14.185483179343548,3.978158775464657
1760515020.2756596,-5.546900287440645,-0.15667828546493612,0.9309859713609268,-0.42452093796186835,2.517830958493446,14.571002730711019,3.3713486444391956
1760515020.2856612,-5.656439522444515,-0.14780647310509817,0.9430305325027225,-0.42150197346958523,2.485290095715436,14.326490937002962,2.7463273094594753
1760515020.295584,-5.740008991106862,-0.13101550002202397,0.9547086617399128,-0.4166423331970288,2.1367379408075555,13.401007368182624,2.10939081830934
1760515020.3056047,-5.784834793707021,-0.10708724642922016,0.9650608905163074,-0.4101611668371396,1.3916809708977622,11.813246864360757,1.4574417639267065
1760515020.3155813,-5.781866371674759,-0.07785611626240972,0.9730284561244331,-0.402547240673673,0.1786644215824391,9.652861096447687,0.779801855114771
1760515020.325584,-5.727355972851846,-0.046087936647798936,0.9776042190298718,-0.39451884380401825,-1.5573419610265595,7.071476862436963,0.061222007001757915
1760515020.3355768,-5.623798714855343,-0.015204515050752846,0.9780276621055841,-0.3869266908679629,-3.8468918783493216,4.26369137565348,-0.7146344996518953
1760515020.3455734,-5.480035664716433,0.011122481548645799,0.9739840616850641,-0.38060134784654703,-6.688196757001155,1.4403092677415936,-1.5621264367278638
1760515020.3555868,-5.310454583262855,0.02945460581059598,0.9657514639046004,-0.3761643882119885,-10.040755212444015,-1.201938105254358,-2.4918527960931045
1760515020.365593,-5.133382628887391,0.037072624282633033,0.9542432026066816,-0.3738395009152891,-13.822131267289633,-3.508660891162683,-3.5107524820393743
1760515020.3756485,-4.968915729911018,0.03238599160613006,0.9409212916458898,-0.37330893458338005,-17.909496411515,-5.388603465074397,-4.624193676576167
1760515020.3856285,-4.836537607964553,0.015195348729502355,0.9275952367025069,-0.3736579943719228,-22.146980211816913,-6.823111161545206,-5.839562510525508
1760515020.395569,-4.7529214352682825,-0.013240342898493154,0.9161532891219107,-0.3734360503925503,-26.358899331460094,-7.863062893596487,-7.1703272224694725
1760515020.4055994,-4.7302650403069535,-0.05034670802554971,0.9082863244138512,-0.3708384270039941,-30.36786365401013,-8.614803657070015,-8.639264528966157
1760515020.4157052,-4.77539406760475,-0.09256130308685295,0.9052569312113848,-0.36398249485938067,-34.01583076545797,-9.218635107605415,-10.279601124440072
1760515020.425883,-4.88970548197211,-0.13578267959516577,0.9077461498127706,-0.3512214899491784,-37.18547322623499,-9.824338836451409,-12.13324019743593
1760515020.435575,-5.069857327532067,-0.17585663010878996,0.915789390490047,-0.3314248338982615,-39.81877792085702,-10.568026947252129,-14.245898643907829
1760515020.4455683,-5.308981440226054,-0.20901723511952797,0.9287984735217936,-0.30416337064796856,-41.929730845352985,-11.553589904368279,-16.659706010651906
1760515020.4555845,-5.598132846653238,-0.23222458704896884,0.9456578947959909,-0.26976729344241496,-43.608387705745365,-12.840536318221039,-19.404430804186163
1760515020.4655852,-5.927698633201183,-0.24337576814922346,0.9648771336781068,-0.22925924331419392,-45.01461975340049,-14.4385581350154,-22.488851496764493
1760515020.4756165,-6.288554094706445,-0.24139836692656633,0.984776349589616,-0.18419332441735678,-46.3612549184533,-16.308103018860347,-25.893805570898653
1760515020.4856377,-6.672848135043688,-0.22625924037292214,1.0036813659692037,-0.1364479416500126,-47.888011865889965,-18.365766194720603,-29.568167805978106
1760515020.4957368,-7.0743965420019395,-0.198931004880357,1.0201054975413992,-0.08802397631849741,-49.8292640012912,-20.49334929872137,-33.4285479507835
1760515020.5058208,-7.488740445226431,-0.1613511341993325,1.0328989278725604,-0.04088750853741631,-52.379921652714394,-22.549754374223046,-37.36299930075119
1760515020.5155816,-7.912975820610442,-0.11638425670055656,1.0413499153950567,0.0031286484668762776,-55.6642773010871,-24.38522718750292,-41.23859264562497
1760515020.5256956,-8.345474544955255,-0.06776619074204814,1.0452266721125072,0.04237646055791027,-59.7123762072127,-25.857569545803962,-44.91233485602756
1760515020.5356677,-8.785601483204404,-0.019981877633912726,1.0447552348208788,0.07542456657441207,-64.44741184964136,-26.84959924110351,-48.24451816474351
1760515020.5457602,-9.233493564978481,0.021980332960006368,1.0405374280042208,0.10109907925869924,-69.68603947440086,-27.286338578156602,-51.11312959688407
1760515020.5555863,-9.689917220534666,0.05304270535339768,1.0334234544670138,0.11855263487859863,-75.15170453323408,-27.149422172798218,-53.427508314139004
1760515020.5655804,-10.156173272326633,0.06862801659677523,1.024362367953615,0.1273670861706054,-80.4994460963777,-26.48549335066268,-55.13917066373996
1760515020.57562,-10.633987024892866,0.06537339285643497,1.0142559581382402,0.12767941540881253,-85.3493770357522,-25.40542847527796,-56.24777823093114
1760515020.5855756,-11.125317864655765,0.04184101213010196,1.0038372482532745,0.1203017870823675,-89.32521821786386,-24.072555795418005,-56.80072864923786
1760515020.5956237,-11.632052886554336,-0.0009692605508526398,0.9935893592265004,0.10678576231755833,-92.09381480494747,-22.680725784663302,-56.88585386820694
1760515020.6056204,-12.155603367314626,-0.05951138972241477,0.98371664733417,0.08936944904358131,-93.40136746014417,-21.42635667828836,-56.61803411845889
1760515020.6157227,-12.696474110372776,-0.12810228481730748,0.9741724467222933,0.07076554012920207,-93.10207493411535,-20.480746437640633,-56.1217664988942
1760515020.6256409,-13.25389527819241,-0.19978505224025722,0.9647327327304059,0.053804344029406086,-91.17510084903377,-19.96862337495768,-55.51250571362616
1760515020.6359234,-13.825587540475851,-0.26742067720362334,0.9550912382521385,0.04101164908826194,-87.72663233602555,-19.95631345035249,-54.879791470901424
1760515020.645715,-14.407692607061794,-0.3247307788604606,0.9449507634735587,0.0342319094799121,-82.97575872130396,-20.44964800837281,-54.274796077784806
1760515020.6556017,-14.994866898462421,-0.3670814876519968,0.9340958362743202,0.034383111213494535,-77.22591294927989,-21.39939135430133,-53.70404986216651
1760515020.6658404,-15.580518149300614,-0.39191757069120564,0.9224420896671811,0.041373509684638425,-70.82671845568862,-22.711083981745862,-53.129959499525214
1760515020.675589,-16.15716037853682,-0.3988570389895791,0.9100624723191106,0.0541607662990829,-64.13293739824714,-24.256507496773306,-52.47762962681989
1760515020.6855931,-16.71686299628261,-0.38951179324448487,0.8971923861868955,0.07091199698360867,-57.467177671597106,-25.88497370999451,-51.646638243844365
1760515020.6956227,-17.25176771062462,-0.3671154493132396,0.8842171350127342,0.08922633131143574,-51.09143682360902,-27.43382682855043,-50.525869665942416
1760515020.705602,-17.75463993506154,-0.33603263547683565,0.8716448361565838,0.10639582417987603,-45.19022642343668,-28.738482104826833,-49.00928211316441
1760515020.7156274,-18.219411372139508,-0.3012105805172437,0.8600656350817122,0.11969255236491766,-39.8656441552525,-29.642711491207525,-47.010567634636054
1760515020.725603,-18.64166131519061,-0.26762280501927166,0.8500950893126544,0.12667279489374716,-35.142863447605684,-30.009675908694312,-44.475007789189945
1760515020.7357523,-19.018979733535442,-0.23974777662502098,0.8422989967945369,0.12548392228646182,-30.98335708602053,-29.733573424600223,-41.387358494298255
1760515020.7455962,-19.35115776965967,-0.22112052272455449,0.8371014642923509,0.11515001788187502,-27.30273006387445,-28.751014169316495,-37.7751998945856
1760515020.7556067,-19.640162268714153,-0.21399096595602532,0.834687123791486,0.09580233356351639,-23.99011882359083,-27.050611962798794,-33.70775408438831
1760515020.7655969,-19.88987128314331,-0.21911834315495363,0.8349176314968212,0.06881387750977103,-20.926559897709982,-24.67896302004576,-29.290640776158064
1760515020.7756076,-20.105577041882594,-0.23572482145960713,0.8372868495487975,0.03679660226594504,-18.000429205997893,-21.741233912153216,-24.657386894335946
1760515020.7856722,-20.29329959309017,-0.26162116117634465,0.8409364921541234,0.0034267193804049757,-15.11887132591449,-18.395014491899932,-19.95872937148987
1760515020.7956312,-20.458993478256293,-0.29350186140426365,0.8447454449647332,-0.026919680209502344,-12.214934060621971,-14.836859862378583,-15.350852962334734
1760515020.8056319,-20.607763312751942,-0.32738713340269787,0.8474922359707789,-0.04970980053100483,-9.250782258928677,-11.281946347111573,-10.983672344170158
1760515020.8156135,-20.743221366022816,-0.35916531422146697,0.8480705417928114,-0.06092189246615803,-6.217792603668979,-7.938384830853882,-6.990095382873022
1760515020.8255923,-20.867111568204702,-0.38516362757036476,0.8457124990373284,-0.057727490410078706,-3.134478609447589,-4.978889757826372,-3.476963792151208
1760515020.8356075,-20.979286177591792,-0.40265475775237247,0.8401534390692869,-0.03902925083549636,-0.043084175045688136,-2.513625502553634,-0.5181908951764652
1760515020.8457153,-21.078057501451507,-0.41020723194763925,0.8316767976669561,-0.005697147021013954,2.9946245194579237,-0.5689418565500336,1.8494262675882291
1760515020.8556113,-21.160867042533745,-0.40781962130394506,0.8210224313255958,0.03957227526604812,5.902249627704052,0.9231582563183924,3.627241325082186
1760515020.8655994,-21.225133852395714,-0.3968294521255129,0.8092001998125627,0.09272332493491985,8.594543979824692,2.1212674669742992,4.852308354879232
1760515020.8756113,-21.269087816028666,-0.37963209738527137,0.7972791658027818,0.14899597246331683,10.98432952998735,3.2557840331602788,5.591521316697714
1760515020.8855994,-21.292390501805812,-0.3592717499061421,0.7862087194127575,0.20361427952049593,12.990492551197988,4.59770042638454,5.932966475982467
1760515020.8956065,-21.29640758391095,-0.3389804501574436,0.7766969253561893,0.25238736138355733,14.546524616026064,6.420207370736532,5.975555364890559
1760515020.9057298,-21.28410294130745,-0.32174429117876596,0.7691488875618578,0.2921432949913314,15.60867302440362,8.959435297806296,5.818168787918496
1760515020.9155989,-21.25963394185239,-0.30996495526757173,0.7636592045976704,0.3209542968316558,16.162593537449343,12.380219541066218,5.5494418368736715
1760515020.9258115,-21.227799955001302,-0.3052590745452344,0.7600509631742344,0.3381478997927176,16.227528115748623,16.751295459020906,5.2391195015178225
1760515020.9356742,-21.193510282002563,-0.30840321393010195,0.7579513171545814,0.34413332784370965,15.857400010427638,22.032406223943955,4.9317635712342875
1760515020.945625,-21.161397099733332,-0.3193994348858005,0.7568879788284487,0.3400992471721109,15.138677078931057,28.073960817615436,4.643511047991505
1760515020.9556172,-21.13562788670105,-0.3376169668319554,0.7563862016749059,0.32765245634118084,14.185273060588138,34.628419828662246,4.362466550506715
1760515020.9656582,-21.119900060097414,-0.3619635202636718,0.7560471463778786,0.3084653871503761,13.131089859329672,41.37157229399295,4.053031254069746
1760515020.9756112,-21.11754874324347,-0.39104941857440095,0.7555958054808227,0.28398794298552765,12.121053860747493,47.9311825973026,3.6639887542865095
1760515020.9856284,-21.131674078026194,-0.42332124112185404,0.7548961978000226,0.25526217495660825,11.301661852652884,53.9199759729085,3.1395711855204103
1760515020.9956145,-21.16519680543947,-0.45715607686252185,0.753940573298133,0.2228594513017856,10.81208710843811,58.969551811595764,2.4321810404224435
1760515021.0056276,-21.220775386165315,-0.49092184415202733,0.7528267186270726,0.18693944280461885,10.776739774414013,62.76168491358955,1.515089872467329
1760515021.0158138,-21.30055636453746,-0.5230198380681781,0.7517408513739942,0.14740993245109815,11.29979955799143,65.05376072377624,0.39334977461517595
1760515021.02563,-21.405772045059496,-0.5519286758476293,0.7509594601512471,0.1041503102122839,12.461706285406215,65.69584608326981,-0.8886524748160091
1760515021.0357127,-21.53623831593758,-0.5762642510809662,0.7508714061404494,0.057254116134329285,14.317058789998233,64.63799145608883,-2.244149465520525
1760515021.0456617,-21.689836019954576,-0.594860363691158,0.7520078939712961,0.007248585131546923,16.893016049924796,61.92755441503034,-3.5460667060219673
1760515021.0556142,-21.862076913534445,-0.6068591967849165,0.7550612289342797,-0.04474105995278482,20.187239857398364,57.69748421290838,-4.6342624130169385
1760515021.0656176,-22.04585477045672,-0.6117828022769521,0.7608767064407419,-0.0969037820791091,24.164691560125526,52.14761330622345,-5.3274483443823355
1760515021.0756705,-22.23146197682308,-0.6095499245058108,0.7704111771441992,-0.14674607041972518,28.75315172327393,45.521971641217576,-5.438871962889462
1760515021.085602,-22.406915753914934,-0.6004191832457493,0.7846606459123574,-0.19120015752131098,33.838076261525515,38.08570675194486,-4.794557491058088
1760515021.0956047,-22.558591930675043,-0.5848713533616855,0.8045646828657924,-0.2268498838863604,39.258189754853284,30.105200653584873,-3.252714784677707
1760515021.1056345,-22.67211525498629,-0.5634681973628384,0.8308968371701853,-0.25027826984897655,44.803868547959624,21.834504614652666,-0.7226899289479718
1760515021.1156044,-22.73341469580405,-0.5367328175013943,0.8641472820155223,-0.2585199269389217,50.22067164987373,13.510300437218831,2.8184789998244093
1760515021.1256025,-22.729832869501905,-0.5050924675614686,0.9043981254566694,-0.2495703292840093,55.220071588743124,5.356065354780122,7.3140418586837
1760515021.135641,-22.651186002121317,-0.4689136651444392,0.9511891112218058,-0.22287175493302167,59.49831231724594,-2.4061469698191633,12.622039712584183
1760515021.1456287,-22.490695541805124,-0.4286369332359202,1.0033790015897173,-0.17967542050529586,62.762470255133266,-9.540560042676791,18.517733024191386
1760515021.1556468,-22.245735634202838,-0.3849823400154217,1.059027349032228,-0.12318176747943457,64.7607173025816,-15.785583778709693,24.704525710207655
1760515021.1657612,-21.918348262073927,-0.33915942129689164,1.115344824036724,-0.05839068686967687,65.31217721194473,-20.85175281960551,30.833124888780187
1760515021.1756942,-21.515472260234485,-0.29299806735841905,1.168772409275998,0.008351910271146066,64.33120287742766,-24.43486850927883,36.52788892766181
1760515021.1857607,-21.048828348050307,-0.24893301563415696,1.2152354007064177,0.07005757669465806,61.84166185829485,-26.24555043600271,41.41847294321495
1760515021.1959007,-20.53441390659564,-0.20981597056189918,1.2505748871563975,0.1199371471873096,57.978774780728486,-26.051421527337414,45.17398970256147
1760515021.205715,-19.99159325002585,-0.17857774501038126,1.2711036202515753,0.1522414761162177,52.978557618020325,-23.723851240452213,47.53616714018465
1760515021.2157724,-19.441816803076513,-0.15780299240732756,1.2741886153476336,0.1629716006510814,47.15700356719118,-19.27907807994931,48.34766180914627
1760515021.225687,-18.90705592135675,-0.14930311018225348,1.2587432404255148,0.15036532244509893,40.88213722115116,-12.904258937906919,47.57192541783089
1760515021.2356339,-18.408088646370953,-0.15377527394210722,1.2255183518258914,0.11511045207625609,34.54210228036293,-4.962049322752308,45.30178128802272
1760515021.2455957,-17.96280704173199,-0.17061977460247607,1.1771137659646165,0.060270004435774724,28.512184555666767,4.0284746020351445,41.755009252292595
1760515021.2556083,-17.58473185695872,-0.19795776557473255,1.1176867683997558,-0.009070591370141866,23.12365779960305,13.432519628089391,37.25663366487588
1760515021.2656226,-17.28190797904484,-0.23284879838346015,1.0524045035030465,-0.08640062211782035,18.63749975542168,22.556418867670605,32.20916986526538
1760515021.2756305,-17.056309124804724,-0.2716588862785335,0.986750595347569,-0.16456106573777177,15.225893652316199,30.712947430563794,27.053711468477967
1760515021.2856777,-16.903806092429516,-0.3104938524349213,0.9258286310481235,-0.23660295341423512,12.963678280309109,37.28675451552506,22.22623743037562
1760515021.2956135,-16.81466855216097,-0.34560911250691545,0.8737941228439429,-0.29660616835335873,11.83058094453763,41.79221715616084,18.1145222682742
1760515021.3056,-16.77450359096532,-0.3737370691629832,0.8334999826019396,-0.34033776343631233,11.723436564939194,43.917593258212214,15.021155577290031
1760515021.3156552,-16.765502657027724,-0.39231503797303136,0.8063793614672071,-0.3656521585422556,12.476026369048476,43.55134404753958,13.137278504814377
1760515021.325604,-16.767868689272664,-0.3996244892164347,0.792535672125918,-0.37257827527302606,13.883058884033428,40.78861565773217,12.529926229680468
1760515021.3356345,-16.761311630802407,-0.3948597046014155,0.7909767789331135,-0.363095731900129,15.72447065224037,35.91802082425835,13.143725447047071
1760515021.3456368,-16.726520386747612,-0.37814128463832325,0.799922195303858,-0.34066231458295443,17.78670262851401,29.390901732434592,14.815585569156783
1760515021.3559303,-16.646536542476444,-0.3504861830585183,0.8171222616985253,-0.30959964729788386,19.87869783235547,21.77690051458614,17.299349195353297
1760515021.3656142,-16.50796674022546,-0.3137404447936473,0.8401458336683137,-0.27445797616341067,21.841704728402707,13.710668910126032,20.296398157495382
1760515021.3756056,-16.30197328574723,-0.2704712714331255,0.8666104409592049,-0.23946283007964098,23.55320392906357,5.834868670180313,23.488025388576716
1760515021.385612,-16.024975220740195,-0.22380487109842828,0.8943442457415112,-0.20810869371655313,24.926158199425497,-1.2555671544019211,26.56587705047201
1760515021.3956053,-15.67898267221441,-0.17719490698433504,0.9214821584915216,-0.1829249287832864,25.905218257836427,-7.063320594935508,29.25769150980129
1760515021.4056318,-15.271493708885648,-0.13412133977140597,0.9465078301833166,-0.16540804341560594,26.4615348547724,-11.228552173507705,31.346612916099964
1760515021.415834,-14.814918988438393,-0.09774735830793956,0.9682578085930528,-0.15609309963276363,26.587552762620696,-13.555190147122246,32.68332182899516
1760515021.4256148,-14.325558452161061,-0.07058598878704009,0.9859042057132621,-0.1547222765517042,26.292731082532793,-14.021154703517555,33.191015111513984
1760515021.4356294,-13.822213430632141,-0.054232970847676816,0.9989287126337199,-0.16046077104019627,25.600650643148477,-12.771541116167013,32.863874835498926
1760515021.4456651,-13.32455873624306,-0.049208396898095454,1.0070951020116319,-0.17211293650492157,24.54750685913149,-10.095544191889719,31.760100761248733
1760515021.4556563,-12.851420185724024,-0.05492606904749761,1.0104219245920942,-0.18830485776871048,23.181603189091064,-6.389668484020961,29.990837609626738
1760515021.4657922,-12.419110406164686,-0.0697867406536201,1.009154421212457,-0.20761820588144356,21.563199487572238,-2.1113495348653792,27.706407484844124
1760515021.4756408,-12.039976287478122,-0.0913763528183878,1.003735205688869,-0.22867769290363538,19.763960589124213,2.2716817465170065,25.081197059072434
1760515021.485613,-11.721305215472784,-0.11674361338111977,0.9947751309975524,-0.25020564943912904,17.865309230276356,6.330369584954804,22.298413579805278
1760515021.4956522,-11.46471654271943,-0.14272718102519294,0.9830262442008985,-0.27105967680700166,15.955205201054056,9.71594729638562,19.535776976089405
1760515021.505619,-11.266120656549838,-0.1662969221844608,0.9693564991882682,-0.29026427690198736,14.123211978099603,12.189587933542521,16.95308684029835
1760515021.5156264,-11.116260991608328,-0.18486850940744037,0.9547219863171021,-0.3070393180230064,12.454121045974357,13.63726804902006,14.682454402213972
1760515021.5256157,-11.001777678293989,-0.196551764017726,0.9401295832968259,-0.3208220644416842,11.020826180680219,14.069198714614584,12.82174498010875
1760515021.5356498,-10.906664106267387,-0.20030359481016552,0.926583809430937,-0.3312778649283914,9.877495359870212,13.605317571670835,11.43142126445059
1760515021.5456524,-10.813944069605725,-0.19597380088639424,0.9150170673673009,-0.33829682270250566,9.05424967811639,12.449975673693054,10.534593588089784
1760515021.5556471,-10.70738169840274,-0.1842500159706455,0.9062101499535321,-0.3419772397736273,8.554396234508095,10.859810312439585,10.119773998931759
1760515021.5656667,-10.573044556820056,-0.16652052775772636,0.9007158489836896,-0.34259890128748194,8.354763540232518,9.108905788279106,10.145652030628195
1760515021.5756218,-10.400565692827069,-0.14467915490644234,0.8987999190657616,-0.34058952430487355,8.409029369089644,7.454997233523582,10.54716298414281
1760515021.5856624,-10.183989377290079,-0.12089746451049349,0.9004104252869933,-0.3364867826852375,8.65337402961556,6.109977864738855,11.242176670841
1760515021.5956428,-9.922134709624086,-0.09738876124508823,0.9051804155091576,-0.33089766575740587,9.013504410309897,5.217446915593603,12.138261127141893
1760515021.6056354,-9.618465881161413,-0.07618609075316998,0.9124624476064893,-0.3244572310370705,9.412080634386218,4.83941058101338,13.139136950621346
1760515021.6156588,-9.28051140457723,-0.05895346212819134,0.9213891824766338,-0.31778958774634536,9.775749428911816,4.9534134955243365,14.15059646630884
1760515021.6256292,-8.918921848326196,-0.04684628973963598,0.9309530450807325,-0.3114743166657351,10.04124680625339,5.460308497268719,15.085782456903216
1760515021.6356452,-8.546291743152155,-0.04043329695383661,0.9400987506114035,-0.3060211513865319,10.160290182401958,6.201644776037577,15.869779129956978
1760515021.6457882,-8.175890929627087,-0.03968652915352614,0.9478230851503043,-0.3018549288590955,10.103161812117014,6.98443124700073,16.443454415050358
1760515021.6556644,-7.820449496507652,-0.04403832038407374,0.9532755457437986,-0.29931189362950933,9.860943546467615,7.6100180534764466,16.766419516659465
1760515021.6656556,-7.491118613278078,-0.05249539652158462,0.9558519100648082,-0.298647030077265,9.446296969252993,7.903222094933755,16.818878495436845
1760515021.6756423,-7.1966925839789075,-0.06379305088374775,0.9552711789957313,-0.3000493949173746,8.89254648853883,7.737730962117446,16.60208720141181
1760515021.6856315,-6.943135583036276,-0.07656846684458331,0.9516241050604249,-0.3036586941790168,8.250716122900737,7.054279033360683,16.137179530372915
1760515021.6956704,-6.733419088953079,-0.0895313532718367,0.9453792510278236,-0.30957364722907826,7.5842174637527355,5.868993552644453,15.462269971924334
1760515021.7056692,-6.567644386075365,-0.10160880461725941,0.9373334629751048,-0.3178432181790118,6.9611841819334055,4.270524214735935,14.627991032155396
1760515021.715652,-6.443395813765184,-0.11203947284232775,0.9285010575584214,-0.3284362277395024,6.445010141885379,2.4061037836669015,13.691930896516032
1760515021.7256482,-6.3562497472469826,-0.1203980321387977,0.9199512766114366,-0.3411934162794388,6.084365050699277,0.4585917826634357,12.712720283285062
1760515021.7357256,-6.300362368572278,-0.1265519917614062,0.9126249080585433,-0.3557782690486562,5.904576668897107,-1.3814646279355725,11.74465249563095
1760515021.745742,-6.269074455106254,-0.13057895190202606,0.9071777583093741,-0.37165214914867684,5.902408643095906,-2.9434530934583694,10.833599173567542
1760515021.755873,-6.25548646223475,-0.13268096729766415,0.9038942786533521,-0.3880943523607363,6.045664694428519,-4.098924153785259,10.01462851430633
1760515021.7656462,-6.252961354949594,-0.13311791342051196,0.9026871240594486,-0.404268485346681,6.277859085685341,-4.775044985937658,9.311312535898848
1760515021.775655,-6.255515281727839,-0.13216251006155827,0.9031677288425056,-0.41931808026841794,6.526937204693211,-4.958226544007776,8.73640116072403
1760515021.785647,-6.258071941198155,-0.130072945571067,0.9047578581349166,-0.43246835444450316,6.7162177975147905,-4.688880207620602,8.293395396496743
1760515021.7956583,-6.25658666730965,-0.12708228128589724,0.9068124086366413,-0.4431149733471892,6.775531063050997,-4.0495068347260235,7.978525787435985
1760515021.8056405,-6.248078588306367,-0.12340651882329705,0.9087301296074485,-0.4508872129863214,6.65081204607226,-3.148842201669109,7.782691799402346
1760515021.815646,-6.2306282473584265,-0.11927063812495381,0.9100361046767951,-0.4556787455563447,6.310947810021453,-2.1047803201353172,7.6930303094893775
1760515021.8256326,-6.2033942096707735,-0.11494567550172534,0.9104273345450747,-0.4576441018331666,5.751282432333161,-1.0284572004737655,7.6939495507959945
1760515021.8356216,-6.166676763521278,-0.11078427919126752,0.9097810145563628,-0.457162914696097,4.993733840615328,-0.011345346333115893,7.767660578387708
1760515021.8456407,-6.122020813597744,-0.10724067361744177,0.9081330884161356,-0.4547775275137033,4.083895136147565,0.8834107280665078,7.89440794560269
1760515021.8556242,-6.072316594636567,-0.10486390236538287,0.9056399703989614,-0.4511124231860982,3.0857457505895183,1.6248252044981255,8.052687298372263
1760515021.8656433,-6.0218347013828355,-0.10425849018896592,0.9025371256682265,-0.4467859348290218,2.0746976234264056,2.2130831653889786,8.219712623592699
1760515021.8756318,-5.976125174909811,-0.10601248960828721,0.8991048285946928,-0.44232570376088365,1.1296995593133485,2.674284634373393,8.372276698072477
1760515021.8856301,-5.9417206655975665,-0.11059885765093075,0.8956459453778266,-0.43809930561195465,0.3250763243762337,3.0518902543084776,8.487981890114932
1760515021.8956535,-5.925610670976816,-0.11826209523868869,0.8924753202334856,-0.4342701367859563,-0.27727834446554445,3.396117949650866,8.54666166103434
1760515021.9058533,-5.934494423830504,-0.12890743346049,0.8899168378930072,-0.43078583000190385,-0.6347974772649293,3.7526888905991718,8.53171556252319
1760515021.9158816,-5.973868749281651,-0.1420137156372455,0.8883028039984581,-0.42740227608716,-0.7297378102513273,4.152370351902764,8.431069437005075
1760515021.925642,-6.047056580628209,-0.15659238877246162,0.887970127948754,-0.4237411156498488,-0.5728680467928361,4.602728497455565,8.237547086190888
1760515021.935633,-6.154321579820758,-0.1712121766587829,0.8892480439662699,-0.4193728510333368,-0.20502080635502354,5.083361373508658,7.948577982959563
1760515021.9456873,-6.292233011183029,-0.18410112897766268,0.892432881427454,-0.41391256602014637,0.3037343798683777,5.5455792854888895,7.565332395121135
1760515021.9556653,-6.453434137752173,-0.19332557462919592,0.8977475930326132,-0.4071122837221895,0.8574464751203317,5.916995727874374,7.091527158581494
1760515021.965663,-6.626924363576122,-0.19703119574978917,0.9052880230517527,-0.3989347000432862,1.340197578704879,6.110797957822892,6.53223996395916
1760515021.9756439,-6.798894115505727,-0.19371758972571576,0.9149638150360528,-0.38959734279932917,1.6244389876065277,6.038663128355919,5.893079432492857
1760515021.9856577,-6.954062576176791,-0.18250695974021008,0.926447565463347,-0.37958199846956314,1.5813719851652912,5.625514373832199,5.179980284385369
1760515021.9958377,-7.077377515233884,-0.16336221700997158,0.9391487752005943,-0.3696085620968322,1.092690588255407,4.823741906844504,4.399750230608657
1760515022.0059521,-7.155860015796874,-0.13721089027812122,0.9522278198014692,-0.3605737395180234,0.06268155860849374,3.6243083463840517,3.5613178533806993
1760515022.0156462,-7.180327873492872,-0.10593898693396155,0.9646598075764043,-0.3534542541851945,-1.5705605859470462,2.062423260759435,2.677440943017147
1760515022.0256646,-7.146719494325998,-0.07223355434531385,0.9753495731161989,-0.3491742229461876,-3.8261039132147423,0.21624129596396338,1.76644976392881
1760515022.035647,-7.056773145218872,-0.039274548699005506,0.9832875118077561,-0.34844048344366985,-6.674490126171071,-1.801728080716052,0.8534417372805487
1760515022.0456848,-6.91790000413971,-0.010305655630597339,0.9877227815957607,-0.35156037080239433,-10.03624750756965,-3.859260622688093,-0.029749176913563765
1760515022.0556436,-6.742222609129874,0.0118523241580196,0.9883194881873919,-0.358272879982852,-13.785104370628352,-5.822343151459946,-0.8464499943668303
1760515022.0656922,-6.544916042951165,0.025251855459640815,0.9852586481907768,-0.3676389271852546,-17.75602739438945,-7.572637728104269,-1.5593131382113254
1760515022.075663,-6.342146554193834,0.029130296165283703,0.9792581657075313,-0.3780377355710879,-21.757831204265628,-9.020758434057768,-2.1366592477509374
1760515022.085648,-6.148996654664879,0.024007151664071764,0.9715028919173561,-0.3872973839724837,-25.589692109707094,-10.112784827982292,-2.5602410802506
1760515022.0956414,-5.977759570446193,0.011548000318816214,0.9634982933368489,-0.3929535315144728,-29.060418607918287,-10.829383029936551,-2.833017929947168
1760515022.1056492,-5.836883332950557,-0.005763760883918252,0.9568747554199928,-0.39259486245446545,-32.00879850117627,-11.179006431066373,-2.9851464182799194
1760515022.1156657,-5.730685330642211,-0.025067189226167744,0.9531729166802979,-0.3842294679002994,-34.32285025486782,-11.188218734643401,-3.0764705270883703
1760515022.1256359,-5.659791672040008,-0.04358485378503043,0.9536388723599478,-0.36659962296021653,-35.95551082081503,-10.892720836524651,-3.1943679969972547
1760515022.1356668,-5.622122778504585,-0.05902428125148855,0.9590557335584334,-0.33938349521883465,-36.93433847820079,-10.331996610469345,-3.4467496878286417
1760515022.1456637,-5.614170146374777,-0.06986285890553195,0.9696334196656841,-0.3032469697164542,-37.36327005033304,-9.548858188360462,-3.9510635307341206
1760515022.1556826,-5.632294011447028,-0.07548755565097988,0.9849697755859961,-0.25974097808223323,-37.415335320618105,-8.593152294115002,-4.821038523629885
1760515022.165657,-5.673810194343812,-0.0761897067531971,1.0040855717062804,-0.21107322747683643,-37.316399199625295,-7.527182156565849,-6.153375757694776
1760515022.175842,-5.737711846646999,-0.07304090103909247,1.0255271152870362,-0.1598096002466496,-37.32130549653073,-6.42955974635399,-8.016530757755952
1760515022.1856496,-5.824966848722995,-0.06769211122563842,1.0475230357610834,-0.10857018228561478,-37.685033606091906,-5.3944934478236135,-10.44318099073648
1760515022.1956658,-5.9384201288893745,-0.06213973782228812,1.0681748859564872,-0.05977455406702027,-38.632434803425106,-4.52485660882429,-13.427136207385137
1760515022.205677,-6.082392645864721,-0.05849138809399118,1.0856557472893398,-0.015467027650960136,-40.33057535425043,-3.919379077575266,-16.92458654386095
1760515022.215658,-6.262095691311968,-0.058748611786654026,1.0983902379979564,0.02277413272318265,-42.86752906264009,-3.656362060398459,-20.85890143614149
1760515022.2256567,-6.482973936128187,-0.06461268751417755,1.1051950646629658,0.053859338738493204,-46.24061003062021,-3.7778134008057194,-25.127816787648715
1760515022.2358768,-6.750067475838572,-0.07731834966033851,1.1053698706861723,0.07716665238189763,-50.35564959992851,-4.278380150874933,-29.611819286907405
1760515022.2457292,-7.067456819283356,-0.09750494951806404,1.0987385824285363,0.09250127288915833,-55.037267059738326,-5.102768252490881,-34.182776584739955
1760515022.2557678,-7.437831745407421,-0.12513567944514367,1.0856467549984121,0.10005528567204325,-60.048487945035625,-6.153622364418278,-38.712190781078505
1760515022.265725,-7.862205282278825,-0.15947079847562748,1.0669200865313095,0.10038030431512676,-65.11678958906883,-7.309410428620035,-43.078703110475665
1760515022.27568,-8.339777749085545,-0.19909646627917083,1.0437870607491526,0.09437432980723412,-69.96282774774788,-8.449191572415696,-47.174585722560664
1760515022.285655,-8.867943861388353,-0.24201088982707272,1.017767881760031,0.08327047505366103,-74.32776856327021,-9.478877933722792,-50.910944246458584
1760515022.2957845,-9.442427876276868,-0.2857705791884031,0.9905332055379912,0.06860595423017998,-77.99539855295073,-10.352412697878602,-54.22126551293641
1760515022.3057015,-10.057525760213723,-0.32769719906827377,0.9637398596620552,0.052150881984936115,-80.80612557917827,-11.081728416286603,-57.0628457713428
1760515022.3157303,-10.706428723990937,-0.36513998258013436,0.9388575421923593,0.03578711017283722,-82.66159062579457,-11.731715228491463,-59.415678622130066
1760515022.3257601,-11.38160006502256,-0.3957796287399465,0.9170103357470913,0.02134138673527805,-83.52055654875605,-12.400586514353467,-61.27875417877881
1760515022.3357897,-12.075176359612314,-0.4179411535268458,0.8988653690557908,0.01039105331668632,-83.38847747296981,-13.191026493258292,-62.664408921994635
1760515022.3457768,-12.77936168344391,-0.4308547812701532,0.8845973821475229,0.00407612782102035,-82.30418550788895,-14.181281545463872,-63.591999570629746
1760515022.35617,-13.486779482373192,-0.4347860107470429,0.8739358147618628,0.002964862952140122,-80.32721169459936,-15.405623888566366,-64.08228850501118
1760515022.3656678,-14.190746559045463,-0.4309772254786922,0.866272889851853,0.007014051902578762,-77.52840465876861,-16.849823939549278,-64.1534700356439
1760515022.3756454,-14.885443256805013,-0.4214037519538791,0.8607984680560639,0.01563264932098573,-73.98498810198085,-18.461430516411912,-63.81915305335603
1760515022.3857765,-15.565971954003057,-0.40840900903546806,0.8566345133145038,0.027819953011368855,-69.77951575955099,-20.169724274502222,-63.08822596120773
1760515022.3956985,-16.22831497186966,-0.39430948065215776,0.8529548823047467,0.04233662842756883,-65.00097982159963,-21.90795867889718,-61.96637659177121
1760515022.4056618,-16.869217185603734,-0.3810503906318733,0.84908335518685,0.05787747686660544,-59.74605809513276,-23.63105031021452,-60.45894863816769
1760515022.4156692,-17.48602706002742,-0.36996879800561855,0.8445639074939092,0.07322728944499149,-54.11908922099779,-25.32434584331971,-58.57468797641205
1760515022.4260037,-18.076532417364483,-0.3616942093045919,0.839196655617041,0.0873855225583161,-48.23032856639631,-27.002261306902344,-56.329790860993356
1760515022.4356728,-18.63882254346812,-0.3561874992144694,0.8330348163007261,0.09964844909758777,-42.192818112856735,-28.698349638427555,-53.75158159402179
1760515022.445787,-19.171196438314645,-0.3528899546488277,0.8263439371987772,0.1096445374296702,-36.118568061136685,-30.450041298766692,-50.88116558761983
1760515022.4556925,-19.672121935266542,-0.3509344595362499,0.8195326080691864,0.11732796003805751,-30.114736700974,-32.281832106989484,-47.77452484021311
1760515022.4657044,-20.140237032876666,-0.3493658948325684,0.8130698598539614,0.122942122448446,-24.280274251960464,-34.19036350196696,-44.50171447821974
1760515022.4757853,-20.57437627418129,-0.34732589211607595,0.807405330943165,0.12696773494515481,-18.70326993118566,-36.13401081291021,-41.1440451066023
1760515022.4856937,-20.973602737090193,-0.34417310951619945,0.8029038602273586,0.13006728924724673,-13.459127734911565,-38.02850821484463,-37.7893864195321
1760515022.4956815,-21.337230753770122,-0.3395303642044634,0.7997994021681969,0.13302994564021026,-8.609630973098383,-39.74899201609849,-34.52600569523328
1760515022.5057437,-21.664835099788593,-0.3332704302820999,0.7981677854565196,0.1367110018520781,-4.202804647827756,-41.137863015023804,-31.435632036717777
1760515022.5157125,-21.956255791459363,-0.32546716643465845,0.7979159013284014,0.14195459177975092,-0.2732504724340528,-42.017229737047444,-28.586647892147777
1760515022.5256817,-22.211618286484192,-0.31634225884584144,0.7987862897223093,0.14949179448072694,3.1575315824620116,-42.20442354185792,-26.028375955243664
1760515022.535777,-22.431391312764724,-0.3062295810158401,0.8003789265607633,0.1598179501087428,6.08124747849946,-41.52907211102351,-23.787295202776995
1760515022.5457513,-22.616496092844073,-0.29556411582870895,0.8021929740160263,0.1730673341861495,8.503389788827686,-39.85034560521565,-21.86569222757028
1760515022.5557642,-22.768462899316823,-0.284887530725526,0.8036872608377719,0.18891488293854491,10.443799083440307,-37.073162506502065,-20.242814700785107
1760515022.5656621,-22.889608772288796,-0.27485320971984556,0.8043502462641039,0.2065388510255947,11.936257575258981,-33.16230402614325,-18.878159899285382
1760515022.5756917,-22.983191042006922,-0.26621310108684043,0.8037645500194146,0.22467067321859518,13.026180385760938,-28.15340629426198,-17.71622202774739
1760515022.5856807,-23.053482121867162,-0.25977688344113564,0.8016535409556462,0.2417378543950499,13.766152277218453,-22.159515836616517,-16.69192153744833
1760515022.595697,-23.105716069653,-0.25634518503829784,0.7979054449045162,0.2560802059329347,14.210147223310226,-15.371423508037893,-15.736042443309099
1760515022.6057036,-23.145876468038555,-0.25662618153212324,0.7925762677328508,0.2662014336963408,14.408118809514525,-8.049868087142398,-14.780220899270967
1760515022.615811,-23.180324665489362,-0.26114721985611855,0.7858736086229623,0.2710118703762267,14.402755200016879,-0.5084579978030512,-13.761268325196594
1760515022.625735,-23.215301294860044,-0.27017294997074004,0.7781226402968567,0.2700201436516148,14.229562548366578,6.91218756391531,-12.62482451827266
1760515022.6356947,-23.2563633444656,-0.2836407459494597,0.7697168133150276,0.2634382405488874,13.920424702901682,13.876554313074955,-11.328481170392658
1760515022.6456764,-23.307834859645016,-0.3011231533656337,0.7610593658907321,0.25217569790516836,13.509727398578718,20.088339769434793,-9.844552398221076
1760515022.6556816,-23.372348996050356,-0.32182624918635805,0.7525048101381676,0.23771462460850476,13.041270862863378,25.32126342329026,-8.162572136356209
1760515022.6656823,-23.450547790341684,-0.3446321198724654,0.7443097121231187,0.22187785212271438,12.573726585054457,29.441250326756958,-6.291366217875868
1760515022.6756883,-23.54098901961745,-0.36819063362036003,0.7366003260989314,0.20652597327082772,12.182499401028764,32.41582063841304,-4.260218844881686
1760515022.6857045,-23.640286692148138,-0.3910576852085265,0.729364285822006,0.1932376468173581,11.956642052610746,34.30891599976367,-2.1183544946444144
1760515022.69569,-23.743480716843056,-0.4118653107293658,0.7224748599343139,0.1830315442044057,11.99088996768207,35.26254694398372,0.06812275440756874
1760515022.7056942,-23.844593521063096,-0.4294978168428334,0.7157551892237131,0.17617656607586782,12.374609448205465,35.4695571630423,2.2224064088671245
1760515022.7157724,-23.93729355392285,-0.4432416326981177,0.7090825169019533,0.17211793523746,13.180828604294398,35.14343673774362,4.266215011360419
1760515022.7256854,-24.015558750915357,-0.45287825123743586,0.7025186553573083,0.16952878962567014,14.458837815417018,34.491018755107085,6.131178137582323
1760515022.735689,-24.074229310524856,-0.4587006966882451,0.6964375372996799,0.16648208469957487,16.232808293207526,33.692365938203004,7.7707326059142
1760515022.7456813,-24.109364006504187,-0.461450874627508,0.6916125125679902,0.16072415318525016,18.50683013111332,32.889881278240075,9.170427474305084
1760515022.75574,-24.11835932326414,-0.46218996295083703,0.6892324677070156,0.1500178834179595,21.274497311898212,32.186304015234434,10.354542026987916
1760515022.7656837,-24.099838296593667,-0.4621213782070484,0.6908344227512039,0.13251189573970115,24.529484266015988,31.649321430174616,11.387427727445388
1760515022.775678,-24.05335261634669,-0.4623886149188186,0.6981600108530006,0.10708571246413061,28.273016066216737,31.319461359219414,12.368889772611238
1760515022.785786,-23.97896439260506,-0.4638748807415177,0.7129563221958081,0.07362126073202858,32.51485680832493,31.217840788091426,13.423988675994263
1760515022.7957644,-23.876785317233438,-0.4670387198365319,0.73674846163875,0.033157293631660846,37.26612580689091,31.351018983418957,14.688585865545024
1760515022.8056905,-23.74655186742322,-0.4718216467201497,0.7706139340357132,-0.012104898846061689,42.5243577187545,31.711363027483586,16.292563470360225
1760515022.815692,-23.587305192035313,-0.47765019613988213,0.8149866302188405,-0.058958377097810044,48.253231183214304,32.272765502211065,18.3428226974022
1760515022.8257027,-23.397224384796697,-0.4835252986886677,0.86951015570641,-0.10350213817644333,54.36094594779225,32.983066048214454,20.90795154108828
1760515022.8356829,-23.173636563608035,-0.4881619197514543,0.9329495590976015,-0.1415787159560395,60.682126385634646,33.75596356061235,24.006017932721818
1760515022.845673,-22.913203803034644,-0.49013451762433613,1.0031621469889005,-0.16929396370774855,66.9682436002519,34.46635805365948,27.596499103124128
1760515022.8559065,-22.612270966573828,-0.48800660030596454,1.0771266973101032,-0.18356602849500916,72.89080280569091,34.95348808939794,31.57704646963017
1760515022.865743,-22.267348689607925,-0.4804538206966249,1.1510385384929203,-0.18264377058955278,78.05993505555365,35.03538597158767,35.78562370955266
1760515022.8756857,-21.875695911891242,-0.4664014592579376,1.2204910429755256,-0.166527345413282,82.05865638819475,34.53584793982482,40.008448903471084
1760515022.885683,-21.435952560764182,-0.4451852084474443,1.2807676677538231,-0.13721560606976851,84.49013073041306,33.32160414555146,43.99398103956557
1760515022.8957002,-20.948757660642723,-0.4167243792192212,1.3272501216467327,-0.09870167884751176,85.03218295701792,31.34332488107047,47.47277832516087
1760515022.9056873,-20.41727672133333,-0.38167997414568194,1.3559133263274916,-0.05665247506114572,83.49064225216428,28.670549379603468,50.18230868877889
1760515022.9156792,-19.847558880601817,-0.34155888984423444,1.3638454782312737,-0.01775486914793267,79.8416233690032,25.5090630283495,51.89471650597723
1760515022.9256754,-19.248650591433357,-0.2987209324107074,1.3497121210172685,0.011210311853773334,74.25336843748731,22.191122284559874,52.444386004496984
1760515022.9356875,-18.632408092150513,-0.2562500796954814,1.3140757082774956,0.02442136284983889,67.0811907018542,19.13463579375142,51.751353819282116
1760515022.945692,-18.01297344849415,-0.21766903029369128,1.259490347561902,0.017997395155131705,58.83398126021192,16.77567625966406,49.83665604952924
1760515022.9556706,-17.405907032112143,-0.1865066845427906,1.1903251561577,-0.009289825005015923,50.11641180547947,15.486868448970506,46.82667248555398
1760515022.9656775,-16.827004820511004,-0.16576723175707153,1.1123267031023532,-0.055722788981852955,41.55584392044994,15.499375007523952,42.94516916208944
1760515022.975984,-16.290878418550513,-0.15739167495754647,1.031988911323503,-0.11683496108412023,33.725895627804675,16.846531257672883,38.49354928568355
1760515022.9858694,-15.809443361445096,-0.16183722447978272,0.9558325978642782,-0.18608041912225692,27.079151912131074,19.34257496960961,33.82137365345262
1760515022.9957056,-15.390534051784346,-0.17790327478810503,0.8897004450000905,-0.2558692025537662,21.899656226828945,22.601886383211333,29.290320299255914
1760515023.0056868,-15.03690601207693,-0.20288358185684102,0.8381583368160065,-0.3187799261724767,18.281954049412686,26.095050003814197,25.235515611631516
1760515023.0156858,-14.745859186340336,-0.2330313861805226,0.8040729978097626,-0.36871399663935234,16.13840117134608,29.230238616979424,21.928767412733006
1760515023.0257642,-14.509608044956563,-0.2642251957794878,0.788411528652205,-0.4017661206758329,15.231384177995011,31.44369295967211,19.548612573636966
1760515023.035705,-14.316362961524442,-0.2926598351578104,0.7902781576777019,-0.41665526191926877,15.22315162650967,32.28233138442533,18.1618814643249
1760515023.0456927,-14.151926124390254,-0.31538705037524467,0.8071684955350835,-0.4146655024574175,15.733816752957313,31.4646223103494,17.720245770602098
1760515023.0557513,-14.001496746317658,-0.33059231328327643,0.8353901674851106,-0.399153381423225,16.39791848127618,28.911605751882224,18.072858228664895
1760515023.0656898,-13.851355199768344,-0.33758950078993616,0.8705800562398441,-0.37475926974371915,16.911394968305924,24.74657068671618,18.993170017023054
1760515023.0757368,-13.690156428885471,-0.3366011181273515,0.9082442205476577,-0.3465021568306037,17.063360652601922,19.26768932746017,20.21519334514256
1760515023.085973,-13.50968746634089,-0.3284404149524598,0.9442526246980457,-0.31893945955474395,16.750108591487233,12.901761233035238,21.472715975203634
1760515023.09599,-13.305090262458458,-0.3142150115271891,0.9752342904288396,-0.2955410662226996,15.971781117347492,6.148661980898952,22.534722026850243
1760515023.105677,-13.074668982443642,-0.29513531692044115,0.9988384943430262,-0.278367461817407,14.814694272949685,-0.47476427115569214,23.231485831398857
1760515023.115758,-12.819453947565792,-0.27245136691683247,1.013850023980323,-0.2680678809446168,13.423986575128287,-6.48508677284861,23.468073012487352
1760515023.1257083,-12.54267812369521,-0.24748151714735758,1.0201636974632005,-0.26414238134109636,11.971946318379176,-11.473553869334735,23.224698299472788
1760515023.1357353,-12.249261247560328,-0.2216577451042966,1.0186323130970851,-0.2653584093489719,10.627185225237449,-15.13698314624277,22.545912939088712
1760515023.1456935,-11.945326966913992,-0.19651196348078973,1.0108104746066522,-0.2701932125336539,9.529026784673414,-17.297809529908175,21.5224014076348
1760515023.1556914,-11.63772977124176,-0.1735685072511034,0.9986334264644491,-0.2771950833864014,8.770235114949095,-17.912672356670324,20.26992782106421
1760515023.1657298,-11.33355507617875,-0.1541657118413038,0.9840890529176467,-0.28520606214954636,8.389579350661352,-17.068878076644918,18.909609822222134
1760515023.1757178,-11.039572393913062,-0.13926566776092547,0.9689443277254972,-0.2934397893266991,8.373877219490149,-14.96892287826364,17.552456940085463
1760515023.1857064,-10.761652148103215,-0.12930946169889737,0.9545675955256248,-0.3014425127282807,8.667522351747346,-11.904824347419021,16.289497494807513
1760515023.1957226,-10.504187922896449,-0.12415159710161569,0.9418575090298036,-0.30898186802095834,9.186537208366781,-8.225490178399571,15.187355861309795
1760515023.2058077,-10.26959027812149,-0.12308317076033454,0.9312640195163118,-0.3159120545127503,9.834054370678565,-4.301146980639097,14.288153376532998
1760515023.2157347,-10.057929951027507,-0.12493592425765604,0.922872579427681,-0.3220580622971045,10.51461483263718,-0.4888873729981505,13.612178990500283
1760515023.2257965,-9.866802451552902,-0.12824726904178885,0.9165186215773463,-0.32714781584471087,11.145474764219147,2.897148012186674,13.161830798081933
1760515023.2356896,-9.691461904870222,-0.13145895306912966,0.9119028593567373,-0.3308035138489036,11.663991845581421,5.608376702056935,12.925694779666566
1760515023.245873,-9.525234017380695,-0.13311939320100916,0.9086861333152694,-0.3325869483368198,12.030966834239909,7.475776858255157,12.882107123295583
1760515023.2557855,-9.360174642834082,-0.13206170236710724,0.906552408159695,-0.33208215299463295,12.23044402622419,8.415132811938387,13.001985213768728
1760515023.2658317,-9.187901321102023,-0.12753540181012823,0.9052378017964468,-0.32899406683465626,12.266859830274447,8.424446329524029,13.251020166943034
1760515023.2759752,-9.000498693679068,-0.11927850891999478,0.9045309172761123,-0.3232427858296222,12.160555975241298,7.575179733166723,13.591471545612656
1760515023.2860076,-8.79138972945716,-0.10752644599743214,0.9042544538313865,-0.31503636285312353,11.942587906332381,5.999316843366884,13.98381099585924
1760515023.295687,-8.55607351041995,-0.09296312843403824,0.9042395546625068,-0.3049085993440168,11.64954868364101,3.874113752697833,14.388377071746971
1760515023.3057072,-8.292652690571808,-0.07662595378396152,0.904302867565495,-0.29371155404642213,11.318889415181648,1.4059555189564072,14.76708796968809
1760515023.3158934,-8.002102693239822,-0.05977937864091153,0.9042331256275785,-0.28255673689121175,10.985014979546703,-1.1858631037039866,15.085156642208087
1760515023.3257332,-7.688263948307706,-0.04377200535640595,0.9037907731229355,-0.27270557416334096,10.676293004641812,-3.6851019656831223,15.312685755859219
1760515023.3357687,-7.357564856638507,-0.029891465732395893,0.9027220359076787,-0.26541982076769993,10.413033239881377,-5.894116292629113,15.425996371591577
1760515023.345687,-7.018506488892963,-0.019231495445619643,0.9007884740477425,-0.26179592397476736,10.206471666098254,-7.648543838106291,15.408567503669873
1760515023.3557777,-6.680961224060427,-0.012586316438230936,0.8978130501892408,-0.2626194083776476,10.058825415737495,-8.83009971523202,15.25152449120925
1760515023.3657053,-6.355356559966788,-0.01038631606124026,0.8937401205142691,-0.2682759901447613,9.964516948224327,-9.375803344759921,14.953677466148132
1760515023.375691,-6.051828367253529,-0.012682662481950904,0.8886972647076758,-0.2787378788866907,9.912568284853036,-9.281803795706553,14.521140412317653
1760515023.3857007,-5.779427793242734,-0.019176817553433104,0.8830364238591754,-0.29361453354421296,9.889840040660992,-8.600642635081376,13.96656323059568
1760515023.3956876,-5.545449846029361,-0.029279649991507214,0.8773292461811215,-0.3122362818928991,9.88433978775716,-7.432114758961601,13.30802584962281
1760515023.405784,-5.354926527517321,-0.04218120859104894,0.8723006354906859,-0.33373770806935626,9.887542908109385,-5.909238043849269,12.5676943671184
1760515023.415944,-5.210305151881676,-0.0569178528609691,0.8687023546031546,-0.35712115162592245,9.894815580898593,-4.181669915581175,11.77039857744015
1760515023.4256797,-5.111319884595517,-0.07243391084023783,0.8671508487845091,-0.3812997299311453,9.903652196993239,-2.399042340873501,10.942312734106515
1760515023.4356923,-5.055059841505077,-0.0876439837142799,0.8679740748957387,-0.4051358743237854,9.910343572292627,-0.6962740824375341,10.109875160578172
1760515023.4456923,-5.036233085587357,-0.10150394145053211,0.8711182810105769,-0.4274960343611561,9.90646376637005,0.8177426917841005,9.298974127571324
1760515023.4557114,-5.047614865524521,-0.1130917643824811,0.8761465080832748,-0.44732969743051465,9.87673990801213,2.067311688884204,8.534308919935478
1760515023.4657516,-5.080648332364323,-0.12168869589917493,0.8823250345961713,-0.4637606768968259,9.79930865304624,3.012667055182699,7.83877037065939
1760515023.4757903,-5.126143111425554,-0.12684515762196855,0.8887662138295274,-0.47616813637101735,9.648414654692584,3.6483894056454855,7.232699673907181
1760515023.4857032,-5.175002085735041,-0.12841833014987805,0.8945888191363438,-0.48423973362717376,9.39879973852776,3.9980684724162057,6.732951046089713
1760515023.4958496,-5.218906231496708,-0.12657587499863235,0.89906294131118,-0.487990455654641,9.030651820418482,4.106271161730664,6.351764758926168
1760515023.5057113,-5.250899599920701,-0.12176754129703053,0.9017155373297804,-0.4877486359391755,8.533999015155203,4.029283348911903,6.0955391020036895
1760515023.515809,-5.2658344437381635,-0.11467078561563265,0.902382531762749,-0.4841136055420261,7.911690001884886,3.8262492083590764,5.963670017044924
1760515023.5257645,-5.2606540430960225,-0.10611861982194741,0.9012045900536849,-0.4778901544196055,7.180462468320855,3.552136295382062,5.947687533304474
1760515023.535703,-5.234505951398663,-0.09701887070281068,0.8985748015349444,-0.4700058477609533,6.369980755248401,3.253445986814095,6.030934479052888
1760515023.5458727,-5.188691015450462,-0.08827395566522649,0.8950545814271944,-0.4614187168518277,5.520062575075814,2.966915143479153,6.188995351089121
1760515023.55575,-5.1264630217512535,-0.08070868614692477,0.8912771982240685,-0.45302409941011335,4.6765701553689825,2.7207945151249184,6.390996983403913
1760515023.5657744,-5.0526992566396185,-0.07501067035046793,0.8878564661450153,-0.44556980138058194,3.8865862325129625,2.537786412576111,6.60177809468193
1760515023.5757036,-4.973464156383016,-0.07168471898506792,0.8853129714162343,-0.43958835499766913,3.1935229836337107,2.438464997518118,6.78477593286879
1760515023.5858388,-4.89548962380944,-0.07102079468228442,0.884024145889779,-0.43535398112017915,2.632739432639373,2.444014524225644,6.905330193767128
1760515023.595712,-4.825600146482936,-0.07307516041419375,0.8841995429743894,-0.4328696937512678,2.2281044458232366,2.577375596605403,6.933994196780447
1760515023.6058152,-4.7701185589951,-0.07766536512528133,0.8858796407033392,-0.43188679593880985,1.9897767342574086,2.8623152418918094,6.849404338213518
1760515023.6159987,-4.734294697826649,-0.08437984810483556,0.8889549568680307,-0.43195489487512495,1.9133155894178613,3.320438774796285,6.640302407466473
1760515023.6256843,-4.721800399595061,-0.09260208138655365,0.8932009714205312,-0.43249577367806197,1.9801102748360302,3.9666422563398918,6.306419360829413
1760515023.6356964,-4.734330713819335,-0.10154845679195737,0.8983226474041482,-0.43289033076678657,2.1590246631499497,4.803878495171922,5.858089434307865
1760515023.6457288,-4.77134524890521,-0.11031900444881315,0.9040009004776288,-0.4325663881217219,2.4090794550777335,5.818316637520763,5.31464224245426
1760515023.6557696,-4.829976322822552,-0.11795987001429811,0.9099331004808661,-0.4310772120534671,2.682915793175043,6.975987341106666,4.701791985687258
1760515023.665827,-4.905122090541196,-0.1235358610942153,0.9158607529718319,-0.42816453753818834,2.930696733912689,8.221829042264872,4.048386929214151
1760515023.6757226,-4.989733558777948,-0.1262105495306428,0.9215797395549842,-0.4238032548732043,3.104029455717063,9.481724591440331,3.3829819681985245
1760515023.6857011,-5.07529484217376,-0.12533051845411794,0.9269317227502782,-0.41822613585236246,3.159469179935368,10.667695949190062,2.7307381917824043
1760515023.6957002,-5.15248502551574,-0.12050887641635492,0.9317790210215761,-0.4119261371876239,3.061223886951335,11.685958297331222,2.1111280334683324
1760515023.705798,-5.211994931481579,-0.11170064096580526,0.9359687152959496,-0.4056323762118614,2.782820632386156,12.447068819704599,1.536827610699527
1760515023.7157202,-5.245450707217197,-0.09925932413079654,0.93929481048574,-0.40025581070725486,2.3076971172896807,12.87698353812469,1.0140052335296403
1760515023.7257016,-5.246367898166254,-0.08396090717674892,0.9414703376816509,-0.3968031895599298,1.6288978292219376,12.927499622055551,0.5439783420930997
1760515023.735699,-5.21102658406258,-0.06697945999391544,0.9421238267107812,-0.3962623120542172,0.7482177742295207,12.584362324586381,0.12594741206758994
1760515023.7457287,-5.139127219241471,-0.04979978893310626,0.9408340810747331,-0.39946606188668315,-0.32480169198461695,11.871340604876691,-0.23972512764994142
1760515023.7557335,-5.034072689872756,-0.03405962836362657,0.9372103690700045,-0.40694604288006303,-1.5736693753349318,10.848939570152956,-0.5483955557504027
1760515023.7657855,-4.902744510351471,-0.021329296626000957,0.9310108376353954,-0.4187902642633168,-2.975315621502967,9.607214036947548,-0.7889536669142753
1760515023.775706,-4.754713714387004,-0.012858430731132159,0.9222735810258765,-0.4345251131837713,-4.500034953241062,8.25334858422081,-0.9432804617747713
1760515023.7857392,-4.600943126287018,-0.009339256578567604,0.9114206032786161,-0.4530486401657065,-6.111280276366339,6.896041191826446,-0.9878236415345901
1760515023.795926,-4.452165849257537,-0.01074308067335821,0.8992941721192358,-0.4726445905798309,-7.7658838674025725,5.629842010337752,-0.8973571469418914
1760515023.8058615,-4.317222134391818,-0.016275591618604545,0.887101468682758,-0.49109904333798193,-9.41543782317995,4.522981131787283,-0.6504656044800241
1760515023.8157406,-4.201671128112801,-0.024471202841598483,0.8762711529384718,-0.5059234010276178,-11.009430244387337,3.6115646174838516,-0.2357901906277673
1760515023.8257232,-4.106956423061578,-0.033417097208772055,0.8682520322900152,-0.5146637695559658,-12.500273903712007,2.901386391304652,0.3422419077412105
1760515023.8357139,-4.030305148450553,-0.04107171778099433,0.8642984270808685,-0.5152541300032419,-13.849720122371721,2.376478170403607,1.059494138331465
1760515023.84574,-3.965399604687931,-0.045623143106121276,0.8652860763138204,-0.5063547952895767,-15.035548102623402,2.0116297234206635,1.8709971127185492
1760515023.8557737,-3.903705048879424,-0.045822004852084916,0.8715909581165474,-0.48761296210010513,-16.057069916370203,1.785098805004516,2.713095686097601
1760515023.8657472,-3.8362008008251576,-0.04122476016153778,0.8830472917180067,-0.45979138770639,-16.9380279531617,1.6878857951110433,3.508705745595208
1760515023.8757463,-3.7551787776009027,-0.03229870344992267,0.8989845305893299,-0.4247332221061165,-17.72590134673589,1.7271433915322412,4.174906086711571
1760515023.8857474,-3.6557672460617927,-0.02036812420832269,0.9183297090914223,-0.38516051283571473,-18.487358472456336,1.9230608503830022,4.631614155658244
1760515023.8958633,-3.536910472423852,-0.007414535379495921,0.9397534983503012,-0.3443337970388284,-19.300381490185465,2.3002992088918846,4.809856410351434
1760515023.9058661,-3.4016667080867866,0.004226510379033085,0.9618356466017313,-0.3056242918055624,-20.244244235976467,2.876263246980435,4.658205121637834
1760515023.9160016,-3.256839367313414,0.012212667694992073,0.983226269704664,-0.27206413978999194,-21.388922045824504,3.6489682613993324,4.146306628888358
1760515023.9257207,-3.1120843677273307,0.01452741708638953,1.0027824224965864,-0.24594204164795766,-22.785610013368387,4.587079188168091,3.26499578071083
1760515023.9357302,-2.978707769948638,0.009753908785368751,1.0196640944248578,-0.22850265283610297,-24.459848143541574,5.624117171893388,2.0231538446322315
1760515023.9458187,-2.868377993097294,-0.002736601894698079,1.033379961717699,-0.2197919521511731,-26.408356704689954,6.658092310748309,0.442074341692697
1760515023.9557335,-2.791946031061583,-0.022696752726916493,1.0437808152039774,-0.21867064303785747,-28.60013498306484,7.557053484789032,-1.451477642039864
1760515023.9657123,-2.7585179266830755,-0.04902387181567253,1.0510074561008769,-0.22299431013433074,-30.98173967671814,8.170250266967988,-3.6321554218651584
1760515023.9757545,-2.7748671852086093,-0.079889038148524,1.0554085872860048,-0.22993265712770156,-33.48603500615092,8.343783597343899,-6.081580189155888
1760515023.9857159,-2.8452139236366962,-0.11295921047137544,1.0574492510866689,-0.23637481018587855,-36.04319954690725,7.938889268720773,-8.791520677146138
1760515023.9957187,-2.971338197695104,-0.1456811664533622,1.057628018548691,-0.23935186411836507,-38.59243524862419,6.850534941872947,-11.764084291981726
1760515024.005808,-3.1529481324318698,-0.175585372368254,1.0564118973627394,-0.23640760313010478,-41.09266553075877,5.023947042393703,-15.008834032100326
1760515024.0161703,-3.3881988217437464,-0.20056591947607644,1.0541876027983206,-0.22586248346645876,-43.53056336038601,2.466976508717311,-18.53734928381829
1760515024.0257156,-3.6742577802417418,-0.21909994155735305,1.051223508700799,-0.20694029304637432,-45.924548124530844,-0.7433278403167208,-22.356294633505428
1760515024.0358253,-4.007832207464658,-0.23038583261508724,1.047641001643344,-0.17975762162882375,-48.323910119283674,-4.461113205374791,-26.460376101294955
1760515024.0457416,-4.385603345148943,-0.23439802883829486,1.043402545042936,-0.14520606736091107,-50.80288381530804,-8.479822564889096,-30.82654357229922
1760515024.0557306,-4.804543234640876,-0.23186689535454125,1.0383279650764614,-0.10477456502801887,-53.450181465330786,-12.54820567867752,-35.41046999728581
1760515024.06619,-5.262110804341887,-0.22419180495866475,1.0321458884691153,-0.06035784726388323,-56.35509490864651,-16.39367077328169,-40.145821689158296
1760515024.0757658,-5.7563344042642495,-0.21329122578784562,1.024576860508266,-0.014081240095950251,-59.59169250234762,-19.751315175858075,-44.946276212332315
1760515024.085724,-6.285789658568328,-0.20139486359011366,1.0154335615335501,0.03184802900241974,-63.202881764124285,-22.39565226392313,-49.70979514214349
1760515024.095788,-6.849481179561972,-0.19079198477642453,1.004714536247151,0.07526864955687047,-67.18623199908932,-24.170765559399882,-54.324427137782926
1760515024.1057193,-7.446639629085364,-0.18356295034464631,0.9926629344066275,0.1141850858770703,-71.4834601354989,-25.013756508263654,-58.674905801202634
1760515024.1157293,-8.0764534361454,-0.18133181294170111,0.9797643117372178,0.14688991430936257,-75.97529262183048,-24.966355599314095,-62.64943967703087
1760515024.1258545,-8.737765601882913,-0.1850820155248517,0.966671120321718,0.17208829637364978,-80.4829461975332,-24.170843673589108,-66.14628595160247
1760515024.1360033,-9.428777559645733,-0.195072309400237,0.954066064445107,0.18900949998619648,-84.77675976978487,-22.849174462506944,-69.07987881471246
1760515024.145728,-10.146809667442383,-0.21087156572245278,0.9425040313205126,0.19748006394148224,-88.59170906117743,-21.268121485270395,-71.38635849312153
1760515024.1557755,-10.888164790311775,-0.23149461356165107,0.9322866148936223,0.1979375401249185,-91.64877094086124,-19.69734501292045,-73.02823586848123
1760515024.165806,-11.648123291169165,-0.2555820560792253,0.9234103943941403,0.1913825570378353,-93.6803815853917,-18.369768288525172,-73.9976394441919
1760515024.1758425,-12.421071282500582,-0.2815635024083089,0.9155949690248929,0.17928232033888003,-94.4575149621994,-17.4531419663809,-74.31730658524319
1760515024.1857212,-13.200743017291977,-0.3077875032812013,0.9083636350759313,0.16343567767175368,-93.81524723702397,-17.03817979952696,-74.03847744443185
1760515024.1960073,-13.98054796911296,-0.33264611380961384,0.9011396991934333,0.14580063998256537,-91.67324634348917,-17.143652264633015,-73.23529426942747
1760515024.20577,-14.753945800064505,-0.3547180602074356,0.8933339073313816,0.12829320021568671,-88.0477222843777,-17.734242051309803,-71.9961180940962
1760515024.2157974,-15.514821770372613,-0.3729133286136666,0.8844171529741865,0.11259042144457938,-83.05232408021747,-18.744203954441,-70.41303725111622
1760515024.2258027,-16.257807155896906,-0.38657421912675827,0.8739830694186312,0.0999838734251435,-76.88736910972055,-20.09950003411151,-68.57137655739135
1760515024.2359817,-16.978495165215598,-0.3955006063089855,0.8618029497325,0.09131299079368212,-69.81914574554709,-21.73283273556833,-66.54101689132301
1760515024.2458081,-17.67352571993446,-0.39990337769012335,0.8478665270425603,0.08697455895650831,-62.15289629764486,-23.588994235046382,-64.3708892845157
1760515024.2557216,-18.340543671617304,-0.40031766545733205,0.8323967689895124,0.08698080115075943,-54.20377891453545,-25.62112431186486,-62.087349365858714
1760515024.265796,-18.97806175429604,-0.3975109305770576,0.8158304049409777,0.09103608088708434,-46.26967324038495,-27.780955831723496,-59.69643944120485
1760515024.275731,-19.585272456069006,-0.39240506669669717,0.7987655907726573,0.09861422602479587,-38.60866894398466,-30.007396425673424,-57.18938316632976
1760515024.2857308,-20.16184933509829,-0.3860097379112206,0.7818877830530712,0.10903305563648417,-31.42297986108828,-32.21766650708568,-54.55010724401173
1760515024.2957284,-20.707762616268894,-0.37934951696310554,0.7658901046360502,0.1215310991141294,-24.850124918877526,-34.30390084331129,-51.76326410342179
1760515024.3057413,-21.223115823073154,-0.3733687775973498,0.751403606287387,0.13534996308247413,-18.961508467362687,-36.136201553656385,-48.821240455189006
1760515024.3157265,-21.70799953651694,-0.3688149490935345,0.7389468466764681,0.14981664368803516,-13.767879242342891,-37.57131441103431,-45.72899403231951
1760515024.325734,-22.162360103218273,-0.36612229229246124,0.7288963735480042,0.1644103859363876,-9.230474588579957,-38.464921008829116,-42.50616739029936
1760515024.3357291,-22.58589320157432,-0.3653317327836927,0.721473789847862,0.1787955760062291,-5.276030024864497,-38.685189480439824,-39.18658126196786
1760515024.345718,-22.977987174994073,-0.3660799961838142,0.7167430519648368,0.19280824442969255,-1.8133986562941493,-38.12556634670005,-35.81568633585954
1760515024.3557599,-23.33775036872781,-0.3676747642223908,0.71461275223238,0.20639628278598166,1.2505507998441896,-36.71545685123794,-32.446742270853214
1760515024.3657322,-23.664154566565564,-0.3692494033891671,0.7148404259563836,0.21952703155638928,3.9976897482016382,-34.4280359747289,-29.136446336778604
1760515024.3757415,-23.95631125548564,-0.3699693739143425,0.7170380638251354,0.2320860358303764,6.489169865194123,-31.28475005821432,-25.9405690545163
1760515024.3858411,-24.213870321126237,-0.36924825807918293,0.7206803304112649,0.24379518268880465,8.759974070226239,-27.356170920108642,-22.90996090007045
1760515024.3957973,-24.43749597886365,-0.36692699607843343,0.7251206714280329,0.254175803099254,10.8170863945628,-22.758948814650125,-20.0871266291636
1760515024.4059255,-24.629339135933677,-0.36337569993926633,0.7296243244251793,0.2625721967436034,12.640801305937531,-17.648786029442295,-17.503463087362277
1760515024.4158063,-24.793398263029378,-0.35949140238409816,0.7334263857872898,0.2682357038717241,14.189053666669565,-12.209581127339765,-15.177232287059502
1760515024.4257958,-24.935652591736762,-0.3565841134575997,0.7358147887228474,0.2704536022589953,15.405043951659538,-6.639189351944865,-13.11235765832569
1760515024.435758,-25.06387104305999,-0.3561649424625483,0.7362268846200424,0.26869463843293107,16.228372630419194,-1.132775525605307,-11.29815280849495
1760515024.4457166,-25.18705124745293,-0.35967097159359057,0.7343411501524355,0.2627360661097888,16.609182166840213,4.134424376052434,-9.710120154371372
1760515024.455742,-25.314519139847096,-0.3681776403391506,0.7301441077905573,0.2527380987702089,16.52364539787353,9.0222331873953,-8.311981793395015
1760515024.465747,-25.454804451552814,-0.3821561616754622,0.7239549838387129,0.23924339559933527,15.98800074285307,13.43542633812074,-7.059060361069087
1760515024.475837,-25.61447823636316,-0.401328297999259,0.7163965475106089,0.22310105655381443,15.067724344218746,17.325737455617574,-5.90293374128562
1760515024.4857419,-25.797172656226717,-0.4246528093020591,0.7083110696718073,0.20533909004471004,13.878745815220475,20.684886586144945,-4.796940603058828
1760515024.4957292,-26.00298524161721,-0.4504493312842983,0.7006345062258994,0.18702384647168338,12.579026977701234,23.529948271220622,-3.701723835627385
1760515024.5057588,-26.228398109749993,-0.47663368292787933,0.6942547788510579,0.16914172917602394,11.351120147717353,25.884845698399243,-2.589749069879045
1760515024.5157409,-26.466732224452887,-0.5010134509787144,0.6898843909292864,0.15252230093186428,10.378822432584151,27.763195123618683,-1.4477902652238877
1760515024.5257494,-26.709038010977327,-0.5215817215459853,0.6879710406013331,0.13780413520198048,9.822796424661533,29.15738261720514,-0.27677963373405473
1760515024.5357542,-26.94523374738238,-0.5367530559652954,0.688657557767949,0.12543259659482245,9.80032669099597,30.036772260543184,0.9109432080803336
1760515024.5457346,-27.165269714319916,-0.5455063303447352,0.6917915655770653,0.11567308795140345,10.373169055110624,30.355219853691175,2.0963096785556
1760515024.555774,-27.360122659509646,-0.5474254042603767,0.6969777110428427,0.10862352843169269,11.545287576912632,30.06563449084185,3.2590483134085235
1760515024.5657356,-27.52249300186869,-0.5426517183155286,0.7036595828879838,0.10421524071396265,13.269977916125395,29.137836991623864,4.382926747991511
1760515024.5758476,-27.647159441883552,-0.5317779804211087,0.7112155396691325,0.1021994865145207,15.464127832947062,27.575547036520767,5.459851444795618
1760515024.5859616,-27.73101872742137,-0.5157176975615676,0.7190551450271488,0.10212394073998474,18.026467535999487,25.428825157000794,6.492424625761218
1760515024.5957367,-27.77288626927402,-0.4955814307719734,0.7267090471436302,0.10330812927082132,20.856525720688023,22.799453362005607,7.495020124059147
1760515024.605754,-27.77314981440948,-0.47257979975906594,0.733909767661656,0.10483065591459498,23.871364004280988,19.83825120880918,8.493746019634141
1760515024.6157427,-27.73335836426658,-0.4479613769147651,0.740661740362114,0.10554382607456261,27.017777312579067,16.734810990080515,9.52572429555349
1760515024.6258492,-27.655804967067418,-0.42298654566028604,0.7472979758486907,0.10412972295791166,30.278390324951545,13.701304998663419,10.637966770719641
1760515024.63596,-27.54313862846579,-0.39893583396642673,0.7545188335202271,0.09920424441159516,33.670911731513506,10.9527822494256,11.885878859168876
1760515024.645737,-27.398024633903294,-0.3771439239753169,0.7634032630827018,0.08946695131873758,37.240700894242124,8.686686798777938,13.33118057708837
1760515024.6557646,-27.222862516558212,-0.35903004078488393,0.7753741954567837,0.07389129195364995,41.04764579368304,7.064115235227811,15.038845393003347
1760515024.6657376,-27.019562084799606,-0.3460724733825323,0.7920944341626902,0.05194884648844618,45.1489893886305,6.194699756709539,17.072569511279465
1760515024.675793,-26.78937067338072,-0.3396772510597003,0.815277308873368,0.02385067318300216,49.580102471006484,6.1262944174311595,19.488365146395893
1760515024.6857483,-26.532744065269185,-0.34093125979282174,0.8464189205625158,-0.009236482360659657,54.335354897856995,6.840077037161734,22.326163745330476
1760515024.6957684,-26.249262129118623,-0.3502880477077596,0.8864855553410823,-0.0450694741619041,59.351313181257524,8.251243357850521,25.599810418197578
1760515024.705768,-25.93760554257414,-0.3672778362230567,0.9356085649746834,-0.08038448048002667,64.49456186743608,10.215167707497372,29.28646290354396
1760515024.7157953,-25.595624826059336,-0.39034139895810244,0.9928446707722602,-0.11118887806251168,69.5564669332484,12.538803009222631,33.31703682641285
1760515024.725911,-25.220537818072483,-0.4168568171837597,1.0560527504299593,-0.1332957054780892,74.25703349703953,14.997080862651524,37.56976730045915
1760515024.7361636,-24.80928096763037,-0.4433738389770782,1.1219220663494516,-0.14303767112992238,78.259496254779,17.353848259406803,41.869000735400775
1760515024.745825,-24.359016251725393,-0.4660204377613969,1.1861672970715773,-0.13803676789629668,81.19633179100819,19.386243103962414,45.99090325676198
1760515024.7557406,-23.8677668308998,-0.4810170854477384,1.2438864348066132,-0.1178718395183686,82.70598734896105,20.91044653494991,49.67692736190686
1760515024.7657366,-23.33512649289013,-0.48522124428536983,1.2900575413767625,-0.08448513582345682,82.47775230160069,21.805703477789454,52.654761832269664
1760515024.7757535,-22.76296324846727,-0.4766179704011989,1.3201277872821497,-0.04219977879068777,80.29986898892562,22.0326875819606,54.665261992556346
1760515024.7860227,-22.156018885108185,-0.45467548989895884,1.3306243868812038,0.0027151338452445213,76.10357227903464,21.64213804687319,55.49267564551114
1760515024.795776,-21.522297743037807,-0.4205059264014775,1.3196953311855093,0.0429002443148943,69.99423936171613,20.770608236199127,54.99450992453917
1760515024.8057575,-20.873142048336955,-0.3768056227969254,1.287476027218435,0.07104834191000149,62.26141260056913,19.622095275953427,53.12680644113822
1760515024.8157535,-20.222907049073967,-0.3275785903975725,1.2361911828758483,0.08112423355651438,53.36264739501079,18.436819689392244,49.96060945843169
1760515024.8257527,-19.588175487617786,-0.2776632761575486,1.1699502699225381,0.06943013472748208,43.88123296306757,17.45110285957131,45.68620345206289
1760515024.8359573,-18.986490837836662,-0.23209906086765236,1.0942673299954233,0.03531406896689273,34.463316603908154,16.854836101160416,40.60328025094779
1760515024.8457556,-18.434652023836588,-0.19539916091281975,1.0153991123810144,-0.018616881362797186,25.744329278892568,16.75478356246717,35.097293328844145
1760515024.8558292,-17.946708078266802,-0.17083983354146617,0.9396230596872704,-0.08683324788617244,18.276813310173058,17.151897143293663,29.604332766664193
1760515024.8657496,-17.531910321517792,-0.15990948975635866,0.87256738530908,-0.16172833403637457,12.47128667343673,17.938327315113007,24.568414869636822
1760515024.8757653,-17.192981728271167,-0.1620538844018024,0.8186765404244505,-0.23482785598944336,8.558819991901323,18.91541531713454,20.395987218620814
1760515024.8857872,-16.925090947320804,-0.174792412487887,0.7808627160279554,-0.29813321962975947,6.579423517625432,19.829177775307624,17.412861338257485
1760515024.895779,-16.71583724405506,-0.19418786877665253,0.7603630943139055,-0.3453314713981898,6.395403414256258,20.41620137430365,15.828777834173811
1760515024.905815,-16.546376338905734,-0.21556727794279157,0.7567932697258631,-0.37264264534705943,7.724769136786102,20.451206699193968,15.714203672405562
1760515024.916009,-16.393595555731384,-0.2343414856228083,0.7683622845226015,-0.37917517894347386,10.18734048079404,19.787736960224436,16.992583556597637
1760515024.925795,-16.23303602143889,-0.24676115556659567,0.7921999252268613,-0.3667816103092722,13.355558195003619,18.385048808424074,19.449252947360744
1760515024.9357672,-16.042108026234626,-0.25047199451093255,0.8247445850862759,-0.33950805451960453,16.802796878298366,16.316916853290596,22.755968068897676
1760515024.9457827,-15.803089683425132,-0.2447858980363592,0.8621456977474193,-0.3027902245669813,20.143696009060122,13.761309330608555,26.507923411429648
1760515024.9557776,-15.505451519886117,-0.23065311464654734,0.9006423315300124,-0.26256454116807526,23.063180304710592,10.973215434598385,30.268507950750706
1760515024.9657927,-15.147187848621591,-0.21038074667350243,0.9368863435814536,-0.2244440913907113,25.333030394366762,8.245688667292251,33.616127423523444
1760515024.9757516,-14.735011492178325,-0.1871767771108815,0.9681854311987361,-0.1930681792743279,26.81676775755306,5.865920203640168,36.187352172164665
1760515024.985961,-14.283434569024601,-0.16460486402022406,0.9926503797625718,-0.17168407017422158,27.46499636902303,4.07361956326553,37.711461471514625
1760515024.9959533,-13.81288898169383,-0.14602614561668523,1.009242407497831,-0.1619719978777668,27.304058149491045,3.0281592709448715,38.032970138697124
1760515025.0059042,-13.347133219667898,-0.13409406883747593,1.017729492015385,-0.16408745376657105,26.420899135742296,2.789081580555535,37.12057833025965
1760515025.0157626,-12.910254872509096,-0.1303609749851109,1.0185724585326377,-0.1768715668233872,24.9465419589308,3.312107557498332,35.06277170051813
1760515025.025773,-12.523616381839368,-0.135046235277575,1.0127689812160667,-0.19817107206967374,23.039769763888284,4.460246000490176,32.05174661393534
1760515025.0357754,-12.203105042745149,-0.14700084138819838,1.0016836129584892,-0.22521184011608159,20.871847194365554,6.027406650620895,28.35834943046729
1760515025.0457683,-11.957033462202284,-0.1638828640257709,0.9868852542892177,-0.2549799119147404,18.612592550619404,7.770305367804452,24.30128289544462
1760515025.0557861,-11.784984528886055,-0.18253144667866733,0.9700044829134815,-0.28457540840418444,16.417991815711677,9.443449656816565,20.213970025760872
1760515025.065847,-11.677791797625487,-0.19949092912226893,0.9526161581097963,-0.3115131073194853,14.419725836040298,10.831672101575753,16.412288077371283
1760515025.0758595,-11.61868960339349,-0.21159726070573479,0.9361488493808737,-0.3339493491206356,12.717214467968613,11.77522942542602,13.16605317834912
1760515025.0860534,-11.585483375742749,-0.21651585318428637,0.9218204783772032,-0.350821432032124,11.37281452827094,12.184005047802817,10.676716017748403
1760515025.0958462,-11.553426264511513,-0.2131294570666703,0.9105978646802396,-0.3618938582643533,10.410560564756345,12.03956651487382,9.063139285946498
1760515025.1058598,-11.49838242171124,-0.2017110846491262,0.9031764563399239,-0.3677137629161998,9.818416707817727,11.386171680066102,8.35648058662432
1760515025.1157708,-11.399825354125745,-0.18386109361271233,0.899974516303144,-0.3694831987807101,9.553600677615247,10.31375951248898,8.504165934751532
1760515025.1257868,-11.243259079305906,-0.1622258921590071,0.9011330170663173,-0.3688587269736842,9.550286942481437,8.937153495941981,9.381905235875745
1760515025.1357725,-11.021750392479264,-0.14004717636166245,0.906512090777849,-0.3676931074951211,9.728910323185373,7.375945320225507,10.811855937086758
1760515025.1457589,-10.736405901521914,-0.12061686659438037,0.9156815901448407,-0.36774443147255426,10.006267032162532,5.738782228252625,12.58448539409446
1760515025.1557724,-10.395791600043232,-0.10672992452123176,0.92791474091155,-0.37039262377382953,10.305523009424194,4.114267201186842,14.481464093709834
1760515025.1657753,-10.014445045261144,-0.1002285721318665,0.9422018720326625,-0.37641279198155625,10.565082827009007,2.5688272804822554,16.29705186809833
1760515025.175757,-9.610746758783028,-0.10171616642112857,0.9573011325862064,-0.3858523054912679,10.745170566920752,1.1501937386789396,17.85587303381382
1760515025.1857557,-9.204485896052141,-0.11049123535990993,0.9718364075913541,-0.39804363270876425,10.831062076676153,-0.10606390401202917,19.025617888428844
1760515025.1957514,-8.814471219128711,-0.1247154946300648,0.9844415637611291,-0.4117608585067773,10.832241704614678,-1.1699849903840924,19.723946192433623
1760515025.2057621,-8.456503075412456,-0.14178616720821902,0.9939348757113733,-0.4254968325451125,10.77733391738779,-2.0133208195498673,19.91960769456855
1760515025.2157998,-8.14194296857669,-0.15883693707798008,0.9994892361784877,-0.4378035463445541,10.705460008917747,-2.609773082883905,19.628459009683993
1760515025.2257805,-7.877008043662075,-0.17325489616881976,1.0007506332063278,-0.44761046768747675,10.655594976511669,-2.939071025077903,18.905565267762846
1760515025.2357788,-7.662796474250926,-0.18309365597895033,0.9978642033254356,-0.4544324178247877,10.656247787865276,-2.9928898830121535,17.83483859184021
1760515025.245833,-7.495938176062836,-0.18730027279901956,0.9913994490923331,-0.45841347355220274,10.71789513204803,-2.779865063572257,16.51765090528917
1760515025.2560375,-7.369685047054816,-0.18574016599411444,0.9822050768234092,-0.4602131964736269,10.82982060277363,-2.3275927187514505,15.06165791011602
1760515025.2659125,-7.275218882036707,-0.1790610157409973,0.9712423552986779,-0.460791065867972,10.961675311941846,-1.6810053892230403,13.5708209650874
1760515025.2757626,-7.202962910584749,-0.168460436287156,0.9594382595335251,-0.46116073179566686,11.068854987479249,-0.8978462352771128,12.137360237905904
1760515025.2858222,-7.143724183982898,-0.155419770797011,0.947580887834211,-0.4621733365106567,11.100127994598848,-0.042542462140705256,10.836089921939022
1760515025.2958152,-7.089553888040102,-0.14145315692706042,0.9362629849630573,-0.4643669107087419,11.005847738963814,0.8202903193649339,9.721279348535901
1760515025.305808,-7.034276519742487,-0.12790525244782158,0.9258684048511577,-0.4678979015801838,10.745326933684202,1.6318131636286155,8.82589757211004
1760515025.3157585,-6.973695870734477,-0.11581565825194721,0.9165908315313187,-0.4725536979255308,10.292356244582326,2.343829302573471,8.16286787373299
1760515025.325759,-6.905529564660623,-0.10585485294497778,0.9084731264933954,-0.4778313898033547,9.638314431112134,2.9222211175948565,7.727796282829755
1760515025.3358433,-6.82915166889708,-0.09832613687865255,0.9014569405503614,-0.4830584769185259,8.79277844541411,3.3487952814352924,7.502557193846223
1760515025.3457758,-6.745233848342928,-0.09322056495607393,0.8954333053844045,-0.4875272524338483,7.781936114275527,3.621522220155464,7.459133093621702
1760515025.3559847,-6.655370128882551,-0.09030683932110072,0.8902856238934873,-0.49061671876047463,6.645370245446833,3.7533301319071612,7.5632132029010535
1760515025.3657637,-6.561751383302091,-0.0892359717573562,0.8859185094585081,-0.49188265289162336,5.431894960029512,3.7697920666921036,7.77723229902377
1760515025.3757784,-6.466928931228556,-0.08964178387718048,0.8822701799777299,-0.4911053661991955,4.19509699554985,3.7061572346050253,8.062732123008944
1760515025.3857884,-6.373678441858494,-0.09122231989944857,0.8793111813294904,-0.48829382043588404,2.98910249334783,3.604167618929068,8.382103818029533
1760515025.3957734,-6.284949825067157,-0.09379219991056623,0.8770355879206417,-0.4836526180083782,1.864903477289987,3.508966779542589,8.699880716267751
1760515025.405781,-6.203868735706027,-0.09730067005867254,0.8754510725040056,-0.4775239013153206,0.8673961240326655,3.4661959523757973,8.983778140544214
1760515025.4157782,-6.1337428444424065,-0.10181443949235712,0.8745720501629419,-0.4703188888792709,0.0331454173160114,3.5191545006363385,9.205628938158569
1760515025.4257789,-6.0780221162256405,-0.10746834708185996,0.8744174725277954,-0.46245350199856394,-0.6111976094614264,3.7057585766400694,9.342271573214786
1760515025.4357827,-6.0401675627555,-0.11439070480494323,0.8750131110431696,-0.45429929230779653,-1.0499520970661451,4.055031830862442,9.376352777264225
1760515025.445824,-6.023398392203911,-0.12261415350542058,0.876397099223437,-0.4461553648816856,-1.2790811428930395,4.583031590385058,9.296942112839224
1760515025.4558003,-6.030312631301219,-0.13198648834864765,0.8786263994341824,-0.43824084552003734,-1.30660267466423,5.288425523676057,9.099837530266731
1760515025.4658995,-6.0624065596607695,-0.14209770879999006,0.8817807446508996,-0.43070245967279885,-1.1527914767997118,6.148312073447051,8.787468929458399
1760515025.4758122,-6.11954651714774,-0.15223851880042413,0.8859601075002148,-0.42362920490899675,-0.8501376823364631,7.115212337141347,8.368367091860737
1760515025.485806,-6.199467049772084,-0.16140197716428736,0.8912723731097554,-0.41706655331942233,-0.4429392874331901,8.116331653671189,7.856235679332189
1760515025.495951,-6.297380406118814,-0.16833531494397236,0.8978096030290096,-0.4110259257855471,0.013656881370225296,9.056108988804384,7.26872175022038
1760515025.506624,-6.405786351623038,-0.17164437406013444,0.9056135441256449,-0.4054899077018292,0.45536938167451174,9.82271812104698,6.626011395184014
1760515025.5157883,-6.514569643452873,-0.16994848024070172,0.9146333157548113,-0.4004176847942253,0.811413538379022,10.29859123790401,5.94938229551982
1760515025.5259888,-6.611461005196059,-0.16207699224875768,0.9246804744166023,-0.3957566349021633,1.008108169796532,10.374272722135798,5.259836501489824
1760515025.5357707,-6.6829070204930305,-0.14728890686537444,0.9353893652872294,-0.3914640405310159,0.973367066764258,9.964078520006787,4.576923303837736
1760515025.5457978,-6.715338116146047,-0.1254849054629504,0.946194021244587,-0.38753797272323276,0.6418243593184673,9.02127407203138,3.9178393868411474
1760515025.5558944,-6.696742851394483,-0.09737046704914998,0.9563358755706615,-0.38405007123831947,-0.03979452715490286,7.5499749667677385,3.296850536251107
1760515025.566014,-6.618363005022355,-0.0645236397130613,0.9649167467785467,-0.38116686217291795,-1.1075371448729268,5.610933427592477,2.7250073447436653
1760515025.575801,-6.476241541339133,-0.02932687462483533,0.9710056315178106,-0.37914239858592413,-2.575849125907562,3.318992524889598,2.210026564104013
1760515025.5858045,-6.272317111791334,0.005257144195420249,0.9737934069727022,-0.37826669986086287,-4.434500598416606,0.8313461448060784,1.756099064702247
1760515025.595809,-6.0147923482343355,0.036051644171245116,0.9727684448968287,-0.378765129727735,-6.647360818328919,-1.6722981426637011,1.3633097795497653
1760515025.605783,-5.717615458855469,0.06012038474798539,0.9678674115837522,-0.3806630076888005,-9.153555048254523,-4.014422327271077,1.026375855767268
1760515025.6157732,-5.3990845406467916,0.07522504923077426,0.959552291198014,-0.38365041345021605,-11.871437289490787,-6.0444408100841684,0.7325744730318997
1760515025.6257968,-5.0797713787630565,0.08018664434504162,0.9487838871806445,-0.38699407602728086,-14.705522386035165,-7.6583322484637035,0.4590380371954386
1760515025.6357958,-4.780119358475098,0.07506511505948464,0.9368964252698593,-0.3895395666741967,-17.556001675029464,-8.809244658965826,0.16996981374363115
1760515025.6458778,-4.518153793856428,0.061109754235836235,0.9254094134231516,-0.38982723417266624,-20.32984134451541,-9.50754009259202,-0.18534420154421594
1760515025.6558177,-4.3077214692770855,0.04048798867568039,0.9158258314023615,-0.38631360163435885,-22.95197288953175,-9.811399223053353,-0.6727133839317118
1760515025.6658838,-4.15754828210805,0.015856457177741035,0.9094572051410754,-0.37765447334642716,-25.374913356333522,-9.81118461245987,-1.3705422172104416
1760515025.6757882,-4.071206450782648,-0.010121961555849329,0.9072961296562031,-0.36297966309464563,-27.585332766881855,-9.61176872657845,-2.364235870740605
1760515025.6858041,-4.0478781676221,-0.035202156344880726,0.9099385794270655,-0.34208488995454156,-29.606549102999228,-9.316854503686642,-3.737778110001186
1760515025.69583,-4.083650205598701,-0.05783226194517272,0.917549265256923,-0.315487793774461,-31.496557290834048,-9.018123544816012,-5.563491939453297
1760515025.7057877,-4.173006116511868,-0.07723685805435689,0.9298629011570796,-0.284333849001788,-33.341838726141695,-8.790226889485808,-7.891588034887434
1760515025.7158275,-4.310199567206801,-0.09331560091820325,0.946217492939607,-0.2501793028888324,-35.247730830065976,-8.690731497741815,-10.74136372389385
1760515025.725794,-4.4902736969206565,-0.10640845635344717,0.9656175554925738,-0.2147087567721086,-37.326514150720094,-8.762743528868642,-14.095735586277174
1760515025.7357986,-4.709609025733348,-0.11700676898060249,0.9868237232375809,-0.17945746844827437,-39.684593778576605,-9.037492230223753,-17.900197841566772
1760515025.7457983,-4.966005443898309,-0.12549702133612492,1.0084618492513984,-0.14560167430611634,-42.410200194364755,-9.534771682482017,-22.066442662038266
1760515025.7558436,-5.25840180190688,-0.1320082099650168,1.0291412407567224,-0.11385751687317512,-45.56289562953477,-10.260492851606502,-26.479975528031957
1760515025.766073,-5.586389182238468,-0.13639877762908265,1.0475692493120092,-0.08449790542603007,-49.16586015525122,-11.202145279639588,-31.010328334616666
1760515025.7758064,-5.949678285618726,-0.13837725003570758,1.0626486669380495,-0.05746621983383533,-53.20150353697295,-12.324175507646759,-35.522083593452976
1760515025.7857912,-6.347649821566219,-0.13771519420801928,1.0735462574723986,-0.032544370398247195,-57.61049488310514,-13.565820968765212,-39.884981218816286
1760515025.7959144,-6.779067660365312,-0.13449011744660727,1.0797264456878133,-0.009525484508864462,-62.293923150463705,-14.843677306476229,-43.981889430896466
1760515025.805901,-7.241983551797044,-0.1292909993132782,1.0809526671978689,0.011651535503536743,-67.11806726951481,-16.060275815147097,-47.714206150884515
1760515025.8157866,-7.733818699599326,-0.12332665782499101,1.0772658062665454,0.030833013057744947,-71.92117956560625,-17.11838642199836,-51.00499782465
1760515025.825865,-8.251575395056602,-0.11839334332818353,1.068950644253002,0.047657898282497266,-76.52173403684279,-17.93895286611511,-53.800605917720226
1760515025.8357925,-8.792112761015845,-0.11668189623033495,1.0564982828755196,0.06163702132789006,-80.72769529629313,-18.47895001095275,-56.071458522743775
1760515025.8457778,-9.352414373393003,-0.12043611764860868,1.0405692611129842,0.07228491751335014,-84.34646645684307,-18.744521132703277,-57.81246461319624
1760515025.8558178,-9.929781354224007,-0.13151093823124538,1.0219600138096652,0.07927281807339856,-87.19525278116288,-18.794965067302194,-59.04280527618335
1760515025.8658028,-10.521902956374744,-0.15091806114452413,1.0015720199970688,0.08256563561408893,-89.11163394992349,-18.734871257591696,-59.80446295299872
1760515025.8758352,-11.1267878787912,-0.1784765638749761,0.9803776767793625,0.08250792987543627,-89.96415734964205,-18.694961568258574,-60.158747166796346
1760515025.8858023,-11.742577329509793,-0.2126823338162252,0.9593733237975418,0.07983366053123518,-89.66267601077863,-18.8060836900876,-60.180427694242
1760515025.895793,-12.36729162132373,-0.2508560611460625,0.9395123824823048,0.07559071439068313,-88.16783842719599,-19.173433651895692,-59.94963154655502
1760515025.9057982,-12.998574641637148,-0.28954342389235216,0.9216209397791768,0.07099065451200375,-85.49854372133314,-19.857856585177245,-59.542189110057166
1760515025.91582,-13.633493925790747,-0.3250666032685238,0.906309853978758,0.0672142170075009,-81.73549367804155,-20.868122702933285,-59.01961868202213
1760515025.925799,-14.26843435319979,-0.35409328961685876,0.8939043815326811,0.06521974443593684,-77.0187044564918,-22.164183139426058,-58.42037320992919
