timestamp,angle,linear_acceleration_x,linear_acceleration_y,linear_acceleration_z,angular_velocity_x,angular_velocity_y,angular_velocity_z
1761284165.4964738,-2.545176021138121,-0.03999239505965175,0.9850937385432356,-0.08434708814848454,-0.8890494444745911,-0.31807145738045367,-0.07585325284256482
1761284165.506486,-2.537477938349855,-0.040808132101991315,0.9847322372511764,-0.0847522082101958,-0.9731868661262859,-0.27911429256714215,-0.07084550593168273
1761284165.516485,-2.533170055347805,-0.04188526742920769,0.9841127807491754,-0.08502213391632205,-1.0510396926826553,-0.23821854529593442,-0.06256578530395622
1761284165.5265014,-2.532730239526759,-0.04318984923882839,0.9833060279121233,-0.08512222323333836,-1.1224071000075382,-0.19715244763202183,-0.052650351779556424
1761284165.5365083,-2.5364566369843318,-0.04466503150874698,0.982407580474939,-0.08501799165559366,-1.1875873288900285,-0.15780658236831208,-0.04268691667596535
1761284165.546563,-2.544418739433183,-0.046234541469690395,0.9815240987601493,-0.08467849926131202,-1.2472945680129837,-0.12222337567685876,-0.034037825781974944
1761284165.5564718,-2.5564313851595712,-0.04780978864385672,0.9807566077975549,-0.08408054127621994,-1.3025414858587645,-0.09254870372079883,-0.027689223890019387
1761284165.5665023,-2.5720576295709523,-0.04929939892502602,0.9801839949261325,-0.08321326592515847,-1.3545174609729245,-0.07087717983696833,-0.024131445746246358
1761284165.5764842,-2.5906404992110077,-0.0506192641280886,0.97985015182378,-0.0820822850261098,-1.4044909561178909,-0.05899569998878304,-0.023283160026570198
1761284165.5864892,-2.6113576602642117,-0.051701023891823884,0.9797579151967005,-0.08071213744665186,-1.4537523367738803,-0.05806542936707628,-0.024481810897077252
1761284165.5965123,-2.633288558073501,-0.05249726448735828,0.9798715840862539,-0.07914639586366988,-1.5035983262417825,-0.06831073486733716,-0.02656604975753315
1761284165.6066308,-2.655482014689939,-0.0529826257271939,0.9801274456979148,-0.07744550857517461,-1.5553480627864127,-0.08879602469029392,-0.028064257563115556
1761284165.6164806,-2.6770141749471867,-0.053151211643394286,0.9804492398335638,-0.07568311964756569,-1.6103739802603894,-0.11736501581750602,-0.027476958502197196
1761284165.6265116,-2.6970312427157372,-0.05301172825133608,0.980763989453552,-0.07394170646775776,-1.6701271386497714,-0.15079328324859378,-0.023608959284804103
1761284165.6364884,-2.714776675462629,-0.05258218487304139,0.9810139399669375,-0.07230790181708055,-1.7361378365352675,-0.18516675317897816,-0.015883068223397804
1761284165.6465046,-2.7296063446554495,-0.05188568646855369,0.9811623943130855,-0.07086725349461259,-1.809980395752259,-0.21645022971377245,-0.004562840341731987
1761284165.6565268,-2.7409967810252898,-0.050948156995102925,0.9811938911991382,-0.06969793174648596,-1.8932034141926404,-0.2411601863810801,0.00916950915388911
1761284165.6666028,-2.748551717087166,-0.04979826838152039,0.9811109849006152,-0.06886324415323983,-1.9872361262516105,-0.25701886027996446,0.023298776921353428
1761284165.6764755,-2.752011790228732,-0.048469561276556654,0.9809301079103864,-0.06840358653518303,-2.09328083491033,-0.26345533705725155,0.035206382086520556
1761284165.686499,-2.751271694374168,-0.047004502895458274,0.9806780346227663,-0.06832917150438844,-2.212191318607823,-0.2618390857595819,0.041994948444869146
1761284165.6981122,-2.7464077018941846,-0.045459823002975866,0.9803892433508639,-0.0686150965434194,-2.3443274016857356,-0.2553767821506467,0.04084538481556101
1761284165.706512,-2.737715698360724,-0.043911905114826524,0.9801036542445788,-0.06920007124088967,-2.489377975577013,-0.2486621268131167,0.02934705647657093
1761284165.7165282,-2.7257554913423148,-0.04246043093263918,0.9798639808707682,-0.06998977109889265,-2.6461624675370556,-0.24692912368262598,0.005757981974659946
1761284165.7265155,-2.711391817781955,-0.04122815841500447,0.9797121510908418,-0.07086535202186688,-2.8124476026962792,-0.2551143475340652,-0.03082423429746923
1761284165.7367585,-2.695817975137706,-0.04035505054564976,0.979684711350901,-0.0716967644177812,-2.9848395569981427,-0.2768780342045034,-0.08037597667178685
1761284165.7465124,-2.680546880159264,-0.039986233544306304,0.9798076769166358,-0.0723590953179076,-3.1588173747546318,-0.3137612517796189,-0.14192362381914495
1761284165.756636,-2.6673585193403135,-0.04025523713258581,0.9800918232175145,-0.07274894794319185,-3.3289527633381057,-0.3646575937817182,-0.213554367450763
1761284165.7665174,-2.658201807670372,-0.041265833745297784,0.9805297084365014,-0.07279765263488831,-3.489317295266081,-0.4257435365375594,-0.2924412149244549
1761284165.7766273,-2.6550597227985264,-0.04307654725273546,0.981095512120232,-0.07247889741502551,-3.634028245506163,-0.49094128196145076,-0.3748767480753257
1761284165.786835,-2.659795121746511,-0.04569113637373175,0.9817480635824793,-0.07180952333568681,-3.757851631991547,-0.5528941511245377,-0.45632729418270046
1761284165.796536,-2.67399828090215,-0.0490565895399773,0.9824365087778136,-0.07084336196707973,-3.8567788752289065,-0.6043364062122364,-0.531533129917445
1761284165.806715,-2.698855872439203,-0.05306831846589769,0.9831072585643028,-0.06965915548025914,-3.9285174953739803,-0.639652818995965,-0.5946877175595409
1761284165.8165379,-2.7350563255866196,-0.05758091139018183,0.9837104115821816,-0.06834468708537167,-3.972869040968916,-0.6563611643096147,-0.6397275313512987
1761284165.8265994,-2.7827401901714466,-0.062422169926083834,0.9842038895038949,-0.06697990624938172,-3.9919904208311427,-0.6562271250326152,-0.6607534016114254
1761284165.8365228,-2.8414980019302085,-0.06740820166364749,0.9845540549242735,-0.06562193864236165,-3.9905375031759744,-0.6457494737815994,-0.652585910157748
1761284165.8465264,-2.9104135965270346,-0.07235793191281346,0.9847324954422776,-0.06429455766365907,-3.975673304069625,-0.6358391774839904,-0.6114343080667808
1761284165.8565176,-2.988148238187784,-0.07710618312372133,0.9847098496510321,-0.06298401836672941,-3.956898045817348,-0.6406489476952576,-0.5356356815170371
1761284165.8665051,-3.073059820315157,-0.08151509331115003,0.9844487930180372,-0.06164214345134666,-3.945639386725218,-0.675663112130063,-0.4264041650224532
1761284165.8765302,-3.1633509179854142,-0.08548394160931751,0.9838990648227692,-0.060196378271383764,-3.954540842570519,-0.7552988742970856,-0.2885214104572602
1761284165.8865213,-3.2572386051072133,-0.08895733085964555,0.9829971703032923,-0.05856540321295146,-3.9964126579003687,-0.8903755959735421,-0.13089557599329815
1761284165.896563,-3.3531363969248376,-0.09193105024483089,0.9816721428315899,-0.05667793052843633,-4.082863604181954,-1.085869187443357,0.033091763591596456
1761284165.9065864,-3.449833680270231,-0.09445401757791914,0.9798570891201841,-0.05449162078096591,-4.222707868361484,-1.3393792717497501,0.18554904063953948
1761284165.91656,-3.5466516683313496,-0.09662416626833312,0.9775047955889427,-0.05200874915360308,-4.420322815003061,-1.6406878676651684,0.30446933448676183
1761284165.9266567,-3.643550247460833,-0.09857665352999437,0.9746046631050852,-0.049285422906790104,-4.674198304510186,-1.9726668001155045,0.36468868842468993
1761284165.936534,-3.7411601678770894,-0.10046434058572995,0.9711976645830955,-0.04643180245133957,-4.975943705433596,-2.3135919301605243,0.3395211680407856
1761284165.9465861,-3.840721211694023,-0.10243248610333319,0.9673861382750013,-0.04360179899334693,-5.309990447163946,-2.6406631386215227,0.2031181679996317
1761284165.95654,-3.9439184765543027,-0.1045912353644684,0.9633363171352123,-0.040971990774887376,-5.654143143000385,-2.934254987119232,-0.06651767673483569
1761284165.9665234,-4.05262423771479,-0.10699052364731873,0.9592731962304236,-0.0387111124082661,-5.980999394249141,-3.1821955828523256,-0.4840970413188097
1761284165.976673,-4.168570830928604,-0.10960259656360613,0.9554688140979056,-0.036943709746477975,-6.2601013398138505,-3.3832520776593653,-1.053611580272278
1761284165.98653,-4.292998381860497,-0.11231717245945241,0.952225729162119,-0.035714343812033714,-6.460544079179459,-3.5490425482260988,-1.7655082588198525
1761284165.9965417,-4.426334833045329,-0.11495243358887769,0.9498573885926846,-0.03496106995315139,-6.553694597189663,-3.703820551316203,-2.595167796427819
1761284166.0065281,-4.567968134555912,-0.11728125892745925,0.9486663635230126,-0.03450717604747519,-6.515690536625968,-3.8819603126800075,-3.503311949901755
1761284166.0165231,-4.716158045687261,-0.11906753557042732,0.9489203181888745,-0.03407728600569495,-6.329472021523207,-4.123418687291331,-4.43868948086743
1761284166.0265217,-4.868109390613695,-0.12010383812364805,0.950824858837048,-0.03333834008347991,-5.986211164571179,-4.467851722296436,-5.3429632197819314
1761284166.0365639,-5.020196266299061,-0.12024074936839045,0.9544933756510322,-0.03195913875785375,-5.486107199160779,-4.948322588135226,-6.157256584839977
1761284166.0465388,-5.168296850676091,-0.11940033093873523,0.9599173278006076,-0.02967585114281174,-4.838591188883214,-5.585598662462953,-6.829445193586055
1761284166.0565336,-5.308180018512672,-0.11757129798263849,0.9669445787064431,-0.026347296472587125,-4.062023965799979,-6.383894234174564,-7.321096144365984
1761284166.0665362,-5.435883017341051,-0.11478957962117932,0.9752748028816444,-0.02198545267743144,-3.1829625329436046,-7.328615532288854,-7.613013305194358
1761284166.076655,-5.548033781579424,-0.11111310814489776,0.9844772457737826,-0.01675434402447969,-2.235009267078167,-8.386284762500518,-7.708623040589393
1761284166.0865355,-5.6420973351499875,-0.10660246599212946,0.9940290284790088,-0.010940852478257204,-1.2571836341936276,-9.50645580138063,-7.634837516624864
1761284166.0965297,-5.716554215843984,-0.10131827787131,1.003366380273404,-0.004908272672043191,-0.29174879480472493,-10.625183459885267,-7.440429523990107
1761284166.1065342,-5.771038156178905,-0.09534108388325686,1.0119394639725894,0.0009555469421849169,0.6184605673641589,-11.669533485188708,-7.192240112692689
1761284166.1165454,-5.806461521435967,-0.0888109354962664,1.019262632252371,0.006286943905191527,1.4329656921331577,-12.562707034748929,-6.96969007459133
1761284166.1265433,-5.825140620375756,-0.08197568506829328,1.024953521045169,0.010787267134127174,2.1164158118049485,-13.229509983651788,-6.8581194233128
1761284166.136537,-5.830908044009659,-0.0752325553838032,1.028756123760779,0.014253364426651968,2.6407624857448946,-13.602008087970951,-6.941498681309402
1761284166.146577,-5.829176890599306,-0.06914828352744105,1.030546157835657,0.016596676588176856,2.986526446339628,-13.625192194754105,-7.295079224606381
1761284166.1565397,-5.826909954159834,-0.06444767704958028,1.0303211888092245,0.017850458174930195,3.1430961293034536,-13.262329155746283,-7.9785744939685985
1761284166.1665454,-5.8324489142443205,-0.061966818313628165,1.0281811397090594,0.01816451338291838,3.1082747321863535,-12.499479022420854,-9.03046645056052
1761284166.1765368,-5.855174236379325,-0.06257406506348817,1.024305881227898,0.017787055015964733,2.8874936499022796,-11.348549580869799,-10.46399015362559
1761284166.186544,-5.904993634181154,-0.06706862314221444,1.0189356002223477,0.017034744254223546,2.4931369188875574,-9.848333461144225,-12.265246949094635
1761284166.1965597,-5.991690602081025,-0.07607167162420075,1.012356865896827,0.016254031466024433,1.9442413681281159,-8.063236626055547,-14.393723667430727
1761284166.2065656,-6.12419672930154,-0.08992727953675445,1.0048934967038334,0.015778469678488203,1.2665206002904064,-6.079779578696631,-16.785257622297756
1761284166.216559,-6.309872956556649,-0.10862868529406444,0.9968980143275317,0.01588747822760285,0.4923478899442566,-4.001317910280578,-19.35720703551593
1761284166.2265666,-6.553888388192575,-0.1317802851617899,0.9887384330070981,0.01677260541756835,-0.33983843635425837,-1.9416718686061412,-22.015298006307418
1761284166.2365746,-6.858769374831184,-0.158598902191891,0.9807772239263526,0.018517792473155777,-1.1871968010689835,-0.018378951569154124,-24.661377381137232
1761284166.2465723,-7.224162547103386,-0.1879524212486932,0.9733435613086684,0.02109929075981775,-2.005442664874761,1.653936811752855,-27.20116954041073
1761284166.2565799,-7.646823658999119,-0.21843126100004026,0.9667040397638452,0.024406824171078097,-2.7529458392797315,2.9699382518353827,-29.551147209566498
1761284166.2665792,-8.120817737693294,-0.24844747061937955,0.961038639726381,0.028280235499242252,-3.3953962996409044,3.8398156566980033,-31.643775578991157
1761284166.2766247,-8.63789802419894,-0.27635533833865933,0.9564270463792425,0.032548910496551405,-3.910179827397953,4.1955103567535605,-33.430647891650985
1761284166.2865598,-9.188020541331138,-0.3005851798886005,0.9528470420562656,0.037059911096811705,-4.2895292485220375,3.996735116859276,-34.8833505155076
1761284166.2965753,-9.75994615896265,-0.3197791088324712,0.9501842624774738,0.0416864031679217,-4.541683577097761,3.2361710478360024,-35.992211133174024
1761284166.3065946,-10.341881816566037,-0.33291537269408805,0.9482520798750973,0.046316745234682384,-4.689652721915749,1.942892073751604,-36.76334194707001
1761284166.3165746,-10.92211593399839,-0.3394068723883573,0.9468200145081139,0.050831781602974885,-4.767655775385798,0.18302691980341035,-37.214564302508236
1761284166.3265893,-11.48960779704615,-0.3391600773667812,0.94564724104389,0.05508193292087679,-4.815756898888079,-1.9430287997799058,-37.37088272440027
1761284166.3365786,-12.034495394430069,-0.3325838028102626,0.9445155115238605,0.05887657346148644,-4.873555999850446,-4.306965247013584,-37.26016516157694
1761284166.346576,-12.548491956640014,-0.32054416546048664,0.9432554250601065,0.0619948047790197,-4.973940528627,-6.761922015317922,-36.90959224453296
1761284166.3565679,-13.025150827846732,-0.30427130027368054,0.9417617959284195,0.06421881967653843,-5.137867160467553,-9.153753047229328,-36.34327884436579
1761284166.3665783,-13.45999232500768,-0.285232080968117,0.9399963039388729,0.06538166161577057,-5.370958702289484,-11.33279799247982,-35.581261596299406
1761284166.3766098,-13.850502946795597,-0.264988345607243,0.9379774354591832,0.06541482941525906,-5.662427717420632,-13.16480991802187,-34.63980047396268
1761284166.386585,-14.196032258120532,-0.24506065312194658,0.9357590618779835,0.06438033604691207,-5.9865167047647665,-14.540018263272488,-33.532690487687546
1761284166.396583,-14.497621009870457,-0.22681356890806173,0.9334002260766563,0.06247613130136628,-6.306298931874182,-15.379785765301651,-32.273073438131384
1761284166.4066038,-14.75779243764034,-0.21137133541885086,0.9309296718861739,0.06001141620910518,-6.579335861998848,-15.640779998506794,-30.875134532265896
1761284166.4165924,-14.98032752984339,-0.19956482173728896,0.9283092657721899,0.057357045037529045,-6.76437096189518,-15.316889511615061,-29.35509641224895
1761284166.4266026,-15.170028168669973,-0.19190434260202668,0.925401072502368,0.054883329998623366,-6.82800375157235,-14.439208501685913,-27.73108301698451
1761284166.436571,-15.332455592873428,-0.18857017755232114,0.9219436137531272,0.05290082047963639,-6.750189475814247,-13.07430912824948,-26.021686263144733
1761284166.4466147,-15.473622182471855,-0.18941406167920677,0.9175433639990134,0.051618197207630535,-6.5274995807698915,-11.320800553348574,-24.243372199607528
1761284166.456612,-15.599616890826898,-0.19396976498153243,0.9116873199259342,0.05112627249885797,-6.173371248285445,-9.303951332402038,-22.407141251760496
1761284166.466597,-15.716159914317124,-0.20147701701265047,0.9037812600202906,0.05140998645516698,-5.71503010744494,-7.168031207591132,-20.515058635705106
1761284166.4765975,-15.828106905673467,-0.21092753664424332,0.8932162013009927,0.052382792189180176,-5.1873058904361224,-5.066086057855011,-18.557379201418083
1761284166.4866278,-15.938949712190317,-0.22114231591720676,0.8794628891181672,0.053931372370659036,-4.624089632878498,-3.147125993064818,-16.51100238374002
1761284166.4966457,-16.050380422219263,-0.23088473253070127,0.8621906550227575,0.05595512170844708,-4.048647232898426,-1.541160011963392,-14.339896974123414
1761284166.5065954,-16.161991169215117,-0.23900528490390896,0.8414017548833292,0.05838618149378909,-3.4643745922732245,-0.3430965776209623,-11.9979265870573
1761284166.5165975,-16.271170473584093,-0.24460313365433758,0.8175654451561727,0.061182429498523566,-2.8477994670984086,0.4028351867200532,-9.434197502826791
1761284166.5266,-16.373231024156578,-0.24718117048226274,0.7917293466393849,0.06429569592847983,-2.1456113154453567,0.715926294867623,-6.600669872587636
1761284166.5365994,-16.46177243783677,-0.2467684651100328,0.7655812026518417,0.06762696925793822,-1.277135824585098,0.6865335756963857,-3.461365612407408
1761284166.5466077,-16.52925484252119,-0.24398699985513472,0.7414334114918651,0.07098572407920098,-0.1429146866376515,0.4758122001767678,-0.0021246705917392222
1761284166.5566003,-16.567739269412712,-0.240046134283915,0.7221067674367635,0.07406917980277505,1.3610465956019362,0.3056676246387787,3.7604369220866602
1761284166.5666118,-16.569736702856865,-0.23665535365948254,0.7106996495737374,0.07646975134531232,3.325043986831283,0.4380704687322459,7.772256489700127
1761284166.576635,-16.529093854581095,-0.2358521233933834,0.7102449513645546,0.07770951147510323,5.806213919909424,1.1444543130112765,11.93884500934894
1761284166.5867152,-16.44182695864602,-0.23974799114556541,0.7232785289668201,0.07729412305338301,8.811214139325113,2.6677246884936663,16.12706334012212
1761284166.5967429,-16.306798246709434,-0.2502052732847213,0.7513670787648372,0.0747766022837716,12.284359489375936,5.181139383928576,20.172180074802576
1761284166.6065903,-16.126123200621162,-0.26847163425540077,0.7946655911960689,0.0698210860029159,16.103787140957984,8.749659199133514,23.8900866232479
1761284166.6165907,-15.905211921452743,-0.2948206970765061,0.8515893751347874,0.06225651944446936,20.08696769183826,13.300024632757454,27.09386459773096
1761284166.6266232,-15.65239040929899,-0.3282681737134383,0.9186878547047802,0.05211032579744642,24.00542248114455,18.605557559881277,29.613253039163936
1761284166.6366024,-15.378110873878367,-0.3664441775519767,0.990793396679523,0.039614223392746326,27.607192739014774,24.290416000885223,31.314996920403598
1761284166.646614,-15.093828657871157,-0.40569180628977747,1.0614867959925296,0.025178638536114732,30.644602804647796,29.855826680250996,32.121601840332865
1761284166.6566093,-14.810680252831999,-0.4414244705389145,1.123870585156422,0.009336912190742914,32.904131292219716,34.72790067169427,32.02572773279002
1761284166.6666417,-14.53813185400134,-0.46871531338762534,1.171571780429121,-0.007335606411551009,34.234656724851526,38.323233189559375,31.097465932401576
1761284166.6767209,-14.28277812833069,-0.48302623784595106,1.1998140779509363,-0.024317766610427383,34.56999672277705,40.124855014626064,29.482251018516887
1761284166.6866214,-14.047457397823498,-0.48093167024270406,1.2063293219312636,-0.04123531102773125,33.94171188200861,39.75776023677832,27.38830838099016
1761284166.6966193,-13.830813647657944,-0.4606760254061836,1.1918598201231174,-0.057919284656398555,32.47890899301176,37.051199841567325,25.064305753974267
1761284166.706627,-13.62737984876018,-0.42244099147347475,1.1600737162815695,-0.07439643348037572,30.393508276624562,32.075537067537596,22.76993768438946
1761284166.7166064,-13.428186436633125,-0.36828236239441925,1.1168719627640225,-0.09079872653860875,27.952107122148487,25.14554222350561,20.743934816453347
1761284166.7271,-13.221822334694354,-0.30178782291493833,1.0692485595548913,-0.10722085628826512,25.43863069160316,16.788831176687182,19.174866759582834
1761284166.7366173,-12.995805530356161,-0.22756230424241788,1.0239941983296639,-0.12359048261035122,23.114377091994,7.68532570211336,18.179781949191252
1761284166.7466094,-12.73807169223265,-0.1506528338012044,0.9865572220094346,-0.1396186091750312,21.182874745768057,-1.4114129510994011,17.794222804811955
1761284166.7581127,-12.438379976385107,-0.07600158214041525,0.9602997567792748,-0.15486238394854215,19.765882234032578,-9.758361808406637,17.97480052725107
1761284166.766632,-12.08947261186823,-0.007989417646449679,0.9462542345108298,-0.168878171902719,18.89430912557518,-16.700983243260556,18.61292302656764
1761284166.7766368,-11.687894588620502,0.049890039834857396,0.9433490304485328,-0.18139712262095695,18.514592347503466,-21.7356919785241,19.55619239790658
1761284166.7866411,-11.2344486925043,0.09520851681844812,0.9489726537276896,-0.1924434613332321,18.507934897502675,-24.550895393957326,20.632992681786593
1761284166.7984142,-10.734300002330132,0.12664068345478618,0.9597020059252656,-0.20234416079721237,18.717504601732113,-25.04412282797611,21.675979979613455
1761284166.8070817,-10.196748151286092,0.14389036385276477,0.972026661325847,-0.21162970955863417,18.977672928110028,-23.31586685654617,22.541239009752424
1761284166.817359,-9.63467437414967,0.14754607927006566,0.9829403306938039,-0.2208701411790959,19.13978405360999,-19.64324673951161,23.121296452025124
1761284166.8266952,-9.06366948171121,0.13890478752384122,0.9903246247540506,-0.2305085477964487,19.090541008809605,-14.43841289663132,23.351564820895902
1761284166.836641,-8.500873950636203,0.11979103400511926,0.9931050556357326,-0.24074465141432588,18.761317081592093,-8.197737282493863,23.210863032231938
1761284166.8468654,-7.963609120041369,0.0923852694998798,0.9912044820738343,-0.2514951835947434,18.128857116634194,-1.448250440976745,22.717309273761533
1761284166.8566751,-7.467930034079561,0.05906587182720678,0.9853483575112427,-0.2624296949726481,17.209376017597144,5.302537646919065,21.921128107231283
1761284166.8666208,-7.02726311986667,0.022265275505874208,0.9767878240222168,-0.27305945978564816,16.048759567294372,11.608331229011032,20.895852803707633
1761284166.8766356,-6.6512916657729955,-0.015660277615335755,0.9670038841205626,-0.282847493562352,14.711495993109235,17.11377412308446,19.72915227810881
1761284166.8866603,-6.345218163552035,-0.05254671690344702,0.9574431864617582,-0.29130937687830616,13.27035959872738,21.570675552017455,18.514180390188713
1761284166.8966672,-6.109474932483556,-0.08652079735455151,0.9493178275807045,-0.29808421524225587,11.798031511536873,24.841133185480142,17.342025440152206
1761284166.906637,-5.939888433731037,-0.11607625355121019,0.9434823348189619,-0.30296736965253995,10.361048480847849,26.889507364781867,16.29558199554591
1761284166.9183495,-5.828243317029669,-0.14012206095850777,0.9403848666474515,-0.3059071429723012,9.015894071792806,27.76619339475667,15.44498152247047
1761284166.927407,-5.763149434851444,-0.15799931229995648,0.9400793061160359,-0.3069746331433175,7.80674751285765,27.58654715950373,14.844582357585336
1761284166.936657,-5.731091912916997,-0.16946608175013267,0.942280477300321,-0.30631954624267754,6.764354887466132,26.508227859001067,14.531412088999557
1761284166.9466338,-5.717539678566582,-0.17465278107459511,0.9464448671252059,-0.3041253780341021,5.905611352786366,24.709767744781033,14.524865105389205
1761284166.9568284,-5.708000366351987,-0.17399462651231243,0.9518625009439416,-0.30057538436137465,5.233657370210469,22.372503164728112,14.827387649653188
1761284166.966721,-5.68893798466516,-0.1681529178469737,0.9577501930709792,-0.29583646351187215,4.738509607150593,19.66720205865248,15.425844745013102
1761284166.9770627,-5.648508389630875,-0.1579399638983244,0.9633398807768903,-0.29006224191038543,4.398382914053666,16.74587073207417,16.293268062235317
1761284166.9866486,-5.57710504635339,-0.14426018932527387,0.967956640529321,-0.28341099519315266,4.181860312997412,13.738407062159546,17.390736150391092
1761284166.996656,-5.467732012949313,-0.12807219552779392,0.9710803909223995,-0.2760702612419474,4.050937857609188,10.753095474063414,18.669242905367497
1761284167.0066357,-5.316226723050909,-0.11036690893619515,0.9723858377222759,-0.26827866023661745,3.9647620701514836,7.879502308968352,20.071559119829487
1761284167.016669,-5.121344672301955,-0.09214989187197271,0.9717580288992193,-0.2603363323614245,3.8836625276638044,5.192196001100954,21.534243638002188
1761284167.0266569,-4.884701545389331,-0.07441459202169194,0.9692847071788222,-0.25259841831417634,3.7729377284315846,2.7539190299705556,22.99004506333152
1761284167.0366633,-4.610558375746848,-0.05809854578143501,0.965229658809315,-0.24545085169348382,3.6058397194077267,0.6173312397074325,24.370898614317696
1761284167.0466418,-4.30544105439927,-0.04402419418826527,0.9599926298282989,-0.23927333227426026,3.3653423453211966,-1.1749306601673464,25.6115679648805
1761284167.056663,-3.977607193261733,-0.03283555253945267,0.9540614062289651,-0.23439873971950848,3.044531179853254,-2.5915820615542504,26.65376179859783
1761284167.0666437,-3.6364021213026945,-0.024946813135508707,0.9479611128546968,-0.2310792854191072,2.645733381139172,-3.6147807673500707,27.45034225583768
1761284167.0766957,-3.2915689066166536,-0.02051693742126656,0.9422051618172476,-0.22946663280557802,2.1787195410647087,-4.242265543657181,27.969108769279263
1761284167.0867083,-2.9525857652478686,-0.019457136913913178,0.937251605652192,-0.22960771816186237,1.6584068624588284,-4.48892920032446,28.195632761323413
1761284167.0968747,-2.6280968997683605,-0.021469827578411167,0.9334679139459368,-0.23145308636582165,1.1024829613753837,-4.387402456140125,28.13472941118166
1761284167.1067524,-2.3254842615986835,-0.026111186552310626,0.9311063526183119,-0.23487220253793778,0.5292922712940532,-3.9874255199781508,27.81032905130497
1761284167.1168354,-2.0506030168697666,-0.03286522388992961,0.9302909839756717,-0.23967019255926691,-0.04378343143389489,-3.35396094752865,27.263699669557045
1761284167.1272898,-1.8076759380081153,-0.04121462211428717,0.9310158245675866,-0.2456014541474244,-0.6013438690738672,-2.5641488570316073,26.550147870393403
1761284167.1366646,-1.5993153331938688,-0.05069318859686838,0.9331523016087186,-0.252376956575853,-1.1304085142586855,-1.7033139832112032,25.73448000945645
1761284167.1472108,-1.4266218879706243,-0.06090846490542542,0.9364632272293326,-0.2596643148128788,-1.6204043192565043,-0.8602841173029713,24.885628730952423
1761284167.1566422,-1.2893051456364497,-0.07153133090275952,0.9406202888995165,-0.2670831241477426,-2.0629012978569903,-0.12226846350438139,24.070927140872705
1761284167.1670048,-1.1857835866074644,-0.08225987087029668,0.9452227091118379,-0.2742015767258855,-2.451300912395,0.4304918191646085,23.350531629953128
1761284167.1766768,-1.113249063938585,-0.09277292871304073,0.9498161954130372,-0.28054237791087094,-2.7806301896822543,0.7300876343532184,22.77246003376429
1761284167.1866496,-1.06770923676374,-0.10269079282576367,0.9539132207624649,-0.28560505998241603,-3.0475120786552843,0.726029507587744,22.368642260827446
1761284167.1966584,-1.0440394910562592,-0.11155540148511701,0.9570175313210295,-0.28890759139957956,-3.2503027754167158,0.3896386811695084,22.152294707698267
1761284167.2066615,-1.0360763044797627,-0.11883365110928637,0.9586566890406475,-0.2900440178747869,-3.389327927472538,-0.28277983846793053,22.11684456024558
1761284167.2166622,-1.0367719503281538,-0.12394040659148096,0.958425233359481,-0.288749378986131,-3.4671177755740166,-1.2684998188796937,22.23655270041766
1761284167.2266428,-1.0384163916201101,-0.12627569791832222,0.9560374102152451,-0.2849603351651372,-3.488538713707817,-2.519050960372588,22.46889946240356
1761284167.2366471,-1.0329228446037944,-0.12527167748763854,0.951383835849429,-0.27885980658763554,-3.460741184226222,-3.9631519551327785,22.75867667180779
1761284167.2466612,-1.0121686867030328,-0.12044591859036295,0.9445829318322791,-0.27089531583573784,-3.3928810403195535,-5.511776537969336,23.043555390317472
1761284167.2566538,-0.9683800390220263,-0.11145695403830945,0.9360163582712414,-0.26176308192489117,-3.2956187067884968,-7.064998896512638,23.26068386691495
1761284167.2671645,-0.8945436851039867,-0.09815584688105876,0.9263381428150246,-0.2523537350759661,-3.18045844887469,-8.520082049479878,23.353653176205206
1761284167.2768183,-0.7848226756761407,-0.08062532880562252,0.9164503853602631,-0.2436612296470006,-3.0590495451923023,-9.780121082916523,23.27900160605339
1761284167.2866554,-0.634942629590415,-0.059197235213522256,0.9074445151174417,-0.2366631767397469,-2.9426064644759053,-10.762422973521177,23.01136614628145
1761284167.2966821,-0.44250657325664094,-0.03444054344006544,0.9005140221545377,-0.23218660728508017,-2.8415906033640392,-11.405716785498614,22.5464737198156
1761284167.306696,-0.20719057189833787,-0.007116475241784293,0.8968490433886399,-0.23077723290145213,-2.7657280643912623,-11.675284507956334,21.901414769753075
1761284167.3166862,0.06922416230330249,0.02189573380659179,0.8975238749930159,-0.23259266355249258,-2.7243372377165826,-11.565226746680896,21.112029106071432
1761284167.3266902,0.38300814833450364,0.05168891669223456,0.9033870495145616,-0.23734012911280636,-2.7268362777104316,-11.097363471445375,20.227680091241062
1761284167.336671,0.7288192566185284,0.08141131055700114,0.9149621372882353,-0.2442754385547592,-2.7832219678654915,-10.316731836556716,19.304104436553356
1761284167.34668,1.1001635552036144,0.11031847214681424,0.9323668457001341,-0.2522711979225076,-2.9042862200623922,-9.284238818612181,18.39532869212668
1761284167.3566682,1.4898948033860528,0.13777821051660105,0.9552584454372013,-0.2599496046816782,-3.101387171046017,-8.067635121679434,17.545793864106898
1761284167.3667045,1.8906588949691923,0.16323075209477877,0.9828141858072781,-0.2658615598857556,-3.3857140127429393,-6.732424618053436,16.783801626381
1761284167.3766775,2.2952118410332427,0.1861244581238682,1.0137542835319875,-0.26868360129367325,-3.767136671761721,-5.334439249476053,16.117193806798287
1761284167.3866642,2.6965817842001707,0.2058574865543607,1.04641126579714,-0.26740008514404595,-4.2528570601017215,-3.9154851963132042,15.531839317715033
1761284167.3966608,3.0880913407725297,0.22175438211138915,1.0788439673808032,-0.2614404180454498,-4.846136840253807,-2.502730188540094,14.993089981261717
1761284167.4066772,3.463292034716904,0.233095102163026,1.1089888339739609,-0.2507489462925147,-5.545347333916871,-1.1115588626883197,14.449944679523437
1761284167.4166765,3.8158787769784457,0.23919648890107256,1.1348358088368287,-0.23577684028116247,-6.343471901384677,0.24921533728813022,13.841288083030339
1761284167.4266696,4.139647270214841,0.23952820346769857,1.1546112895148537,-0.21739878329536846,-7.228035069450406,1.5713683839334647,13.10329466364515
1761284167.4366758,4.428535427434491,0.2338324242330949,1.1669475246164134,-0.19677027571319627,-8.181332326707466,2.8421231558331277,12.176952323895053
1761284167.4466712,4.676760212982443,0.2222133731254977,1.1710171371991578,-0.1751520400913833,-9.180878321146645,4.04109434749357,11.014686513379623
1761284167.4566572,4.8790338037367444,0.20517037160749682,1.1666134551826284,-0.15373400387979821,-10.200169450630963,5.139964342008507,9.585247710206911
1761284167.466684,5.030825082326769,0.18356454799712313,1.1541632746040014,-0.13349023086184994,-11.210043175940745,6.104829936029975,7.876327801769432
1761284167.4767025,5.128626314759752,0.15852872126378634,1.1346697826581933,-0.11508771196067928,-12.180952810719113,6.900497783372361,5.894745914891184
1761284167.48669,5.1701877677872226,0.13134466639527387,1.1095972112056092,-0.09885870267030114,-13.086283392019423,7.495533156253893,3.6644309950732357
1761284167.49667,5.154690064110943,0.10331627095870251,1.0807193729730062,-0.08483212245245028,-13.906458794808422,7.866718938478661,1.2227480285272576
1761284167.5066857,5.0828309152214475,0.07566096767738847,1.0499566713724926,-0.07280799527411294,-14.633172131014762,8.00182284125364,-1.384106004773436
1761284167.5167043,4.956808929215015,0.04943084172786376,1.0192209159616987,-0.06245271554460604,-15.272766749403155,7.900120028814909,-4.10589399370583
1761284167.5266807,4.780196181013189,0.025465798553176884,0.9902794538002632,-0.05339305486405477,-15.847719752139705,7.5707641444665725,-6.892688044981774
1761284167.5366805,4.557706130917043,0.004376812578631912,0.9646446936187478,-0.04529214108480064,-16.395385921840813,7.029617740999927,-9.698331169528727
1761284167.5466878,4.294881075970906,-0.013444759332420668,0.9434929264933468,-0.0378986115408449,-16.96362584992243,6.295427214153379,-12.48277396579196
1761284167.5567412,3.9977362816750674,-0.027798274314288312,0.9276152218033044,-0.031067795159182364,-17.603579703490283,5.386267724583856,-15.213241694458759
1761284167.566698,3.6724018879813554,-0.038634296319822486,0.9174011915094742,-0.024758645713756577,-18.360524307967314,4.317053481394476,-17.86434627175651
1761284167.5767167,3.3247996949725755,-0.04601422837582354,0.9128535669348443,-0.019011740846096626,-19.264306851923298,3.0986579765880595,-20.41738314487436
1761284167.586728,2.9603827278762656,-0.050077630908171675,0.9136291004464484,-0.013913844218986754,-20.321127010487942,1.7388512332251629,-22.859143914143093
1761284167.596693,2.583952307346904,-0.05102388130027607,0.9191002378577756,-0.009555328210022104,-21.508343231209444,0.24487875373499007,-25.180613408017024
1761284167.6067235,2.199551450856863,-0.04911274985881024,0.9284317171875919,-0.0059882329520918355,-22.773517380360964,-1.3728669118277277,-27.37588607295033
1761284167.6169572,1.8104183798109337,-0.04468525554974978,0.940665478297497,-0.0031936017471086596,-24.0381910942705,-3.0969377535006064,-29.441537067348886
1761284167.6267292,1.4189747016093988,-0.038200921241253356,0.9548060966094567,-0.0010658344956658767,-25.20606344632041,-4.899720880634672,-31.37654145810751
1761284167.6367986,1.026822920800316,-0.030280797428618157,0.9698987271873716,0.0005815839799309858,-26.174481751539474,-6.742166881031156,-33.18267905922838
1761284167.6468227,0.6347375582250512,-0.021739275249678513,0.9850927136147871,0.0019904615496805144,-26.84761278551898,-8.575182795583837,-34.86522706123814
1761284167.6569173,0.24265032981583787,-0.013584534873600833,0.999685565918068,0.003420259549111215,-27.14941160995909,-10.344063514313573,-36.43365733693393
1761284167.6666996,-0.1503533229144037,-0.0069703054890593585,1.0131434567391921,0.0051098655648004355,-27.034546197187762,-11.995661266800237,-37.90203730021003
1761284167.676943,-0.5459986177241704,-0.0030916643293178742,1.0250967979144974,0.007248687938500978,-26.495712400280436,-13.487217301291553,-39.28888678390457
1761284167.6867156,-0.9467197948991972,-0.003033033152726716,1.0353136160326804,0.009961380651957346,-25.56622607657654,-14.795120882673812,-40.61635368447491
1761284167.6967652,-1.355477678604545,-0.007592713114525027,1.04365798707991,0.01330411651815483,-24.317365383560393,-15.921552829514503,-41.90871137404279
1761284167.7067525,-1.7755009274427374,-0.017119581735976885,1.0500433582533892,0.01726641105855471,-22.8506143014138,-16.89714403334256,-43.19032971261017
1761284167.7168224,-2.2099754526087976,-0.031399733408274316,1.0543903142723379,0.02177280768259724,-21.285661160686107,-17.77839144267496,-44.48340554968166
1761284167.7269027,-2.6617212682181393,-0.04962309051680659,1.056596261837065,0.02668302872315941,-19.745647506306852,-18.639467481565767,-45.80582150469911
1761284167.7367644,-3.1329021115069713,-0.07044486367372516,1.0565218790258264,0.0317949751616659,-18.34165550428697,-19.559077520819937,-47.1695025987102
1761284167.7471611,-3.624809713555363,-0.09213791737092356,1.0539965775252615,0.036858171863261215,-17.15867140344011,-20.60404553917625,-48.579555198290414
1761284167.756815,-4.137752762384067,-0.1128132930391885,1.0488427810867131,0.041603181332798354,-16.24517313406867,-21.812196844746474,-50.034319750115834
1761284167.7667255,-4.671063185450306,-0.1306716716982077,1.0409162989794445,0.04578603929752768,-15.608015355508778,-23.17763777646489,-51.52627627727928
1761284167.7770615,-5.2232135594727405,-0.14424277959845438,1.030157014969506,0.04923904861898705,-15.213468565028052,-24.64147529279655,-53.043551397093424
1761284167.7867403,-5.792023224846754,-0.15257408331287128,1.0166406365781406,0.05191347872577163,-14.99424573477545,-26.090290369275145,-54.571635366951625
1761284167.796801,-6.374919152457991,-0.15534208365707117,1.0006196863073689,0.05389878532320208,-14.861327856667689,-27.363427366298385,-56.094856989954714
1761284167.8084602,-6.969211111868684,-0.15287520576527466,0.9825423599665042,0.05540862367826596,-14.718607981541608,-28.268693132047236,-57.59719266212628
1761284167.8179045,-7.572339430237581,-0.14609310220486474,0.9630423692585729,0.05673435007820674,-14.477979486798182,-28.604680408566534,-59.062105557191
1761284167.826743,-8.182059102739949,-0.13637956619608402,0.9428997165851594,0.05817692842903928,-14.072544372015551,-28.186856757411665,-60.47130883145955
1761284167.8367715,-8.796537542508567,-0.1254125848568524,0.9229779912397292,0.05997388965174663,-13.46604594910323,-26.87393951040416,-61.80258511471481
1761284167.8467822,-9.414361896624856,-0.11497546988542241,0.9041459583585525,0.062238153118328345,-12.65731349821059,-24.591007399664253,-63.02702080505575
1761284167.8574114,-10.034468063560674,-0.10677019035842585,0.8871906772744697,0.06492162855639694,-11.679302799408143,-21.346285681494688,-64.10617286054166
1761284167.8667653,-10.656011587272518,-0.10225095620717739,0.8727285292327837,0.06781090487098719,-10.593086737277824,-17.239463693335,-64.9897380815598
1761284167.876845,-11.27820123009138,-0.10249320204940877,0.8611208105804496,0.07055657187921657,-9.477777683149402,-12.460549085065633,-65.61424137831018
1761284167.886761,-11.900113148829204,-0.10810827857176908,0.8524017295756403,0.07273199036778223,-8.417777571944754,-7.279386513767356,-65.90314446555251
1761284167.8971932,-12.520499240519063,-0.11920636824192404,0.8462280373049875,0.07391146887833659,-7.488947917443736,-2.026877553463735,-65.76864948465291
1761284167.9067414,-13.13759787576393,-0.13540196576891134,0.8418606028213146,0.07375281864357704,-6.745327142964416,2.9304380188320156,-65.11534911626401
1761284167.9167187,-13.748950718513663,-0.15585140078952206,0.8381884090403335,0.07206716614493514,-6.207961149427505,7.220419282702622,-63.8457415939258
1761284167.9267354,-14.351228609532907,-0.17931198544607893,0.8338041239123886,0.06886124329358119,-5.857262731405717,10.497809390629564,-61.8674716891839
1761284167.9367666,-14.940074271166104,-0.20421723212972984,0.8271370042024643,0.06434385869298678,-5.630023877518884,12.476972170720453,-59.1019724374804
1761284167.9468746,-15.509979525702455,-0.22877114093662224,0.8166426496746881,0.05889667374234322,-5.4217213404121605,12.962661219653176,-55.49396153450945
1761284167.9567864,-16.05422807657277,-0.2510736262963593,0.8010397514367639,0.05301712124936664,-5.094105071911669,11.876483150001848,-51.02099488758743
1761284167.9667604,-16.564948205442235,-0.26929247046005406,0.779572355939033,0.04724696313085998,-4.487376374480346,9.276453592911771,-45.702035627209334
1761284167.9767628,-17.03332704149138,-0.28188882182222835,0.7522644679679645,0.042103181212903434,-3.4357365730184823,5.366698138322777,-39.603829101422576
1761284167.9867635,-17.450032125972086,-0.2878832685187621,0.7201253862169685,0.03802723593752075,-1.7848238378761159,0.49415353635977727,-32.84384825932203
1761284167.9967754,-17.805861013795262,-0.28712478071756836,0.68526233826599,0.03536222129709309,0.5905034436021154,-4.870552546566744,-25.58872744478672
1761284168.006727,-18.09259393870544,-0.28050387075814276,0.6508630333619653,0.03435585619307329,3.769577883507066,-10.169672789422952,-18.04746992499057
1761284168.0167508,-18.30396341585095,-0.270040584782957,0.6210235609794336,0.03517520959239756,7.772086248727029,-14.811774438759938,-10.459334681831834
1761284168.026755,-18.436592900287813,-0.258782250489526,0.6004148708174654,0.037912016733732734,12.548527204328225,-18.23836428820694,-3.0771558315636027
1761284168.0367818,-18.490717176866823,-0.25046866980655297,0.5938026431508574,0.04255931918248512,17.976346309801766,-19.996607109700655,3.8522235474897704
1761284168.046779,-18.470501867717864,-0.24896352742873543,0.6054594538016353,0.04895275286091614,23.862727356986337,-19.808109097162657,10.107952991393049
1761284168.0567534,-18.383835771202012,-0.2575051623479634,0.6385321662853675,0.056690371635325344,29.954351357008772,-17.62224277253136,15.512833978881414
1761284168.0667925,-18.241564843028538,-0.2778880708181123,0.6944459559794113,0.06506403181837575,35.95357415005238,-13.643139043998582,19.946184062310348
1761284168.0768175,-18.056245205982993,-0.3097359431130406,0.7724321661166915,0.07304153567877758,41.53958666866906,-8.322445715267753,23.35040569681084
1761284168.0867493,-17.8405896201661,-0.35005293187784514,0.8692588554190921,0.07932705483036939,46.392494909330544,-2.3148883861265617,25.73105986545133
1761284168.0969558,-17.60584818248061,-0.39322586617302185,0.9792293441931431,0.0825024533768967,50.21818928705408,3.6001816346048003,27.15149378515703
1761284168.1071873,-17.36038564634617,-0.4315824740405323,1.0945040786802471,0.08122292218264672,52.77237021622968,8.621794162032566,27.723876882339663
1761284168.1167622,-17.108687380574537,-0.4564904158394879,1.2057870698393534,0.0744162719633421,53.88271450549831,12.040381778517395,27.59859413942984
1761284168.126747,-16.850948660475368,-0.4598363223940853,1.303376955248099,0.061427759905076706,53.46829818062825,13.34351792555082,26.95334560592333
1761284168.1367557,-16.583297985292557,-0.43559984626088993,1.378495265242549,0.04207198167882461,51.55473532451257,12.297167419477914,25.982323929065444
1761284168.146763,-16.298603122435395,-0.38117816337840893,1.4246777237331565,0.0165974731065958,48.28229436779888,8.98817393722558,24.884954939604405
1761284168.1567898,-15.987731123573994,-0.2981444146068601,1.4388990292730905,-0.014386452593091566,43.90325764682332,3.8192436282812934,23.85332464163509
1761284168.166755,-15.641087049929382,-0.1922414119583374,1.4220855934700718,-0.049961635393501375,38.76503333691173,-2.5445495569481382,23.05785935087988
1761284168.176769,-15.25023463882493,-0.07259800209760307,1.3788175441197559,-0.08891012896317994,33.277794855540705,-9.269639814883316,22.632046445056623
1761284168.1867476,-14.809399209107438,0.049645635744901516,1.3162885781246412,-0.1297153735788613,27.869406135343457,-15.471753772509851,22.658473607078793
1761284168.1968114,-14.31666899233941,0.1629817162545597,1.2428397476787219,-0.17062037110407352,22.934504698131175,-20.33627327023563,23.159334783238265
1761284168.2067542,-13.774749920164297,0.25710183994984354,1.166485106914129,-0.20978688539348173,18.78701228384738,-23.220572252585647,24.09408156216869
1761284168.216898,-13.191189791380024,0.32411873195058544,1.093781343062009,-0.24554230772054597,15.625094298879848,-23.723631339818777,25.36514711564883
1761284168.2267625,-12.578058151240176,0.3593013270904316,1.029226349594066,-0.2766436824642092,13.514889819056437,-21.716627841613295,26.830513380407872
1761284168.236811,-11.951129611348705,0.36130752699196633,0.9751910419233772,-0.30246438332644154,12.39512885636146,-17.336015567970772,28.320459008027488
1761284168.2467506,-11.328662216186611,0.3319886951942785,0.9322564559288773,-0.32303007249605215,12.100373154095637,-10.94604152951333,29.65580226550136
1761284168.2567585,-10.729896221510893,0.2758786867354075,0.8997669176894983,-0.33888631925500917,12.397237470499398,-3.0803242095706023,30.666069911383897
1761284168.2667522,-10.173430592848796,0.19947709469553404,0.8764139235017345,-0.35084467094745153,13.026053885171464,5.627503310127894,31.20703183573411
1761284168.276753,-9.67565849876645,0.11041849277503789,0.8607149832232087,-0.3596969710417325,13.740047168967024,14.515171300094803,31.17679396179274
1761284168.2867956,-9.249443010511175,0.016610203412186473,0.8513213558334327,-0.3659904674459908,14.335365623417664,22.957841046239583,30.528511032833624
1761284168.2967813,-8.903179932384425,-0.07457635445616179,0.8471524948843454,-0.3699221259470668,14.668278860823511,30.422940281725356,29.277266869622803
1761284168.3067646,-8.640331307448918,-0.15697523088356918,0.8473966069175363,-0.3713610063559787,14.659545744641228,36.509173477731885,27.499503689199305
1761284168.317372,-8.4594389818556,-0.22608632208885834,0.8514331565362491,-0.3699667197680034,14.28879208240378,40.96691313167602,25.324933253987744
1761284168.3267603,-8.354563175032474,-0.27928880721226224,0.858730428156221,-0.365353433957629,13.582830844088003,43.69962454048348,22.922255054216773
1761284168.3367934,-8.316047818364213,-0.3158092931295941,0.8687570208209011,-0.3572520814385911,12.601484905173416,44.74858906955188,20.480892625692746
1761284168.346797,-8.331493332181228,-0.33648148215960444,0.8809272073889136,-0.3456383980465258,11.42345402609574,44.265278624497185,18.191346959814744
1761284168.356799,-8.386814990998458,-0.3433587459108639,0.8945830418225702,-0.3308100802931004,10.133770827317814,42.476849755230916,16.226737669685164
1761284168.3667605,-8.467277735231674,-0.33925315437289544,0.9090059827909835,-0.3134071025499802,8.813683861524046,39.65026845936421,14.727734645442768
1761284168.3767688,-8.558421794314537,-0.327273849798892,0.9234484331360057,-0.2943757533634679,7.533358410299489,36.05971670332283,13.792448042251575
1761284168.3867967,-8.64682067313266,-0.31042455446602835,0.9371776948097866,-0.2748821694476242,6.34747084687977,31.96050494795809,13.472043917764806
1761284168.3967862,-8.720637330204505,-0.29129820527355504,0.949527025580612,-0.2561868331965418,5.293505126023984,27.571110950101502,13.77202121610095
1761284168.406793,-8.769964183090757,-0.2718835466552152,0.9599482703383887,-0.23949759154489436,4.392322932128272,23.06352634279241,14.65834620872865
1761284168.4168046,-8.786950683228305,-0.2534804387315007,0.9680583890454232,-0.22582370350458567,3.6503952481401183,18.561039585952614,16.067075054472173
1761284168.426797,-8.765741091364102,-0.236709686230069,0.9736704561859043,-0.21585489325747942,3.062986418294128,14.141985018630299,17.915752532222026
1761284168.43679,-8.702264344487602,-0.2215982280822406,0.9768005981149441,-0.20988585797441997,2.6175990367856596,9.84777786811166,20.11478536876121
1761284168.44679,-8.59393442857122,-0.20771940634520825,0.9776465502303301,-0.2077987680597964,2.2971229786982184,5.693582786357501,22.57716412988962
1761284168.456816,-8.43932859328467,-0.19436809592469442,0.9765398691048959,-0.20910615299071916,2.0823516858538675,1.6800741052027943,25.225318427613306
1761284168.4667678,-8.237907688996968,-0.18074973086529655,0.9738801034729105,-0.21304630441971228,1.9537694405213553,-2.1951258242568072,27.994447954283373
1761284168.477898,-7.989827336287451,-0.16616116597487532,0.9700635063773917,-0.2187144743728146,1.8927040716801438,-5.927570521705512,30.83226650162406
1761284168.4873714,-7.695864946886441,-0.15014207412613684,0.9654201526757434,-0.22520706711755337,1.8820314290024966,-9.498653424322994,33.69564310894537
1761284168.4969647,-7.357461887654819,-0.13257925961832448,0.9601712665308105,-0.23175395772968696,1.9066054811018034,-12.87143431322181,36.545068665120326
1761284168.5068157,-6.9768559730618875,-0.11375161024039132,0.9544135309941016,-0.23781657095149406,1.953509071782018,-15.989853088608214,39.33818184965225
1761284168.5167813,-6.557258837991929,-0.09430929905533927,0.9481306355796447,-0.2431359768165074,2.012132902898419,-18.781198213088384,42.023733335583344
1761284168.5267878,-6.103019289684941,-0.07518833495938429,0.9412267044130843,-0.24772466760222178,2.074043210929881,-21.161418786042926,44.53732726838899
1761284168.5367668,-5.619712208490716,-0.05747150706858687,0.9335734743405272,-0.2518060071659127,2.132614445758962,-23.042644316866177,46.80003106837197
1761284168.546775,-5.114103925619313,-0.04221705789215951,0.925063214788346,-0.2557149430346062,2.182472103694719,-24.342075070210747,48.720506678752024
1761284168.556788,-4.593965389328225,-0.030283550184641312,0.9156607675690736,-0.2597813643775979,2.218876411840349,-24.991246862538993,50.20076492783701
1761284168.5668538,-4.06772869963886,-0.02218105204480569,0.9054490668591818,-0.2642220837973082,2.237233161816104,-24.94460689889291,51.14507418764288
1761284168.5767896,-3.5440068495854793,-0.017974050443503874,0.8946626895687232,-0.26906670187214804,2.232906746858391,-24.186399133949426,51.471035071593036
1761284168.5867925,-3.0310180652516565,-0.017251219457750665,0.8837042606425158,-0.2741354729763921,2.2014250162581326,-22.73505601704849,51.12141875276422
1761284168.5968058,-2.5359731448146667,-0.01916439814237938,0.8731399035257268,-0.2790753227089561,2.1390350477421833,-20.644605970543726,50.07511582403061
1761284168.6067808,-2.0644954378466633,-0.022527555242263752,0.8636725569890943,-0.2834466711214521,2.0434430685921408,-18.002976667257048,48.35550106830899
1761284168.6167865,-1.6201472669402985,-0.025958239962626497,0.8560954341371497,-0.2868415986264431,1.9144963027293762,-14.927423675168345,46.03470385045932
1761284168.6267912,-1.2041317566429948,-0.028039448857629868,0.8512314223173929,-0.28900532837082926,1.7545636027584017,-11.557580207274698,43.23268347684468
1761284168.6367965,-0.8152233617256759,-0.027478642863481877,0.8498664905217974,-0.28993022383822914,1.56843786312485,-8.046787046645361,40.11062086304816
1761284168.6467938,-0.44995387007418464,-0.023242636201323327,0.852684975816805,-0.28989628230481085,1.362683879598915,-4.552423522113578,36.85887835452791
1761284168.6567826,-0.10304655133553949,-0.014652454258081602,0.8602122813758527,-0.28944397764539376,1.1444593690966194,-1.2259339422350441,33.680531867801726
1761284168.666811,0.23194431449048686,-0.0014306471717070014,0.8727678300665734,-0.28928093162694646,0.9199354513546338,1.796815562363252,30.772133757607943
1761284168.6768024,0.5618605836052871,0.016296819367528692,0.8904297603028412,-0.2901387560959191,0.6925419313841417,4.404222536513582,28.303840793969872
1761284168.6867929,0.8931230739006902,0.03803377435863494,0.9130129628909754,-0.2926072221537028,0.4613550457056227,6.515975498239692,26.401269138656907
1761284168.6969144,1.2309615194399997,0.06296782230955408,0.940062143884103,-0.2969782528023678,0.21999415062390335,8.087657900890022,25.13134931812998
1761284168.7068417,1.578773553285048,0.09003243195846458,0.9708602939204082,-0.3031314964892679,-0.04364659604368048,9.112266204492084,24.49402051401067
1761284168.7168467,1.937676933666149,0.11797018064244656,1.004451186597824,-0.31048631023055695,-0.3466499995017275,9.618339063822086,24.420881750526107
1761284168.7268217,2.3062953364444314,0.1453960345103707,1.0396749298177914,-0.31803315691649053,-0.7093471282257728,9.664943238673695,24.781036578385525
1761284168.7368152,2.68078944757625,0.17086303481323714,1.0752187677342488,-0.32444346406407154,-1.1528755402294084,9.334320505511174,25.393463234545173
1761284168.7468023,3.055116137472702,0.19293424712145293,1.1096878275497597,-0.3282435272925304,-1.6964727673473068,8.723395026321842,26.0444210921122
1761284168.7568169,3.421475148135226,0.21026490480724883,1.1416978774142021,-0.32802633396164,-2.3550348587997836,7.935482602370437,26.507762739641567
1761284168.7668548,3.7708881210637215,0.22169664578804701,1.1699837063616725,-0.3226664434241563,-3.137430245026403,7.07343086547112,26.565655070894955
1761284168.7768073,4.093847638115313,0.2263609480593556,1.1935061354948922,-0.31150006837205385,-4.045905820379714,6.235092157871318,26.027194703052142
1761284168.7872958,4.380970974747366,0.22378154683450163,1.2115330451130506,-0.2944373707849024,-5.076683544162501,5.511519802797793,24.742760208809788
1761284168.796805,4.623592184884971,0.21395671890870704,1.2236697831969683,-0.27198538400185596,-6.22157283918664,4.987618963987546,22.612650401700517
1761284168.8068223,4.814227111328872,0.19739480911620022,1.2298251037815964,-0.2451752770628174,-7.47020232006495,4.744282337259554,19.589519660468316
1761284168.8168197,4.946852772320651,0.175076563559745,1.2301195336201036,-0.21540554655372737,-8.812401680415018,4.860491917002053,15.675167513813927
1761284168.8268158,5.016963213351565,0.1483326514120929,1.2247669919694357,-0.18423121432219733,-10.240364342582572,5.413656104855793,10.913158383292702
1761284168.836815,5.021404937374979,0.11865368795060215,1.213976974181123,-0.15314350869465712,-11.750391519057066,6.476662479444263,5.3793442572446555
1761284168.846822,4.958050152676236,0.08747878875366823,1.1979235080454083,-0.12338829186297635,-13.344118031259727,8.1107569552466,-0.8274850829342308
1761284168.8569002,4.825412603000235,0.056017423323155416,1.1768042378391872,-0.09586054467315541,-15.029108910496381,10.3543410150308,-7.59292736867591
1761284168.866903,4.6223253194972065,0.025142725247461386,1.1509760909986415,-0.07108963635574311,-16.81866996274875,13.208931291354878,-14.791136627628509
1761284168.876854,4.347777434034785,-0.004632664149575348,1.1211202593506224,-0.049304547760753076,-18.730717514459787,16.624541329096196,-22.285749526184762
1761284168.8868613,4.000962289269816,-0.033106468964118764,1.0883732260892998,-0.030547160679423622,-20.785610609975162,20.487318550735697,-29.928503240861208
1761284168.896827,3.5815399690721565,-0.060277360112660716,1.0543665603161372,-0.014790342388662338,-23.00293382226975,24.612296825820493,-37.5571439670724
1761284168.9068265,3.0900754864839834,-0.0861932076351886,1.0211427353230693,-0.0020209868207351025,-25.397323267819154,28.74372627897815,-44.99439258338512
1761284168.9168293,2.528581692691851,-0.11078078393657981,0.9909493946095026,0.007732666748851285,-27.97356414410394,32.56476134928364,-52.049483686295616
1761284168.9268382,1.9010716454048866,-0.1336941202871097,0.9659493628493219,0.014424361132966884,-30.721363517533057,35.7173198025423,-58.52331238897372
1761284168.9368312,1.2140093962979277,-0.15422821023074224,0.9479075065331334,0.018041236817041006,-33.61040648607113,37.831568799606316,-64.21764564860254
1761284168.9469397,0.47654733238592556,-0.17133564778213903,0.9379213700126016,0.018658825008296877,-36.58647200459933,38.56278999341443,-68.94816065337211
1761284168.956817,-0.29954088432264125,-0.1837560784454424,0.9362500432056496,0.016482040499889373,-39.5694030674163,37.63164631122635,-72.56018562975126
1761284168.9668276,-1.1002801630449395,-0.19023756251231116,0.9422713090829704,0.011861514437798119,-42.45355046929495,34.8625668525558,-74.94504644940677
1761284168.9768474,-1.910257272091043,-0.18980454638818944,0.9545693720756664,0.005281880483156917,-45.1110387419211,30.214434973874756,-76.05422206404714
1761284168.986857,-2.713654894721213,-0.1820096190835662,0.9711312765807514,-0.0026719302779374472,-47.397944668731164,23.798236696883436,-75.9084671752983
1761284168.9968343,-3.4954281964614915,-0.16710415285898542,0.9896140280337451,-0.011358159519743892,-49.163219118979974,15.877881676662428,-74.59979036552367
1761284169.0068398,-4.242463412039293,-0.14608585049047731,1.0076374619215318,-0.02012059138607964,-50.25987776175302,6.852838711529252,-72.28545210824622
1761284169.0170133,-4.944558663664145,-0.12061926924906437,1.023057866121641,-0.028324076159102655,-50.55766527537311,-2.7759518299571853,-69.17457635095319
1761284169.0268464,-5.595098214985878,-0.09285631217582775,1.0341830782272383,-0.035381646714437734,-49.95610700287188,-12.452796053504372,-65.50919876576573
1761284169.0368788,-6.191340671513201,-0.06519520103312332,1.0399025551819803,-0.04077466517704234,-48.39661638519835,-21.620603340749696,-61.54236864095364
1761284169.0468855,-6.734296164414125,-0.04001278108263021,1.0397253151711745,-0.04406980526682489,-45.87216123948405,-29.774072015001693,-57.516190152030255
1761284169.0568306,-7.2282188390605295,-0.019397695247443864,1.033739430331548,-0.04493706152533937,-42.43299755061104,-36.50617720548866,-53.642484225285806
1761284169.0668392,-7.679784951083873,-0.004908655455169861,1.0225208007987092,-0.04317031875779984,-38.18726117155599,-41.54261707105789,-50.08817986974511
1761284169.0768588,-8.097060664897878,0.0026176671692668173,1.0070204320667437,-0.0387078032652238,-33.295799191621576,-44.76071972044411,-46.96670353970509
1761284169.0873978,-8.488384112949976,0.0031850835742781095,0.9884492666570639,-0.03164705095424805,-27.961421443156098,-46.191529239276086,-44.335672335818636
1761284169.0968885,-8.861291025946407,-0.002336519080443723,0.9681653232062298,-0.022249441649234498,-22.41355901193952,-46.0059813609156,-42.200321930441966
1761284169.1071622,-9.221602232954226,-0.012287290339724775,0.9475590219007357,-0.010931617586200964,-16.889940082483957,-44.4878778541371,-40.521487400970656
1761284169.1168876,-9.572767821319664,-0.024391412607769183,0.9279347759413981,0.0017567448298020942,-11.61722971058744,-41.997550537598805,-39.226649562994304
1761284169.1269507,-9.915532188607926,-0.036015088422032424,0.9103973714032256,0.015168030144113961,-6.7926517850398636,-38.930626797654064,-38.22249310535247
1761284169.1368525,-10.24795087792871,-0.044487352670241814,0.8957601498320196,0.028603117765341628,-2.568530704364357,-35.67628288178659,-37.407507053461444
1761284169.1468818,-10.565755403342854,-0.047453712177371994,0.8844902568591071,0.0413666673470935,0.9585103979332044,-32.578965178120114,-36.68336483693773
1761284169.1568644,-10.86302714651419,-0.043222227759805644,0.8766960570339077,0.05282691789014153,3.7524066492995547,-29.90688160565566,-35.964178018315415
1761284169.1670012,-11.133108296633756,-0.031055568022769778,0.8721515739272273,0.06247339237648538,5.836061650480285,-27.829691192091538,-35.18320826992282
1761284169.176887,-11.369650220745461,-0.011364623321764725,0.8703477147141192,0.0699643957385914,7.28379482141583,-26.406852439567825,-34.29711667734807
1761284169.1869793,-11.567682505393515,0.014230050796695223,0.8705596933690812,0.07515616378269947,8.20921683435876,-25.58711600033877,-33.28816648651146
1761284169.1968741,-11.724584977847172,0.042983532334719986,0.8719225539506452,0.07810739646550599,8.750505049550304,-25.218694767961978,-32.164913209932074
1761284169.2069552,-11.840860560172727,0.07125117653966248,0.8735102457929336,0.07905673604418637,9.05517434069083,-25.06875128642619,-30.961837194243582
1761284169.2168763,-11.92063006804156,0.09483104126316044,0.874415781856669,0.07837517375260802,9.26614023887189,-24.850096094315152,-29.738116418104102
1761284169.226879,-11.971792385716093,0.10939770969303764,0.8738291446674035,0.07649859535070822,9.510335049517916,-24.252474987611116,-28.57535624809039
1761284169.2368805,-12.005815720355637,0.11099474114860809,0.8711080493522607,0.07384780646752123,9.890555467480405,-22.97556873615872,-27.57375421945545
1761284169.2469227,-12.037152989754398,0.096538413338463,0.8658378872609437,0.07074619571676212,10.480670479232376,-20.760845326543837,-26.846058867809365
1761284169.2569027,-12.082305984299072,0.06427075017760639,0.8578801746153543,0.06734927024950227,11.323801064515418,-17.419706387378884,-26.508819409485508
1761284169.266858,-12.158594097895378,0.014096353116209711,0.8474080262819185,0.0636031404351003,12.432649546110458,-12.855918280958836,-26.67075040303135
1761284169.2768638,-12.282715219079702,-0.0522541294167791,0.8349189981939327,0.059246525056306606,13.790980887327962,-7.080969030192944,-27.418529073314595
1761284169.2869294,-12.469224419058198,-0.13127706954261625,0.8212040389273998,0.05386081912809154,15.355564043539932,-0.221551571163738,-28.8010374051056
1761284169.2968588,-12.729097089864224,-0.21798902416372268,0.8072467879240054,0.046957616865718116,17.05871038613847,7.481262932710886,-30.813900617797582
1761284169.3068612,-13.068567050814666,-0.3064506849664626,0.7940412632464743,0.038079624187485936,18.812521381780723,15.681396132684677,-33.38690550472168
1761284169.316864,-13.488410296208478,-0.3904625175062037,0.7823513215461765,0.0268874760028545,20.5163699715665,23.945752072950114,-36.37713585709714
1761284169.3268692,-13.98377132308987,-0.46431864504919684,0.7724795538993658,0.013215720782371232,22.068463023859156,31.780605229954798,-39.57016757484878
1761284169.3369265,-14.54452262180706,-0.5234743099621609,0.7641390542934852,-0.0028999366749470077,23.380704700757736,38.66555975960445,-42.690457102569184
1761284169.3468804,-15.15605172572519,-0.5649987890936214,0.7565031385574988,-0.02120879519909619,24.39424741825358,44.09332027998324,-45.420490597096915
1761284169.3568885,-15.800319431889617,-0.5877481420347669,0.7484465376272669,-0.0412305896800572,25.091946044375607,47.61247786330856,-47.426808134937446
1761284169.3668747,-16.45703416866482,-0.592269904388074,0.7389197803886628,-0.06223853345142608,25.503998517218893,48.86964956485824,-48.390015014539244
1761284169.376924,-17.104824122341874,-0.5805099479717786,0.7273542923825824,-0.08325268524216746,25.7044908653078,47.64679336614699,-48.03546938572609
1761284169.386895,-17.72233841493414,-0.5554152104683309,0.7139927323905751,-0.1030653483664086,25.79899306945503,43.889468096304206,-46.16145592012409
1761284169.3968725,-18.289254812756855,-0.5205200076983455,0.7000662106606939,-0.1203200822424522,25.905931767063255,37.72232889261532,-42.66215830058334
1761284169.4069073,-18.78720364505575,-0.4795803241745079,0.68777936484966,-0.13365531681409565,26.136196195438714,29.44930687027502,-37.54340792113831
1761284169.416888,-19.200628655680358,-0.4362897401128315,0.6801029991942187,-0.14190400130026606,26.575663464191898,19.537609072640123,-30.929829841667303
1761284169.4269063,-19.517591246707052,-0.39407905570067436,0.6804055305223692,-0.14431717882904246,27.27406200794311,8.586517474961385,-23.062540321844804
1761284169.436916,-19.730487259254026,-0.3559758174154576,0.6919757967806667,-0.14075982439394108,28.241407990814217,-2.7165120246537295,-14.286994014251691
1761284169.4468987,-19.836597728893683,-0.3244877316427007,0.7175008129693584,-0.1318208284316943,29.451001094422082,-13.648987498486568,-5.031054568017211
1761284169.456892,-19.838358544388296,-0.30148018721757697,0.7585660561193126,-0.11879201476901903,30.84643144914286,-23.511785192744615,4.225992783385443
1761284169.4669337,-19.74322983743823,-0.2880397359338148,0.8152466003457767,-0.10350213705684355,32.34964355649882,-31.688523916436417,12.991887558694172
1761284169.4768894,-19.56308333860261,-0.2843419200232852,0.8858553370545684,-0.08803030284138182,33.867769189339306,-37.701229497290626,20.804607450303777
1761284169.4868903,-19.31309688647625,-0.2895604267306094,0.966906058067596,-0.07435530420206794,35.29776120531882,-41.25709536855409,27.276489212093605
1761284169.4968977,-19.010230868621246,-0.30185713872077546,1.053328559253914,-0.06401458197189153,36.52927099897496,-42.280639592556675,32.13440359909426
1761284169.5069172,-18.67144285626502,-0.31848112692951114,1.1389359416369225,-0.05784906508750782,37.44723982057293,-40.925387936444814,35.25060764696083
1761284169.5169055,-18.311860253312474,-0.3359868635424631,1.217095873735551,-0.055899953051961784,37.93612113463691,-37.5599868129612,36.659173971827215
1761284169.5268815,-17.943164460380682,-0.35056279473035434,1.281514170157971,-0.05749748744132026,37.88755238646558,-32.726203004895275,36.55426915871889
1761284169.5370505,-17.572433147944846,-0.35844283264503424,1.3270156877240893,-0.06153409059442732,37.21262084932021,-27.071003519595212,35.269009340964885
1761284169.546925,-17.20163601630596,-0.3563596246364847,1.3502041548084258,-0.06684936354479461,35.85841569120058,-21.26101426478423,33.23665326760609
1761284169.5569234,-16.8278905818806,-0.3419921285664286,1.349891868196541,-0.07259724952758069,33.82633708804502,-15.893085959785617,30.93872966487731
1761284169.5669074,-16.444471385805812,-0.31435551938506495,1.327215565135872,-0.07845432993874286,31.187321879427348,-11.417103962816343,28.846741367328608
1761284169.5770173,-16.042443897158574,-0.2740725110651274,1.285406179892647,-0.0845871500146345,28.08794337262273,-8.085225594724738,27.365145034289107
1761284169.5869384,-15.612681557669545,-0.22345808066843847,1.229252629447765,-0.09140777911643647,24.74226057963568,-5.935920633376498,26.78339336605454
1761284169.5969715,-15.147945582710486,-0.1663636490161347,1.164368741307261,-0.09925073130432098,21.407532608548394,-4.813572033960811,27.24387559616817
1761284169.6069837,-14.644688912600087,-0.10777468385827248,1.096412615116626,-0.10813879260536101,18.346702056014987,-4.417365685570823,28.73044506675618
1761284169.616987,-14.104299868499531,-0.053220987868067345,1.0304074390513362,-0.11775155619670129,15.785282124228088,-4.368487443061409,31.078988335433287
1761284169.626916,-13.53361055191974,-0.008104109224367306,0.9702736837316462,-0.12760384390498286,13.873020302675128,-4.28293178031931,34.0077757512997
1761284169.6369092,-12.944622391292233,0.022950416116456644,0.9186180395557508,-0.13734154503701843,12.660129517384435,-3.8381995667973356,37.16206057949846
1761284169.646909,-12.353513229628229,0.036634611177056124,0.8767586157571936,-0.14701500364070397,12.094073967512154,-2.82485004216213,40.16537525198534
1761284169.6569326,-11.779072837979408,0.03134215042619719,0.8449227673733224,-0.1572062696124817,12.037316153840235,-1.1772009504547232,42.66958853005842
1761284169.666912,-11.240767441026287,0.007364355255473753,0.822541827614709,-0.1689487179179805,12.301004595700364,1.0192379329221863,44.39690167005307
1761284169.6769533,-10.756663775542853,-0.033119333161377766,0.8085761080312875,-0.18345535134037794,12.68589002604804,3.542973188618586,45.169056122706834
1761284169.6869361,-10.341453117033943,-0.08626021768493639,0.8018181246014399,-0.20173718980761488,13.020653082632743,6.070996681828206,44.92146350267151
1761284169.6969085,-10.004805929154879,-0.1469511177730916,0.8011339161029577,-0.22422710394398962,13.189365466034578,8.22678912893377,43.702255388703016
1761284169.7071683,-9.75025403413188,-0.20938007653159382,0.8056133738950187,-0.25052038059592385,13.143335868368512,9.634503301775672,41.658126762431436
1761284169.7169492,-9.574734390796527,-0.26764490588998546,0.8146159161443763,-0.27930590711351394,12.896972089174023,9.971413953596171,39.01022675035985
1761284169.7269232,-9.468840023493431,-0.3163315980429551,0.8277186102395426,-0.3085064088255136,12.511231437746835,9.011440224353944,36.024204234836944
1761284169.7370453,-9.417725621524529,-0.3509771917848683,0.8445947896583453,-0.3355920308512806,12.07066679309538,6.654453595264578,32.97878942594147
1761284169.74694,-9.402529531743754,-0.3683796593895415,0.8648651072714711,-0.35799296976069767,11.660505541717349,2.9387708073255525,30.1369397299249
1761284169.7569146,-9.402115487291848,-0.3667594947058201,0.8879655433196576,-0.3735199991066229,11.348845808141418,-1.9629603571887504,27.722665862931674
1761284169.7669303,-9.394911005091902,-0.3458002538053976,0.9130682057711232,-0.38070741985147627,11.176679385786548,-7.762036492878532,25.90538383103338
1761284169.7769303,-9.360624005949113,-0.3065953761670008,0.9390739546972313,-0.3790178185273795,11.155936509401466,-14.08243203304805,24.792272195415354
1761284169.7869506,-9.281653797464852,-0.251516627448303,0.9646757757606508,-0.36888409658305715,11.273773653608366,-20.495958833633033,24.427906782670345
1761284169.7969704,-9.144074601169113,-0.18400911330216646,0.9884740050529637,-0.3516011106958223,11.500269363473777,-26.560052286303986,24.799596574214405
1761284169.807406,-8.938150307029968,-0.1083173249121935,1.0091141843955669,-0.32910749159061814,11.796639902923166,-31.854798722217005,25.846449670230726
1761284169.8169456,-8.658421367928325,-0.02915580602179195,1.0254183390974738,-0.30371198829092816,12.121849549168422,-36.01621675575005,27.470235121461133
1761284169.8269444,-8.303469249395755,0.04864968518583754,1.0364892409974893,-0.27781711191313363,12.436677087169059,-38.76320827299646,29.54647212348263
1761284169.8369775,-7.875495790637944,0.12051637629387131,1.0417792532819194,-0.2536794750630962,12.705450920571394,-39.916150422198285,31.934723382383645
1761284169.846967,-7.379849008130516,0.18241929999265238,1.0411246996235468,-0.23322735898201294,12.896410159152301,-39.405901827974134,34.48762428892218
1761284169.8569877,-6.8245887646029875,0.231138737690614,1.034750475653477,-0.21793866850369578,12.981817513942211,-37.27299301758701,37.05859673580513
1761284169.866936,-6.220129282996639,0.2644237447358259,1.0232489096797528,-0.2087717685201668,12.938607050357687,-33.657811554979375,39.50840650352953
1761284169.876964,-5.5789387459737085,0.28106782033422834,1.0075348047986303,-0.20613917881933272,12.749745436326664,-28.783491883862272,41.71075209224441
1761284169.88696,-4.915235860159526,0.2809034158269473,0.9887776065908384,-0.20991728004547489,12.405925118874896,-22.933827638895558,43.556999170859875
1761284169.8969595,-4.244609761600491,0.2647291380110549,0.9683125312879787,-0.2194897221483516,11.906916448267367,-16.42878310041421,44.96007289288734
1761284169.9069548,-3.5835044758894297,0.2341870474415719,0.9475351281517261,-0.23382450408324848,11.261957066585712,-9.600106120071947,45.85744345687892
1761284169.9172013,-2.9485443728837097,0.19160757552682178,0.9277874947954821,-0.2515831125007257,10.488881257454597,-2.769179568543379,46.21311707637641
1761284169.9269648,-2.355718443930158,0.13983695805162488,0.9102478134333437,-0.2712552094480674,9.612120589917753,3.771332303524419,46.018565240283976
1761284169.9369369,-1.8194754105857789,0.08205807303742949,0.8958362275494587,-0.2913064700065596,8.660042415786972,9.771178717292424,45.29255785991052
1761284169.9469512,-1.3518025919512306,0.021611558216769397,0.8851482646354277,-0.3103231149173492,7.662204673261239,15.031389474528742,44.079892585932605
1761284169.9569316,-0.9613705054302629,-0.038178993706278266,0.8784226255476482,-0.3271359722648892,6.647000024987658,19.408713001229305,42.44902943067971
1761284169.967292,-0.6528259369975306,-0.09417519583658031,0.8755449302710527,-0.3409093195998836,5.639953199373789,22.816339603770288,40.48864297357519
1761284169.976944,-0.426309592101167,-0.14358106453058192,0.8760841942561408,-0.3511843624981081,4.662742615414051,25.22166667225538,38.30310099213334
1761284169.9869397,-0.27725846918302854,-0.18408022466939383,0.8793550339725523,-0.35787305391364743,3.7328938598990993,26.641755975350954,36.00689572146029
1761284169.9969373,-0.19652731456454636,-0.21393970412808,0.8844968986666806,-0.36120430190297176,2.864030219290005,27.13705222102321,33.71812340061661
1761284170.007015,-0.17083291227053338,-0.23206800509987824,0.8905627762801291,-0.36163113245126305,2.0665379188717643,26.8039612027941,31.55123796215381
1761284170.0169904,-0.1834983432183596,-0.2380237255321257,0.8966127030589386,-0.3597140922456525,1.3484877682395433,25.766971023011948,29.609466924732153
1761284170.0269737,-0.21545775240265438,-0.23198302547903746,0.901809334181311,-0.3560025235681849,0.7166336256040132,24.171016474260743,27.97742501660217
1761284170.0369456,-0.24647319494060146,-0.21468232936047385,0.9055116366200442,-0.35093894685398325,0.17728099379752665,22.174633060618216,26.71456240187954
1761284170.0469606,-0.2565039998367105,-0.18735153937823912,0.9073586873006878,-0.3448090692864263,-0.2631936514989154,19.94410337895127,25.850121797953136
1761284170.0569546,-0.22714766305739978,-0.1516439201048703,0.9073316218321023,-0.33774937458868304,-0.5983653723337885,17.648349468461312,25.380232185639585
1761284170.0669441,-0.14304265868397253,-0.10955891466265494,0.9057814471320881,-0.32980879997519974,-0.8224374984310555,15.453933336311021,25.26762389878361
1761284170.0769458,0.006898942216086455,-0.06335006740255143,0.9034141254579847,-0.3210463349692646,-0.9315521345689043,13.519357452164028,25.444213719393527
1761284170.086962,0.22856473172837102,-0.015412545820625458,0.901229534429028,-0.31163695462409513,-0.9255457191428161,11.987998800479732,25.816493978271936
1761284170.0969822,0.522136985553542,0.031849758888615694,0.9004162624193197,-0.301955673434931,-0.8097986290386467,10.979465722134757,26.27330665395971
1761284170.106994,0.882084824911534,0.0761712592660245,0.9022110343178715,-0.29261350038907596,-0.5967326847587248,10.57986246458382,26.69526070424494
1761284170.116978,1.2976733905461555,0.11557326168720086,0.9077399713785002,-0.2844289275317418,-0.3065287659983655,10.83223496264361,26.964816306700264
1761284170.1270325,1.7539468174402628,0.14849664728974724,0.9178652481117405,-0.27833226274709766,0.033234125054976214,11.729124365596155,26.975931344981905
1761284170.1369677,2.2330805172521657,0.17389957380519971,0.9330610052091239,-0.2752142179885203,0.3891209498925924,13.209397606097497,26.642149853558394
1761284170.146999,2.7159485159296786,0.19130384182751356,0.9533363265531546,-0.2757416732873082,0.7244544690926009,15.161155111545094,25.902139166289455
1761284170.1569774,3.183721451408084,0.2007801651307548,0.9782140938646623,-0.2801712969895451,1.0026993438647407,17.43153699658434,24.72199062799972
1761284170.166949,3.619306553078709,0.20287198655247923,1.006766336614541,-0.288196470085967,1.1911579760551805,19.84288797479554,23.094087402219056
1761284170.1769385,4.008465886035437,0.1984679909239606,1.0377002869932437,-0.29886546751014953,1.264403845646589,22.213355495031983,21.03292456335529
1761284170.187028,4.3405009097728815,0.18864290087759358,1.0694834798259205,-0.31060625715836354,1.2068243545389068,24.378942274896048,18.568773852438905
1761284170.1969535,4.60846092687711,0.1744929576280819,1.1004906275885014,-0.3213793349614808,1.0136919565551736,26.213548444307232,15.740383561031052
1761284170.2069578,4.808907054670477,0.15699509758170138,1.1291518945870769,-0.3289513076439822,0.6903566812107783,27.64369387205415,12.587984863316882
1761284170.2169566,4.941327169394301,0.13691445690607582,1.1540845002164313,-0.3312441325705232,0.2494359356350072,28.655392230800402,9.14778768088418
1761284170.226974,5.007338050308691,0.11477289156277765,1.1741965773008383,-0.32668345203870336,-0.29379354514191,29.29197483124359,5.448886151531324
1761284170.2369602,5.00982266647615,0.090876632488271,1.1887577930566902,-0.3144619569535315,-0.9272813909897177,29.643295482541507,1.5130171046599508
1761284170.2469559,4.952135569341738,0.06539019384887179,1.1974311802805788,-0.2946561327899243,-1.6485722308490143,29.828283672529604,-2.6430379667848825
1761284170.2569718,4.837475485159076,0.038437900212966745,1.2002604045109528,-0.2681755759004633,-2.470646914942615,29.97386632818024,-7.003264134547248
1761284170.2669933,4.66848094489976,0.010212161143453097,1.1976143029195578,-0.23656570057860213,-3.426110890478326,30.193650429761135,-11.54769003213932
1761284170.2770112,4.447061028935885,-0.01893226624127782,1.190103180966237,-0.20171612129605673,-4.568650004718173,30.569458133610194,-16.248394154752017
1761284170.2869835,4.174436662819988,-0.04841549472022397,1.17848824367721,-0.16554409346314217,-5.970929679222021,31.13799868880115,-21.067161917967354
1761284170.2969642,3.8513446879370896,-0.07741092024972532,1.1636025000113979,-0.12972304603819218,-7.718586717709445,31.88391566160314,-25.955138278361922
1761284170.3069632,3.478349820289195,-0.10486401774259302,1.1462942446539324,-0.09551030990665575,-9.90059324942337,32.73945236310072,-30.854180067603256
1761284170.317121,3.0562144021233224,-0.1295428560968927,1.1273976519308628,-0.0636996087849749,-12.596933500019798,33.59025474841616,-35.69913575441431
1761284170.3269632,2.586283169624227,-0.15011120847170395,1.1077277044028488,-0.03469067447672088,-15.865085574039911,34.286466728712625,-40.42018503839293
1761284170.3369958,2.070842478845119,-0.16522126940897097,1.0880876323742368,-0.00863928130220534,-19.727135655069567,34.65816982923142,-44.94471328505069
1761284170.3469894,1.5134099376960368,-0.17362960314220907,1.0692705915335188,0.014367119465581953,-24.159410106113906,34.53412479327838,-49.19877815581701
1761284170.3570058,0.9189067251647778,-0.17434009027037145,1.0520390464950686,0.034165877185020996,-29.086281260546,33.76244855179274,-53.108711012930044
1761284170.366987,0.2936680861232973,-0.16676850937171148,1.0370762116802283,0.050452014970496485,-34.37932552180621,32.23127869322767,-56.603547336858334
1761284170.3770015,-0.35473795560103616,-0.15090820878675595,1.0249186224850662,0.06280560482144756,-39.86235416014081,29.8868671657222,-59.61876562251079
1761284170.3873618,-1.017887655987142,-0.1274627864978318,1.0158895917152346,0.07080087957339908,-45.32207320899428,26.74624763937723,-62.10133839978441
1761284170.3969927,-1.6870456082049745,-0.097908067743311,1.0100553499180338,0.07415883943863294,-50.52336846539607,22.90189718067349,-64.01553162609389
1761284170.4069862,-2.353815705513096,-0.0644554979179086,1.0072193973230674,0.07289360977527798,-55.22761382270334,18.51672530713847,-65.34842624396292
1761284170.417019,-3.010817618151149,-0.029908488325519778,1.006958745818223,0.06740834555050325,-59.21209628935136,13.809135289466713,-66.11394012881041
1761284170.4270196,-3.6523005847634646,0.0025758191331260844,1.0086924280675968,0.0585145190203481,-62.28862861088067,9.029532819630301,-66.3542548906634
1761284170.4373314,-4.274612743107727,0.029791301325555106,1.011763052621176,0.04736983737311679,-64.31955575938055,4.431156452660873,-66.13794642878374
1761284170.4470553,-4.876459666703501,0.0488188118771751,1.01550965415051,0.035347482569945674,-65.22955803113638,0.2391758102423908,-65.55467907639047
1761284170.4570312,-5.458906742241398,0.05735867227437507,1.0193145036027682,0.023860860737967178,-65.01191571648539,-3.377497626045503,-64.70694122240012
1761284170.467061,-6.025105340256867,0.0540297489815095,1.0226159297427633,0.014174760790433371,-63.7283036270919,-6.327350733306866,-63.69987086977195
1761284170.4770207,-6.579753340417122,0.03860761470355102,1.0248908314866536,0.0072360337104459506,-61.50179732095812,-8.606755384711107,-62.630650633534366
1761284170.487002,-7.128337440599078,0.012170333606176151,1.0256206968162673,0.003553470123388771,-58.50356730669253,-10.29754845313798,-61.579145174039375
1761284170.4970238,-7.676244498278792,-0.022885149119234886,1.0242600902374803,0.0031476715913090463,-54.93456985520559,-11.55135352058326,-60.601298272593716
1761284170.507393,-8.22786182936137,-0.06298847001991961,1.020225287271152,0.0055796496724513246,-51.004248139486236,-12.562551075604805,-59.72626087006065
1761284170.5170443,-8.785799457158223,-0.10371406141710798,1.0129140422178717,0.010053524592537555,-46.908711955309066,-13.534017048534114,-58.95742040067591
1761284170.5270226,-9.350354544646686,-0.14025035394598723,1.0017583919988347,0.015575205135537493,-42.810977891576236,-14.64133733002803,-58.27670979848582
1761284170.537007,-9.919303281505144,-0.16796776741083644,0.9863044639677514,0.021138179495659614,-38.82559530478593,-16.001677467599876,-57.65100398222024
1761284170.5470445,-10.488056791075435,-0.18301326967590767,0.9663079637179163,0.025903317408747396,-35.00943771833477,-17.652718767702005,-57.03911605114335
1761284170.5570397,-11.050162317854175,-0.18284815427283796,0.9418301463092994,0.029342776918078704,-31.35973390772419,-19.545301444425956,-56.39785866681859
1761284170.567039,-11.598075706771368,-0.1666424015435463,0.9133158828063945,0.03132644906612387,-27.819612937036386,-21.551013085942376,-55.685877092710186
1761284170.5770347,-12.124086395164095,-0.1354513100667463,0.8816355046830053,0.0321405946219404,-24.29056175009124,-23.483306554792584,-54.86459361259279
1761284170.5869997,-12.621254218106607,-0.09213469693933436,0.848078325975117,0.032440690600680014,-20.650341941953194,-25.128262719950943,-53.896603615927745
1761284170.5970035,-13.084224760595793,-0.04102793677985619,0.8142960455868274,0.03315102392534943,-16.77427487815981,-26.27932237389682,-52.7429112302029
1761284170.6069942,-13.509822213124632,0.012580947098312076,0.7822027424224096,0.03532902715953161,-12.557495316459281,-26.76959378574696,-51.36100614759955
1761284170.6170094,-13.897363277623807,0.06308662104230016,0.7538411840304253,0.04001188794290745,-7.935722428270889,-26.495840626520394,-49.70567446501847
1761284170.6270163,-14.248679908529642,0.10522480206802623,0.7312231627414255,0.048058654591955505,-2.902156268933687,-25.429837847586995,-47.73367794551476
1761284170.6370246,-14.567874693295032,0.13466997905859682,0.716147533245328,0.059997404353312946,2.4817982463350017,-23.61512690729136,-45.41231119778349
1761284170.6470237,-14.86085817099518,0.14850150408554477,0.7099986998393027,0.07588867955506995,8.084084361873167,-21.14988355697748,-42.73065547519359
1761284170.6572788,-15.134733590300522,0.14548295143365242,0.71353542111965,0.09522305647902622,13.709399991490123,-18.15919603619992,-39.7113387718741
1761284170.667054,-15.397103625220465,0.12611840502901345,0.7266935767893908,0.11687612951270968,19.116890813236303,-14.762163088338498,-36.41995719369896
1761284170.677377,-15.655376442620005,0.09247300387931591,0.7484388522581269,0.13914236859152584,24.046803953940085,-11.04052794485357,-32.96913735640958
1761284170.6874022,-15.916144241626489,0.04777742488674674,0.7767092234929847,0.15985948109756462,28.252858275084918,-7.015743616258896,-29.514647323301393
1761284170.6988482,-16.18469399153599,-0.004123130806757846,0.8084824046840204,0.17662031242563847,31.535668720287102,-2.640211442158787,-26.242063141081434
1761284170.7077258,-16.464688361643084,-0.05937734642137155,0.8399934005077437,0.18705372105906568,33.77207735474012,2.1939625669339597,-23.344182616794022
1761284170.71737,-16.758029631701817,-0.11467961257693118,0.8671128319819044,0.18914073455700184,34.935741495826065,7.628582908333145,-20.991383928070004
1761284170.7270703,-17.064894200613733,-0.16766623826186083,0.885874845406263,0.18151695637896834,35.105610817910566,13.798712037817374,-19.29907948495203
1761284170.7371013,-17.383896683442497,-0.217096976444808,0.8931114766809132,0.16369920562329193,34.46073146736855,20.784176650933283,-18.297910326803894
1761284170.7470589,-17.71230778025737,-0.2628144732443295,0.8871078156462529,0.13617529274663037,33.26190919378623,28.56175358308777,-17.91294343651788
1761284170.757052,-18.046225302644093,-0.30552355626365046,0.8681464345418609,0.10032583297927107,31.82283965490657,36.967286134755746,-17.957466856374936
1761284170.7670372,-18.380614438125043,-0.34646276749620464,0.8387898805186542,0.05820395480874684,30.474841392779865,45.67616526347417,-18.14485692710999
1761284170.7771747,-18.7092010795563,-0.3870387871491972,0.803792911085769,0.012251108023679399,29.52974946733135,54.2082696170392,-18.118775692343444
1761284170.787044,-19.024287118920054,-0.4284671644544572,0.7696304065931637,-0.03496079401196834,29.244859888184227,61.95984859568158,-17.498462549974935
1761284170.797077,-19.316611705264897,-0.47143609285150695,0.7437114016839681,-0.08090311398588088,29.79280471181413,68.2604863449969,-15.932942213188486
1761284170.8070319,-19.575385704881736,-0.5158031627378986,0.7333859834956249,-0.1231747071741979,31.238663305165275,72.4489593880801,-13.156067493683093
1761284170.817036,-19.788586155407668,-0.5603478404123904,0.744858295739426,-0.15953710646714628,33.52659089195467,73.95830126429969,-9.033632777210894
1761284170.8270268,-19.943534682863636,-0.6026243408744336,0.7821283955602734,-0.18796299578719544,36.47830663812448,72.39833965749585,-3.5944126025128065
1761284170.837054,-20.027719072032443,-0.6389767111362483,0.8461070454245762,-0.20674951196765895,39.80536414384522,67.62364358429166,2.961071865272272
1761284170.84702,-20.029764335433565,-0.6647756812565451,0.9340658447337177,-0.21471023622901073,43.135889525893866,59.77614456285108,10.277106966125995
1761284170.8570244,-19.940426634626572,-0.6749069156805881,1.039577297088483,-0.21141450053021482,46.05446787258773,49.294517098310926,17.883736551749
1761284170.8670158,-19.753474724110205,-0.6644864972073459,1.1530497387673757,-0.19741099431066755,48.15151598664179,36.88659518242165,25.2569842103407
1761284170.8770316,-19.46634034104549,-0.6297161425838487,1.2628704092679444,-0.1743659270126987,49.07637980221963,23.466330725540892,31.889549421658142
1761284170.887039,-19.080456861283142,-0.5687360943701312,1.3570486025857926,-0.14506214774955395,48.58701654297882,10.06224999307572,37.36083233921401
1761284170.897081,-18.601254365761097,-0.4823021695125622,1.425117137627055,-0.11323289554128974,46.58869264632304,-2.291082462782959,41.39473761868629
1761284170.9070387,-18.037826390040777,-0.37411333608290864,1.459928554461955,-0.08322768570118086,43.154667946109,-12.66432094272338,43.89539394132651
1761284170.917074,-17.402319376804975,-0.2506576644838211,1.4589189078763452,-0.05952203281610654,38.52346588862272,-20.332417227492485,44.954407582269106
1761284170.9270604,-16.70911698507632,-0.12054056490745697,1.4244750989196315,-0.046101969690714804,33.07045335222975,-24.847989795597297,44.82805409060041
1761284170.9370308,-15.973901957628776,0.006599429009671639,1.3632669363374144,-0.04580350677314982,27.256203689019,-26.078587756188185,43.88825118974257
1761284170.94704,-15.21268698591102,0.12135080123774075,1.2847252168737762,-0.05975913071115183,21.55957472105838,-24.20239433255798,42.55627277310435
1761284170.9570332,-14.440918260425336,0.21568178081018596,1.199109011091433,-0.08713944555388833,16.40779474320795,-19.66364462904094,41.231685793701786
1761284170.9670455,-13.672763436414407,0.2837676112498858,1.11568379827519,-0.12531779532627121,12.117409447619375,-13.09653929812125,40.229758354464316
1761284170.9770477,-12.920681494177801,0.3224043959624612,1.0414174333560164,-0.17043749238493844,8.857903721001023,-5.232475745422176,39.738176779299565
1761284170.9870386,-12.195323492091479,0.3310401474266032,0.9803805374784569,-0.2182068057714522,6.644578294224809,3.1922945277079005,39.79905783607568
1761284170.9971154,-11.50573726961973,0.31151804163138275,0.9338200023608219,-0.2646742705667516,5.360295351812495,11.513726576390273,40.31659627595306
1761284171.0070574,-10.859769725067515,0.26763956445059844,0.900728772447076,-0.3067750434345134,4.798983891030978,19.192520069187438,41.08593937833979
1761284171.0170293,-10.264507637769055,0.20463622952704305,0.8786771004912908,-0.34255081499910084,4.71916166374823,25.83956801670439,41.835973474979546
1761284171.0270727,-9.726592990625461,0.12860696009036826,0.8646797970458479,-0.37106838425500765,4.89444213302817,31.217335191244587,42.277721311394444
1761284171.0371306,-9.252291020226288,0.04595288858469142,0.8559237751756666,-0.3921473165293582,5.150329615178522,35.22349795866683,42.150595026750565
1761284171.047031,-8.84725974232484,-0.03716308631896356,0.8502502981318005,-0.4060359947659896,5.381623949256371,37.86408668134901,41.26033961708749
1761284171.0570645,-8.516044115611326,-0.11529081499141751,0.8463616060669704,-0.4131524371825009,5.550593123792783,39.22251897948755,39.50467391422593
1761284171.0670364,-8.26137889219042,-0.18404950386176513,0.8437877577616569,-0.41395079263896206,5.6707835822190535,39.42928397252448,36.88495635076837
1761284171.0770555,-8.083424923635876,-0.2403265283183033,0.8426928457142113,-0.40891212947675043,5.7837277397981195,38.635467048582015,33.50427861161029
1761284171.0870497,-7.979083339927375,-0.28231191779578213,0.8436120205262718,-0.39861193824916386,5.935720254420042,36.9921289930989,29.553947775591737
1761284171.097056,-7.941528360534284,-0.3093960734005258,0.8471950434045198,-0.38379932454794313,6.1599251300777675,34.63665336610607,25.291273613404837
1761284171.107056,-7.9600691737332,-0.32197469455706745,0.8540011442101171,-0.3654341492368064,6.466374017524657,31.68630148941371,21.012006313371245
1761284171.1170597,-8.020397116709443,-0.3212027032930504,0.8643586404586966,-0.34465789327843405,6.8398829335319276,28.23829794424981,17.020804608712467
1761284171.1270692,-8.105209824848595,-0.30873074201593403,0.8782818639316169,-0.32270616503191807,7.244152251399041,24.374976604180805,13.602874864290124
1761284171.1370485,-8.195148624172278,-0.28645456002315844,0.8954316404142056,-0.30079217304659284,7.629519198328751,20.17203674210751,10.999469029968974
1761284171.1470866,-8.269953741228383,-0.2563088550665999,0.9151108394826157,-0.2799958872194389,7.94189341396852,15.707820103812836,9.389275335555174
1761284171.157062,-8.309734759449968,-0.22013410689798296,0.9362953352009223,-0.26118597694694684,8.13102496906851,11.0716295109714,8.876919274702528
1761284171.167057,-8.296259474782149,-0.17963089504867377,0.957705212686757,-0.24498753427294237,8.157065354542889,6.369384148857572,9.488914078971817
1761284171.1771011,-8.214169264230105,-0.1363932367455662,0.9779176519337949,-0.23179381242012573,7.995083688614847,1.7253396999411452,11.176573590074991
1761284171.1872723,-8.052028728290328,-0.09198974913412604,0.9955129277270152,-0.22180848242069282,7.637631900845899,-2.7207699076840925,13.824723275644432
1761284171.197055,-7.803118143793636,-0.04804848670559619,1.0092329670340667,-0.21509875089487218,7.095598861617402,-6.821007916122459,17.264600413680835
1761284171.2076936,-7.465889221074842,-0.0063029231905413485,1.0181239267669369,-0.21164039314044944,6.397546055326394,-10.42991951283519,21.289168164287553
1761284171.2170975,-7.044033427537495,0.03142815395809311,1.0216352517579563,-0.21134262515168803,5.58761489393284,-13.416924180722155,25.669162820152525
1761284171.227069,-6.546155768483992,0.06333066521854396,1.0196583280001301,-0.21405094892873935,4.722058562433867,-15.678355868109717,30.16848666296398
1761284171.237087,-5.985095646206195,0.08773685145201182,1.012503592255606,-0.21953550511308212,3.864533674999494,-17.147187289511745,34.55796982165664
1761284171.2470698,-5.376975805233625,0.10328823847436727,1.0008291945782395,-0.22747708821899057,3.0804629730662385,-17.7990030350954,38.62695846974304
1761284171.2570686,-4.740079911963613,0.10908974844023232,0.9855425901230853,-0.2374614115570077,2.4309688621493355,-17.653566601660536,42.19255257273005
1761284171.2671015,-4.093659020923615,0.10483098599194345,0.9676975047699296,-0.24898668770732224,1.9669927598231227,-16.772115097292584,45.106563501442665
1761284171.2770786,-3.456753669118454,0.09085822057060507,0.948403478553297,-0.26148389178559656,1.7242072123109577,-15.251124364282253,47.260394743607314
1761284171.2870784,-2.8470974400466207,0.06818906569441173,0.9287564413988625,-0.2743455834436717,1.7192007356337096,-13.213643346571422,48.588101054534846
1761284171.2970707,-2.2801443668146373,0.038470592432988275,0.9097904984794054,-0.2869581899430037,1.9472282429543433,-10.799417590182019,49.06787126241029
1761284171.3071332,-1.7682434028262792,0.0038870538430181532,0.8924459905658462,-0.2987333651079858,2.3816594057319733,-8.154947988106791,48.7221054030726
1761284171.3170855,-1.3199749940946506,-0.03297574288175308,0.8775469341862886,-0.3091352909535216,2.9751812769843493,-5.424400433765947,47.6161278996273
1761284171.3270712,-0.9396687604103154,-0.06930284815571103,0.8657809594036714,-0.31770191610290505,3.662807379533234,-2.741957278660796,45.85542676536004
1761284171.3370697,-0.6271328300539065,-0.10225155638679735,0.8576764747612734,-0.32405988903232813,4.3667401058346815,-0.22586041758599779,43.58116842139851
1761284171.3471138,-0.3776367258217055,-0.12917063576246507,0.8535751409917602,-0.32793676738927474,5.003034106574241,2.02590072652433,40.96364474931842
1761284171.3570726,-0.18219093662916258,-0.14782037611739682,0.8536021765793892,-0.3291783689795667,5.4897435456604375,3.9385051278730057,38.193316777224986
1761284171.367106,-0.02814814218047897,-0.1565684009854949,0.8576413005501885,-0.3277778129021601,5.755802996017185,5.462132127621462,35.46929079839094
1761284171.3770802,0.09988687131277545,-0.1545318797654949,0.8653244485524731,-0.3239123498763454,5.74941630256859,6.572942170556206,32.98542861676958
1761284171.3870723,0.21889606546218188,-0.14164373014059042,0.8760482667922572,-0.31797122774193587,5.444458111662553,7.273266287422165,30.914810188517983
1761284171.3970685,0.3461263378058769,-0.11863800594667857,0.8890284669171725,-0.310554103464918,4.843554217556,7.5908630220492395,29.393818715516524
1761284171.407156,0.49771136462576243,-0.08696778831895066,0.903397282676985,-0.30242833915562967,3.9771228699018732,7.57692612838258,28.507564467703883
1761284171.4174407,0.6873424529138169,-0.04867709331127454,0.9183380126099042,-0.29444816637742444,2.8985326885882405,7.302441132664,28.27857906873259
1761284171.427128,0.9250931163514305,-0.006244530423969611,0.9332375517587452,-0.28745097280210785,1.6763836766132614,6.852577012424746,28.660611294032208
1761284171.4370792,1.2165021012371873,0.037592382625340204,0.9478282717667401,-0.2821518767751008,0.38550150857232685,6.319116792746283,29.53891513802997
1761284171.4470987,1.5620118250069162,0.0800282854469447,0.9622865547318171,-0.27905673261987884,-0.9016092628262036,5.79144508373516,30.737680717943068
1761284171.457075,1.9568345191890797,0.11839020791067698,0.9772552968943999,-0.278406959657424,-2.1214062888434095,5.347181991598292,32.03430434953157
1761284171.4670804,2.391276171032186,0.15033435123265942,0.9937629850998906,-0.2801593647303078,-3.223211324685203,5.043982013249535,33.17916426570037
1761284171.4770947,2.8514951558354578,0.17402032464044023,1.0130285908912957,-0.28399311523891446,-4.170245244766813,4.914135069106877,33.918665320666875
1761284171.4870667,3.320616114911722,0.18823964309828212,1.0361720426575556,-0.28932824708861243,-4.938308593631631,4.963346989188594,34.01875272702009
1761284171.4971256,3.780069817198577,0.19247693865265025,1.063883802417028,-0.29534133029828646,-5.513138647355886,5.174466630843059,33.28600234180716
1761284171.507082,4.2109998753062525,0.18689331788353336,1.0961264921457639,-0.3009763217851035,-5.887818200886737,5.516030901251271,31.583785812210163
1761284171.5170867,4.595576612263079,0.17223804658549696,1.1319390038133281,-0.3049652258724641,-6.061657798983296,5.9543925073899215,28.84179055028618
1761284171.5270932,4.918083227168768,0.14970716274712434,1.1693955036329342,-0.3058828543137749,-6.041587377334244,6.467039779124661,25.058167083592775
1761284171.537097,5.165679706966841,0.12077308460994815,1.2057464769408839,-0.3022565441790663,-5.846263324369767,7.053843949707552,20.294578995566308
1761284171.5471041,5.328802194283053,0.08701556533727632,1.2377382580175766,-0.29273516730939775,-5.5120314719503245,7.742812007555236,14.665308687567983
1761284171.5572824,5.401216999913938,0.049991380614794925,1.2620710779735609,-0.27629683444073266,-5.098985430063431,8.587821128142883,8.322253488167501
1761284171.5670893,5.379803626502552,0.011173367368010327,1.2759197595284741,-0.25245159227872077,-4.6950204658901775,9.657754211200212,1.438075196697775
1761284171.5771108,5.264168683642644,-0.02803911090762952,1.277419690290418,-0.22138700713378445,-4.416145704941101,11.018904626463199,-5.81010469391814
1761284171.5871232,5.056185641067493,-0.06627212544489579,1.2660245513170703,-0.18401818433911993,-4.402166369634625,12.714533669741225,-13.254280647550114
1761284171.5970967,4.7595277671183815,-0.10214350803015017,1.2426681461735598,-0.1419344287918565,-4.807781634395401,14.746230994046517,-20.74477021880597
1761284171.6071084,4.379234970024473,-0.1342815530916544,1.2096975365393903,-0.09726511342234283,-5.789856634449529,17.06107554287016,-28.154205933387285
1761284171.6170957,3.9213421512854576,-0.16139830254361154,1.1705806440044415,-0.05249853404992274,-7.4920677848269515,19.54704872470034,-35.37641032474175
1761284171.6270967,3.3925923113670278,-0.18238993281204569,1.1294291803079521,-0.010276140707730325,-10.028431537281618,22.03747619031212,-42.32127147943912
1761284171.6371112,2.8002482356495464,-0.19643244087318237,1.0904161011278102,0.026831975898808744,-13.46752575882717,24.323928796805845,-48.90760307254917
1761284171.6471105,2.151996657694802,-0.20305406146002558,1.0571952584069875,0.05656578989331271,-17.819427469858503,26.176009932332217,-55.05632428668641
1761284171.6571429,1.4559166547713294,-0.20217700796151447,1.0324337295527948,0.0772086498205393,-23.027323437558206,27.365647258078287,-60.68597575162247
1761284171.6671157,0.7204706991220218,-0.1941240330939234,1.0175372110169847,0.08778038497433559,-28.965267958533385,27.692894181518056,-65.7118243154284
1761284171.6771083,-0.04552423410362857,-0.1795872688486104,1.012597842223045,0.08815429581410235,-35.44271124547277,27.009998596449204,-70.04894293205749
1761284171.6871212,-0.8329799263926825,-0.15956287660524918,1.016543825703197,0.07907578340451696,-42.215430735453495,25.240744536399166,-73.61884535861725
1761284171.6971173,-1.6326963270753942,-0.13526379010175374,1.0274353039798418,0.0620798589225551,-49.001668427528855,22.392757705266202,-76.35853724187965
1761284171.707127,-2.435605278200652,-0.10803096128788336,1.0428340482743137,0.03932170569548651,-55.50178774243928,18.56138044724069,-78.23028409426772
1761284171.7171237,-3.2330929522548364,-0.07926620075104567,1.0601743025330264,0.013345631120600257,-61.41956753008303,13.924652083923316,-79.23011809503693
1761284171.7271514,-4.017380277563582,-0.05040161457476661,1.0770754569893006,-0.013176964960347703,-66.4832120177562,8.729751167370273,-79.3932035192314
1761284171.7371252,-4.781923616245374,-0.022901620694800406,1.091558619055262,-0.037709728120675357,-70.46421401181505,3.271944680846128,-78.79465796240656
1761284171.7471075,-5.5217812090476155,0.0017287675981387419,1.1021527104405082,-0.058086073917085784,-73.19238131844905,-2.132293375411518,-77.54518020643695
1761284171.757178,-6.2338788929368425,0.0219696871590355,1.1078972510882232,-0.07269403183455231,-74.5656547632292,-7.175699225625641,-75.78169784168752
1761284171.7671225,-6.917106932561879,0.03638230309630911,1.108266064312096,-0.08059405023119426,-74.5538309542519,-11.591201238712207,-73.65406832897682
1761284171.777171,-7.572193661446118,0.04378545492696502,1.1030468922482466,-0.0815591285712194,-73.19592007286626,-15.179869214542723,-71.30954936997449
1761284171.7871199,-8.201332757949634,0.04348612055902309,1.092214622450973,-0.0760364370563598,-70.5915216368691,-17.831917150070087,-68.87722004598942
1761284171.797123,-8.807584566032256,0.035507060979106865,1.0758307481136975,-0.06504098719286908,-66.8872019820906,-19.53720613380953,-66.45468117971122
1761284171.807116,-9.394117591079528,0.020748069333165496,1.0539924644532237,-0.049999965976416275,-62.259371616710965,-20.382981322434276,-64.09908814997253
1761284171.8173466,-9.96339364813139,0.0010289724299564248,1.0268451621905648,-0.03256881902895242,-56.89558431005522,-20.53867082976984,-61.823859336766766
1761284171.827691,-10.516421633270532,-0.021019477343560685,0.9946607067028101,-0.014438926712496306,-50.97650302342361,-20.229955971450806,-59.60139862236891
1761284171.8372443,-11.052205094791114,-0.04222749959763376,0.9579665268913572,0.0028460720309038145,-44.660926928675195,-19.70632132648671,-57.37111252200112
1761284171.8471935,-11.567484892486975,-0.05929675324771602,0.9176895065726325,0.018051200906482195,-38.07608238453951,-19.207388997059304,-55.051148378945136
1761284171.8571336,-12.056834041668592,-0.06928524637009868,0.8752659212835704,0.030375850782055545,-31.31470404289647,-18.93329879833683,-52.551847653559314
1761284171.8671205,-12.513108412307648,-0.07007898376175097,0.8326740559506695,0.039531754847338715,-24.439326577184357,-19.02326663032161,-49.788989954348786
1761284171.8771503,-12.928206295496581,-0.06076703869487071,0.7923657255352866,0.045760387390133654,-17.492952361980215,-19.544558767229084,-46.69537854161134
1761284171.8871856,-13.294047715534811,-0.04185687742107236,0.7570938320495497,0.049778967848088725,-10.514149211953603,-20.491976263685626,-43.229919804491786
1761284171.8971884,-13.603651195666233,-0.015285763875981783,0.7296475687965092,0.05265221167149565,-3.5537611836167766,-21.79606774358755,-39.383869437259165
1761284171.9071336,-13.852165324204979,0.015793763250803974,0.7125178664276675,0.05560226678917022,3.3102063323990554,-23.337001942658112,-35.18433182010814
1761284171.9172032,-14.037715762375116,0.04743372157311678,0.7075298965698315,0.05978622861318925,9.963120665732,-24.960447721929484,-30.6954491483387
1761284171.9271333,-14.1619622171356,0.0754366417256933,0.7154968985141249,0.06607900614447382,16.252591875456393,-26.491990911538135,-26.017894528126252
1761284171.9371412,-14.230313530401517,0.09591036986495968,0.7359602513878145,0.07489456536936749,21.997030067242235,-27.747644133659524,-21.28703991448627
1761284171.9471674,-14.251797214350207,0.10572873488126687,0.7670729800670992,0.08606716111950873,27.00324482976493,-28.539803171319846,-16.66942023132683
1761284171.9571283,-14.238604060616925,0.1028495633598127,0.8056582476436014,0.0988070894215043,31.090630979983114,-28.68011195628071,-12.356196481436175
1761284171.9671414,-14.205332906952073,0.08648984200226219,0.8474468239363773,0.11174596450161534,34.118176722179015,-27.98232477957136,-8.551876593166117
1761284171.9771385,-14.167964417081349,0.05716971235736474,0.8874831715754302,0.1230844694520499,36.00973393348357,-26.268690880055114,-5.457073136892077
1761284171.9871535,-14.14261102021475,0.016624504211943624,0.9206833220712186,0.13083825990536513,36.77275683376871,-23.382445601631968,-3.245529513001485
1761284171.9971724,-14.144125272498437,-0.03242332527915076,0.9425081995588876,0.1331470353806023,36.506323813318154,-19.207062650922822,-2.0375655343180883
1761284172.0071473,-14.184693455076246,-0.08662817438088877,0.949674670065012,0.12858540279194974,35.39600409108839,-13.690680642252932,-1.8738984096306648
1761284172.0171452,-14.27258202717952,-0.1424884998121928,0.9407829385890937,0.11640866949975097,33.69588915361099,-6.872199589280369,-2.6949378096305394
1761284172.0271456,-14.411223697543388,-0.1968507686954946,0.9167241217240928,0.09668380697472857,31.70104238174615,1.0956505303636555,-4.33069208903259
1761284172.037192,-14.598806927934382,-0.24735735634177933,0.8807605645665391,0.07028556223923353,29.71552053979769,9.931294943928867,-6.505205363485422
1761284172.04801,-14.828454281516098,-0.2927356809478063,0.8382360870109525,0.03877018638370735,28.02126254260344,19.221873971337466,-8.857209952350424
1761284172.0572128,-15.088954079716208,-0.33283839162924833,0.7959530934199353,0.004167901017981654,26.851767863571077,28.436710060936996,-10.975904565517183
1761284172.067171,-15.365893372062486,-0.3683884840199606,0.7613189824530532,-0.03124934336437336,26.37246183204447,36.958356856883015,-12.447965023662736
1761284172.077207,-15.642980519559444,-0.40046086974261136,0.7413901957253255,-0.06517673978255935,26.667871727363213,44.130894222678954,-12.909527967779661
1761284172.0872304,-15.903358179543321,-0.4298203987125126,0.7419301045921146,-0.09544481155042193,27.734892679698298,49.322683089329466,-12.095407648655668
1761284172.0971391,-16.130765707633184,-0.4562966873010508,0.7665745044006672,-0.12016238898886576,29.481741322281884,51.99788188845322,-9.877605202218874
1761284172.1071396,-16.31047658651794,-0.4783814655044494,0.8161895687049866,-0.13786044757364294,31.733207151189546,51.788093159382875,-6.286433870835462
1761284172.1171465,-16.429988375802047,-0.49318365037943496,0.8885104572474152,-0.14764465617227102,34.2435388329342,48.55345325618311,-1.5101714950669543
1761284172.1271605,-16.479474110626366,-0.49679008496540744,0.9781469560286191,-0.14933417070028665,36.71799417243831,42.42221220081944,4.1273642746395875
1761284172.137175,-16.452019522120366,-0.48498246955464025,1.0770207187824574,-0.14354676618154377,38.84271542142865,33.79986467712688,10.208173245421115
1761284172.1471665,-16.343676803373647,-0.45417586449313796,1.175251122418131,-0.1316976461890998,40.320690002415844,23.343078483018132,16.273969007010862
1761284172.1572144,-16.15336775382246,-0.40238448869745763,1.2624330976512463,-0.11590202919106105,40.909723841449036,11.899320320492292,21.884178231980165
1761284172.1671865,-15.88267038716784,-0.32999557141325,1.3291537670058797,-0.09879175010413685,40.4570143934784,0.4190092921992556,26.66914743144411
1761284172.1771462,-15.535526161460522,-0.24015164153203447,1.3684903700859545,-0.08326333428300299,38.92433898046322,-10.148144965194918,30.3707692896816
