timestamp,angle,linear_acceleration_x,linear_acceleration_y,linear_acceleration_z,angular_velocity_x,angular_velocity_y,angular_velocity_z
1760958813.6957498,-4.0302173975857505,0.05589759450343655,0.9793456894828225,-0.20435599414480826,9.474296330490407,-6.998988077084382,23.923563823030424
1760958813.7057135,-3.5780316725186085,0.05255643285191228,0.975775528085727,-0.2042016227770237,8.094879945331007,-4.365000872073107,24.06476737950959
1760958813.7156374,-3.159598133059723,0.043427523001904215,0.9710183391900445,-0.2046651441376085,6.502338015927068,-1.2696910490687852,23.78471590328221
1760958813.7256932,-2.785483312661121,0.029490201680366212,0.9652053232786582,-0.20567362934950975,4.805410073102257,2.0831513711505587,23.187452627153885
1760958813.7355871,-2.4624124169581,0.011990887691050098,0.958552529626346,-0.2070969113356267,3.117352636953137,5.469744641638829,22.39204660659172
1760958813.745645,-2.193155454075073,-0.0076625573430898,0.9513594643609523,-0.20873127025531613,1.5445954810691447,8.666395377789978,21.519007948565523
1760958813.756391,-1.9767219092336983,-0.02800817824484934,0.944001871547103,-0.2102914192346186,0.17670738474881226,11.469171862115322,20.67807790584391
1760958813.7656772,-1.808813331593357,-0.0476304509063248,0.9369207018499083,-0.21142545236455074,-0.9210639065695199,13.71138899713477,19.958581661198856
1760958813.775652,-1.6824651000485695,-0.06524635274831729,0.9306043532122199,-0.21176064034312111,-1.7120118198433845,15.277433057026222,19.423082569255754
1760958813.78575,-1.5888004715100255,-0.0797726005063495,0.9255563853773203,-0.21097357569509023,-2.188992527595264,16.111837060098967,19.104599885638322
1760958813.7959452,-1.5178243210149784,-0.09037440768980247,0.9222426467634207,-0.20886389714582465,-2.37279667284058,16.222981431420315,19.0072144050231
1760958813.8058608,-1.4591983358663085,-0.09649974190079218,0.9210213376376652,-0.20540446822067449,-2.3085322860509234,15.681322154306365,19.109540345638067
1760958813.8156576,-1.402957192063808,-0.09790347454815597,0.9220698808661636,-0.20074707661316948,-2.060490476487826,14.612551337564778,19.370324401912615
1760958813.8256924,-1.3401387050082567,-0.09466251611891481,0.9253258225922838,-0.19518088920133622,-1.7057810136738574,13.186450833273849,19.735347210307587
1760958813.8356266,-1.2633064579814375,-0.08717818386185229,0.9304552199121008,-0.189061485764557,-1.3270674061832735,11.602362844657495,20.144813861955182
1760958813.8458881,-1.166943472453809,-0.07615907768548036,0.9368562795938825,-0.18273806612311325,-1.0049498919010524,10.072259962899427,20.54048612838034
1760958813.8555982,-1.0476951216504033,-0.06257824299735779,0.9437012512311355,-0.1765015238824717,-0.8107383136912732,8.802474926382203,20.8719109445594
1760958813.865634,-0.9044423443681652,-0.047601673084299245,0.9500149513134352,-0.17056376844285748,-0.8003910903964179,7.9752888255278895,21.10124048646233
1760958813.875603,-0.7381942566274358,-0.03249005971004814,0.9547832577189624,-0.1650671557794859,-1.0102648192423274,7.731733433302302,21.206320500807838
1760958813.8856409,-0.5518035958798239,-0.01848128703650456,0.9570805944368149,-0.16011539991140247,-1.4550757672928842,8.157072032474725,21.181931225404192
1760958813.8957045,-0.3495282232075978,-0.006666240989534158,0.9562029059795495,-0.15581385885669558,-2.1281769250115445,9.270418809312138,21.03927065256513
1760958813.9057014,-0.13648268849462503,0.0021268314625001207,0.9517916339308203,-0.15230686066846685,-3.003946338472506,11.019783231362291,20.803937797598692
1760958813.9157262,0.08196110843272651,0.007425161330467791,0.9439336342845938,-0.14980206688629513,-4.041794065119002,13.28345339518353,20.512774322068026
1760958813.9257004,0.3007608709563877,0.00917120625970202,0.933221437928591,-0.1485757803534385,-5.191054708608642,15.878091095423775,20.209946883046108
1760958813.9358208,0.5157221593803815,0.007743918951482568,0.9207591758618981,-0.1489569146356218,-6.395896518906046,18.573298006394708,19.942617575498144
1760958813.9456987,0.7239055422930816,0.003939782421460752,0.9081044519503546,-0.15128966607022312,-7.599430976193363,21.111825866512227,19.75648871461065
1760958813.9557,0.9238944870885072,-0.0010866801719684994,0.8971470267301577,-0.15587633930038636,-8.746486207831127,23.23406511099377,19.691443856723346
1760958813.9657516,1.1159062244435454,-0.005922336976377232,0.8899393283356201,-0.16290455583220817,-9.784929949849138,24.70492399226448,19.77744044612812
1760958813.9756825,1.3017351765985985,-0.009031518441364465,0.8885049621254721,-0.1723682167744721,-10.665837115977165,25.340719749074278,20.03073806841843
1760958813.985713,1.4845256308557666,-0.008921181449182731,0.8946517044614125,-0.18399627745482366,-11.343098790863316,25.033336346141937,20.450484070989475
1760958813.9957168,1.6683779856758414,-0.004324326772907016,0.9098035651545356,-0.19720354885886907,-11.773277359597756,23.76876257330049,21.015652342441175
1760958814.0059764,1.8578010245995447,0.005611522606990411,0.9348524353449681,-0.2110735819606395,-11.91664992605159,21.63727525002008,21.682369593731117
1760958814.015916,2.0570338380875954,0.02114871790673738,0.9700266916166936,-0.22437963638904337,-11.740373721415928,18.833010096529748,22.381788333971528
1760958814.0258746,2.269279525263325,0.041823149670589525,1.0147834875907977,-0.2356482475646438,-11.224405123356211,15.64149634031849,23.01887372136961
1760958814.0358212,2.4959187858422713,0.0663811296166283,1.0677428547711267,-0.24326858077894437,-10.370126736841419,12.414945349073697,23.47271806962062
1760958814.0458143,2.7357975486499333,0.09282285125433078,1.1266854029676079,-0.2456456058511807,-9.210676630532646,9.536670541499662,23.59921066473687
1760958814.0557277,2.984698532161996,0.11857373813809356,1.1886299114139045,-0.24138507277944266,-7.820981290670378,7.377879040541079,23.236995666292213
1760958814.0656624,3.2351057542869355,0.14078419943273904,1.2499963891033976,-0.22948709638878326,-6.324773215256633,6.251951067909773,22.21755474607928
1760958814.0760064,3.476352242534681,0.15673394038237548,1.3068483993500277,-0.20951857852293246,-4.895663420092435,6.372739186550668,20.3798285102465
1760958814.0858736,3.695203844943503,0.16429164561445564,1.3551982297140828,-0.1817349224525736,-3.7497617842053073,7.8238170933527815,17.5889283292397
1760958814.0957355,3.876873156799584,0.16235414357966435,1.39135170282941,-0.1471268583479606,-3.1284601861384576,10.544590077634751,13.75719317175853
1760958814.1058345,4.006377310801804,0.151164567004656,1.4122653692167815,-0.10737806204228612,-3.271852545033333,14.336711719953495,8.864362844987253
1760958814.1159387,4.070065890066122,0.13240215067172745,1.4158835991433107,-0.06473473069488217,-4.385677329520292,18.89075246365851,2.9725361294596016
1760958814.125739,4.057080940807943,0.10896934734835427,1.4014172102180866,-0.021805764268165242,-6.606969026552793,23.82934323668914,-3.768415182487942
1760958814.1358302,3.9605007654957305,0.08448078860432842,1.3695253288449007,0.018678557333217636,-9.974840623176627,28.759944052453594,-11.127803964955156
1760958814.1457005,3.777972807449334,0.06255617599886434,1.3223664587777066,0.054125324589065604,-14.412412855527982,33.328557286475586,-18.81365402880985
1760958814.1556978,3.5117418104574942,0.046089676894777054,1.2634847242921934,0.08233715272062818,-19.724057331892567,37.2654174652663,-26.50219159043656
1760958814.1658497,3.1680962121492398,0.036679972288324494,1.1975041104746325,0.10174683909280462,-25.60944409187081,40.41505841034101,-33.87262445798833
1760958814.175721,2.7563583362841935,0.034357102350489215,1.1296414400223895,0.11159439986833358,-31.69290145321386,42.74602399636838,-40.641584329899615
1760958814.1857352,2.2876120886734324,0.037657571847997756,1.065109395517748,0.11201086114905394,-37.56375876631891,44.33929724617685,-46.59179653862858
1760958814.19566,1.773386067110994,0.04400805212302573,1.0085207527802436,0.10398728118273928,-42.8212488409363,45.35843384385067,-51.59070647357846
1760958814.2056766,1.2244911754261618,0.05030688992151439,0.9633980655706748,0.08922997174509954,-47.11678075803202,46.0075505372216,-55.5966251837263
1760958814.215741,0.6501604518852779,0.053558350940555534,0.9318544163589564,0.06992546344780505,-50.187168703513315,46.48515496612549,-58.65204185988104
1760958814.2257469,0.057570793018879934,0.05142079727463875,0.9144696213679538,0.04845618957465079,-51.87445081021876,46.94211449731369,-60.86574327092859
1760958814.235802,-0.5482432745963587,0.04256790687699113,0.9103577385661289,0.02711585503231238,-52.13067697581265,47.45094211285873,-62.38708224795827
1760958814.2459314,-1.1641340924704353,0.026815822263081157,0.9174038558124371,0.007869752541501778,-51.008835559442424,47.99128016140825,-63.37696875876022
1760958814.256267,-1.7883391247183404,0.005023230007152288,0.9326324408283846,-0.007808455537057908,-48.64335408684608,48.45337904019094,-63.980651611624104
1760958814.2658353,-2.4198543927525065,-0.02118507008502654,0.9526523269444989,-0.019010748111511596,-45.224929446282005,48.658043674391955,-64.30688054754809
1760958814.2757561,-3.0578091257866906,-0.04979328938161852,0.97410926602164,-0.02538464851098944,-40.97462966148806,48.38859150022099,-64.41660875492437
1760958814.2858102,-3.7009517601527557,-0.07878219816327538,0.9940747372937128,-0.02705736483255801,-36.12136637822632,47.42842136366362,-64.3223682757113
1760958814.295659,-4.347325173018709,-0.10645323088613862,1.010314929815032,-0.024520829249697198,-30.885310378583018,45.59721731334613,-63.99735289950918
1760958814.3057518,-4.994167254799729,-0.13163886827538987,1.0214132003942789,-0.01850745511575232,-25.468058843478712,42.77964023231884,-63.3915470013686
1760958814.315861,-5.638029680917102,-0.15378180607712813,1.0267526245295548,-0.009881990056466011,-20.048788016930548,38.942276445980426,-62.45123231499334
1760958814.3258889,-6.275070442250298,-0.17289535473996936,1.0263921565079348,0.0004377314835305853,-14.784560243553619,34.1371176725038,-61.13797435350237
1760958814.3359911,-6.9014494567773585,-0.18943670742222846,1.0208839676158359,0.011532979728224138,-9.812547459622083,28.492414914515745,-59.44364923502879
1760958814.3457844,-7.5137439113099,-0.20413088878687405,1.0110792562727682,0.022519728789091236,-5.252118429075605,22.193862668513226,-57.39902345801553
1760958814.3558927,-8.109301276483087,-0.21777953225267116,0.9979588284291807,0.032579305819193265,-1.2053117627970975,15.460317550707337,-55.074629803200054
1760958814.3656886,-8.686462195228781,-0.23108078931935436,0.9825090407382757,0.04099387800070862,2.2450039550905307,8.518502588739786,-52.57401090935754
1760958814.3756864,-9.244610852972103,-0.2444799617182894,0.9656478829363495,0.04719362019652334,5.039118871368994,1.5805495397395963,-50.020664453359366
1760958814.3856864,-9.784044362584675,-0.2580677040069837,0.9481932193967321,0.050816097731699574,7.145646664995142,-5.172903942597799,-47.54106853088593
1760958814.395981,-10.305690543231147,-0.2715421674023885,0.9308585790191252,0.05176834965282164,8.566315618506724,-11.60264817304987,-45.246877903661236
1760958814.405846,-10.810737659145316,-0.28424739935881055,0.9142619751253667,0.05027292527190678,9.3386341786511,-17.613589120047926,-43.219664761999454
1760958814.415736,-11.300261161626233,-0.29528804834747635,0.8989362924903467,0.046876181263779605,9.53491555775786,-23.150742271175968,-41.50129897262536
1760958814.4258516,-11.774934577541567,-0.30370235995050643,0.8853321601147046,0.04240259445536529,9.25682090316486,-28.189706931085205,-40.092091139790355
1760958814.4356637,-12.234893212201996,-0.30865995685452596,0.8738074048692095,0.03785152468938234,8.625617476924432,-32.723379738141226,-38.95720567539333
1760958814.4458246,-12.679785368410032,-0.3096456190109453,0.8646043386547408,0.034249338332749985,7.769507921266265,-36.74722345058309,-38.039963157837725
1760958814.4557698,-13.10900631835323,-0.3065971568315777,0.8578250956691532,0.032484372860446434,6.8102631921321946,-40.245751529299504,-37.279075593279735
1760958814.4657767,-13.522075891544588,-0.29997988031225215,0.8534191590659,0.033159174976618334,5.85161814506281,-43.182809165466765,-36.626077285902845
1760958814.4757507,-13.919097214618427,-0.29079381274769306,0.851192524516633,0.03649154051499903,4.97138124058341,-45.49765251159948,-36.05938584869339
1760958814.4860685,-14.301222116702224,-0.2805167106462611,0.8508381977335893,0.042284716903085565,4.218199549295522,-47.1078557787344,-35.592390916031015
1760958814.495731,-14.671046080058348,-0.270986571209,0.8519790239295272,0.04997133570630148,3.6127908378627773,-47.918937321161906,-35.27436761937027
1760958814.5057151,-15.032861301632273,-0.26422669569626683,0.8542097664116935,0.0587196275154078,3.1525636220638176,-47.839519010236934,-35.184435105275284
1760958814.5159419,-15.392710125063935,-0.2622196710915458,0.8571267891940741,0.06757822837810538,2.8181132985145734,-46.799966011483434,-35.41988515276715
1760958814.5256906,-15.758201788063616,-0.2666452852170059,0.8603396086210644,0.07562980769994003,2.5801408986051055,-44.771875889608935,-36.08082231410052
1760958814.5360265,-16.138080733331833,-0.2786083032835627,0.8634659109762525,0.08212420751207654,2.405762457979275,-41.78554365516368,-37.253204391185655
1760958814.545889,-16.54156182281245,-0.2983912097741806,0.8661178988537197,0.08656769342988786,2.2637618821429206,-37.94264077299988,-38.99219507039759
1760958814.555736,-16.977474867901474,-0.3252729538762296,0.8678928688803093,0.08875477003012056,2.128884713704894,-33.42179009173404,-41.3074351073891
1760958814.5659103,-17.453287251100043,-0.3574562357096762,0.868383351168524,0.08874121932232142,1.9855707315924676,-28.47543828876839,-44.1515871162697
1760958814.5759125,-17.974097759714425,-0.3921391605158468,0.8672173429059835,0.08676960341623315,1.8314290084204108,-23.41735507950545,-47.4133962219546
1760958814.5859187,-18.541713590530282,-0.4257483862439494,0.8641250520458138,0.08316937164243444,1.6803137293783201,-18.601161171525323,-50.91646679846743
1760958814.5957906,-19.153930639414686,-0.4543212965141952,0.8590112563744261,0.0782607766672485,1.5643496645523323,-14.391420054498626,-54.42481447815951
1760958814.6059601,-19.80412984759561,-0.4739918148181052,0.8520028736971417,0.0722917522800646,1.5340355090016295,-11.129897953113938,-57.65584695415427
1760958814.615809,-20.481277088522233,-0.48150927910354946,0.8434467686596683,0.06542656643167474,1.6557830599860819,-9.100468003286853,-60.300668116333014
1760958814.6259453,-21.170372180702113,-0.4747106720004304,0.8338511343235346,0.057786177871142756,2.0068039942254075,-8.49668411567969,-62.05051803701898
1760958814.6357594,-21.853339849299672,-0.4528742057469788,0.823785266449752,0.04952154563627166,2.667844621881095,-9.396151374560475,-62.626940203376904
1760958814.645845,-22.510300755494736,-0.4169014212070343,0.8137664172366972,0.04089232750560939,3.7146472792810936,-11.745367054297295,-61.81222644737525
1760958814.6556773,-23.121112888785497,-0.36929970730590894,0.80416347813863,0.032326467825553686,5.209104277172067,-15.357665479204119,-59.47616116881061
1760958814.6657388,-23.66703848944044,-0.31396404059992555,0.7951379235112206,0.024444851729901216,7.190944259803134,-19.925352401209782,-55.59525110197984
1760958814.6756904,-24.132371984741418,-0.25578379425715236,0.7866298861138878,0.018042243801131872,9.670612222937716,-25.04526689269545,-50.26145700851981
1760958814.6858125,-24.50586154275657,-0.200124943774737,0.7783880950234675,0.014019433903186471,12.623908502824339,-30.25516223639127,-43.67877084216155
1760958814.6957526,-24.78177130947689,-0.1522552319074102,0.7700389861122943,0.01326608437865538,15.988947212660676,-35.07678618982375,-36.14757986788918
1760958814.705794,-24.960462247538835,-0.11678547786897416,0.7611905535983395,0.01650394540018286,19.665966962685086,-39.06064839899777,-28.03838175850334
1760958814.7157862,-25.04841393451861,-0.09719392068908388,0.7515666299340603,0.024115141253988084,23.520369324619757,-41.82733812741757,-19.757808761074024
1760958814.7257671,-25.057663159142365,-0.09548575802015039,0.7411638790964519,0.03599361445822549,27.389076530086136,-43.10088808071413,-11.710846996103344
1760958814.7360275,-25.004692096410334,-0.11202086683093912,0.7304155518281061,0.051462052105984375,31.089961769125363,-42.73092718999146,-4.263463663051647
1760958814.7457895,-24.908854247476537,-0.14552214048544895,0.7203348965979544,0.06928741229242673,34.43377267837984,-40.701984955209,2.290364018383583
1760958814.7556708,-24.790476668433026,-0.19325703008313888,0.7126014782894826,0.08780629492259974,37.237690097920236,-37.13000995593003,7.753808793714569
1760958814.765721,-24.668819328381968,-0.25136648897663816,0.7095501545329832,0.10514330135368179,39.33948748209239,-32.247670508600706,12.041926365796037
1760958814.7757804,-24.560103174814824,-0.3152991241237595,0.7140280916551118,0.11948110778916017,40.61117220298949,-26.38108441631254,15.184272010617331
1760958814.7857292,-24.47583290744808,-0.38029607670801824,0.7291007951286613,0.12932842283745222,40.97092824658757,-19.921099275041996,17.314778704730593
1760958814.7957542,-24.421632243093274,-0.44186677402292796,0.7576127689625906,0.13373393593403063,40.39210533347155,-13.292083590893888,18.649545764157388
1760958814.8056967,-24.396771445009936,-0.4961982877088677,0.8016402274868554,0.13240837555410617,38.90798186464998,-6.920608064440075,19.454670362940195
1760958814.8157103,-24.39449434862346,-0.5404508016236008,0.8619091248525527,0.12573782821168616,36.61121268310889,-1.2057797117141613,20.007810797846183
1760958814.825687,-24.403147034654097,-0.5729070211952773,0.9372854273615522,0.11469289728676754,33.64738782163498,3.5073541976879716,20.558523064170515
1760958814.8357015,-24.407983742211453,-0.5929618939049677,1.0244655178205566,0.10065299462166762,30.2030077844194,6.94995055457296,21.293209925497248
1760958814.8456473,-24.39339691470499,-0.6009586661826039,1.1179898440627227,0.08517019588251643,26.489319837823935,8.945618273196354,22.310449355005243
1760958814.8558474,-24.34521407290586,-0.5978987137895656,1.2106611627477823,0.06969923647846982,22.72458614916212,9.419458814708237,23.611374143564067
1760958814.8659217,-24.25265811415157,-0.5850778689495166,1.2943664053725354,0.05532992830224837,19.11800883174311,8.399124288369883,25.107684573721183
1760958814.875692,-24.10961112973942,-0.5637280686297921,1.3611927225810985,0.04257469024959325,15.85822510968562,6.008062911306764,26.646940162406892
1760958814.885686,-23.914961535966643,-0.5347583324585884,1.4046332999562867,0.0312706519843595,13.107817268753095,2.4522409747105787,28.051307291499274
1760958814.895648,-23.67201620935805,-0.49867819801518365,1.4206402729822285,0.02063758922493019,11.002978489360586,-1.9975067722443987,29.16256329698813
1760958814.9056637,-23.387162895204707,-0.4557401119809153,1.4083079988472476,0.009491721959463911,9.655151403122247,-7.025158151903699,29.883835524285683
1760958814.915853,-23.068117439559494,-0.40626051672541025,1.3700361808272805,-0.0034316733020336243,9.150303120074927,-12.289461269109974,30.208318069481248
1760958814.9256785,-22.722152475353855,-0.3510013181389329,1.3111172935941997,-0.01912701636320333,9.542578938922803,-17.44343770194018,30.2276655673922
1760958814.9357796,-22.354671619934006,-0.2914572326725233,1.238819605543968,-0.038026019608345896,10.842298137620283,-22.153597796876227,30.11756225135476
1760958814.9457593,-21.96838299576492,-0.22992786287467276,1.1611714476374266,-0.05983355294529418,13.001943358171264,-26.119296259424463,30.103663796468975
1760958814.9558473,-21.563175194906886,-0.1693429389762888,1.0857345194948265,-0.08352731623043004,15.905784614947631,-29.09203997749006,30.41580767585703
1760958814.965796,-21.136650906954873,-0.11290611725317434,1.0186347541904697,-0.10751820844529358,19.36807382517004,-30.89334001477013,31.24073114887714
1760958814.9760578,-20.68515963449537,-0.06367680677846066,0.9640047245173052,-0.12993372970728387,23.142051843872242,-31.42866695495277,32.68320286786128
1760958814.9856484,-20.20510394562836,-0.02420340829997004,0.9238447880177114,-0.1489628237233615,26.9389247308622,-30.694948654493775,34.742919302722854
1760958814.9955995,-19.69427375158886,0.0037243687934366246,0.8982068380725441,-0.16319054189866689,30.45383115629344,-28.779889147610724,37.310596071567765
1760958815.005994,-19.152983859563854,0.01918784489379242,0.8855769879876866,-0.17185466531151627,33.39505288666644,-25.852695492006056,40.18250060056524
1760958815.0160763,-18.584839903564077,0.022135446369886673,0.883356561975808,-0.17497256979812975,35.51287146984397,-22.147126852963527,43.08933387635184
1760958815.0256922,-17.997022500505324,0.013296966595087787,0.8883712766563983,-0.17331365778450367,36.6248807290103,-17.938933402509864,45.73353464744137
1760958815.035647,-17.40004733990423,-0.005948971387868326,0.8973566662150678,-0.16822698546036055,36.63493398169116,-13.520607118056935,47.828735834388624
1760958815.0456727,-16.807022605484143,-0.03372619128704584,0.9073776326182899,-0.16136707489418295,35.54336807444809,-9.176737983697512,49.135804895936296
1760958815.0557008,-16.232481242032343,-0.06781065035065095,0.9161481518178327,-0.1543827693723533,33.44693265652498,-5.162979525801075,49.49116674100943
1760958815.065642,-15.690913216022789,-0.10576410595770573,0.9222253515139892,-0.14863782857109953,30.528044681669318,-1.6906626513346714,48.82462224377045
1760958815.0756378,-15.195161347022873,-0.14504475642613804,0.9250628272807702,-0.14501838555638655,27.034461609079397,1.0822781423984524,47.16544889910854
1760958815.0857515,-14.754871230386343,-0.18310017861839725,0.9249246699109694,-0.14385711074700425,23.25192336493825,3.0547207115294346,44.637045883835754
1760958815.095774,-14.375196914029114,-0.21746066288198473,0.9226831098269171,-0.1449748998471901,19.473400418604516,4.181603712295952,41.441622949368245
1760958815.1057372,-14.055952641795116,-0.24585404201530492,0.9195428445941728,-0.14781588528740072,15.969059021321284,4.470649836914245,37.8373442496105
1760958815.1158,-13.791359657221129,-0.26635121687616625,0.9167477491996443,-0.1516355944774259,12.960830506004893,3.9777479134524705,34.11089144300744
1760958815.1259155,-13.570462828072623,-0.2775306337622743,0.9153267288034556,-0.15569665238959374,10.604589896406782,2.8014126488015942,30.548601987190843
1760958815.1357431,-13.37819205502859,-0.2786313143061905,0.9159231800431544,-0.1594307384458903,8.981576216451732,1.076063340999597,27.409199039397823
1760958815.145987,-13.196936901180614,-0.26965634158297586,0.918729160853947,-0.16253750506677797,8.09911600014381,-1.0364219988145273,24.900728461846345
1760958815.155708,-13.008414718128183,-0.25139456949928607,0.923518451021383,-0.16500785120875106,7.899288744856386,-3.3572179431667,23.163736414665006
1760958815.1657345,-12.795564922582175,-0.22534487927617253,0.9297515770588949,-0.16707657864683334,8.273193267184817,-5.702898700814315,22.262014508324913
1760958815.175681,-12.54420611464564,-0.19354851660756955,0.936716431126638,-0.1691241204794325,9.078094037916326,-7.8987016111432915,22.181444371979847
1760958815.1859438,-12.244245311340421,-0.1583545007287322,0.9436703286117542,-0.17155558548468192,10.154918882751788,-9.791245537911752,22.83664186505299
1760958815.195769,-11.890314916107858,-0.12215613089080964,0.9499588024412067,-0.1746863603110456,11.344162086036627,-11.259051617729156,24.084316867386132
1760958815.2057803,-11.48181296035759,-0.087141142198378,0.9550975665919532,-0.17865762926681328,12.49897829776145,-12.219455402412976,25.741614073474956
1760958815.2158272,-11.022415808372976,-0.05509403183850408,0.958813165828865,-0.1833950723614391,13.49492455578678,-12.63110065049172,27.607244450754873
1760958815.2259405,-10.519203512332172,-0.02727752661638947,0.9610440307368389,-0.1886133372254524,14.236300224673379,-12.491984015594433,29.482992068170237
1760958815.235823,-9.981575319310362,-0.004403361867854466,0.9619080850205224,-0.19386054314299328,14.659328083427447,-11.8337758761967,31.19321115008316
1760958815.2457163,-9.420132830389022,0.013315707430560812,0.9616469394959254,-0.19859192665835732,14.732564557541211,-10.713706800585888,32.60023192528758
1760958815.2557142,-8.845675818050658,0.026056008043156897,0.9605599570217384,-0.20225903595511585,14.45498718373804,-9.205563641825671,33.61416215873774
1760958815.2659268,-8.268402990860599,0.03424722931408638,0.9589424861478816,-0.20439980057929702,13.852220939932442,-7.391242092366241,34.19633655500598
1760958815.2757208,-7.69735298756583,0.03844350587084629,0.9570397542925847,-0.20471523920510742,12.9713518037315,-5.353902333330069,34.356515354261965
1760958815.2859457,-7.140074121649447,0.039226539087804276,0.955021728950881,-0.20312090390083687,11.874761502395799,-3.173197836072353,34.14474816402111
1760958815.2958407,-6.6024842335235485,0.037152292262517254,0.952977527678801,-0.19976564068355607,10.633423344126438,-0.922463880062597,33.63948152240354
1760958815.3058553,-6.088876106641754,0.03273659378853982,0.9509240196910272,-0.1950161286447515,9.320114849563092,1.3326806080562617,32.93387800279523
1760958815.315879,-5.602032527249757,0.0264623835962714,0.9488236107389209,-0.18941133373098795,8.003001410365453,3.5350480759639087,32.12235129141559
1760958815.3258717,-5.143426843721336,0.0187876695325734,0.946609455778699,-0.18359540171236452,6.7400238222601265,5.6365558911913025,31.289019926391227
1760958815.3360133,-4.713490399576751,0.01013973362574546,0.9442186776311646,-0.17824013147599865,5.57449396555104,7.5991969781090996,30.49924853218239
1760958815.3457713,-4.3119241020268815,0.000894071541237681,0.9416317904971746,-0.17396815904574184,4.532244629946359,9.396261032923187,29.794833132497317
1760958815.3559697,-3.9380203708906065,-0.008651083851133501,0.9389098384613288,-0.1712852336208632,3.620540447743801,11.013452570884175,29.192841617215798
1760958815.365791,-3.5909502061369922,-0.01828840265063942,0.9362151717461913,-0.17052636319669506,2.8287364156605332,12.449430017307286,28.687723778016174
1760958815.3760345,-3.269965382687281,-0.0278905089146672,0.933802724434073,-0.17181838928133075,2.1304538090444773,13.71535714881031,28.25605519956687
1760958815.3859973,-2.9744745153060843,-0.0373722426805207,0.9319771658849368,-0.1750614230729745,1.4869244824543137,14.833236381525365,27.863121250576654
1760958815.3959627,-2.7039773450925457,-0.046637345647490135,0.9310241062485999,-0.1799329699928045,0.8511456845228824,15.832988292368862,27.470433680206476
1760958815.4056697,-2.457878381427048,-0.055529740875193134,0.931134757496663,-0.1859199707534654,0.17253489425024793,16.748397800107718,27.04320440606365
1760958815.4158213,-2.2352339052566155,-0.06380758833159658,0.9323473647993028,-0.19238238318775788,-0.598161877297908,17.61217140367753,26.55682705670433
1760958815.4259171,-2.0345014858109125,-0.0711472093792239,0.9345235748927399,-0.19864457609679317,-1.5038844328370697,18.450488692369987,26.001583104408663
1760958815.4358618,-1.8533554023321805,-0.07717227845759858,0.9373671846749566,-0.2040998929506073,-2.5763292121459704,19.277608670719477,25.38508703924695
1760958815.445775,-1.6886104497026042,-0.0814972672391484,0.9404823343375329,-0.2083066683005717,-3.83126212534034,20.091270533828077,24.7323390508004
1760958815.4557893,-1.5362693241853191,-0.08377319776523304,0.9434617296769688,-0.2110557237561364,-5.2644238166709565,20.869741607430083,24.083562892315406
1760958815.4658422,-1.391683231367995,-0.08372621175712812,0.9459918926685255,-0.21239744561384394,-6.848576683722686,21.571353540903424,23.490199974695017
1760958815.4759977,-1.2497968223818805,-0.08118329979444201,0.9479595711047999,-0.21262561166785682,-8.53234521310654,22.137190217185864,23.009502727720825
1760958815.4858909,-1.1054392916010376,-0.07608359917810133,0.9495416487351099,-0.21222224966046693,-10.241415337427672,22.497228839886944,22.69816890905884
1760958815.4957633,-0.953623474458945,-0.06847733571744521,0.951261556643006,-0.2117720525129371,-11.88239063342729,22.579714864805972,22.60543641305088
1760958815.5058334,-0.7898223259575414,-0.05851705950205944,0.9539981102924915,-0.21185641523507662,-13.349245032848817,22.322951143295764,22.766041569327204
1760958815.5158026,-0.6102051324729361,-0.046447262673377204,0.9589371949067982,-0.21293761093445757,-14.531978710806069,21.688115164961435,23.193444096588948
1760958815.5259168,-0.4118325940685409,-0.03259924238905256,0.9674631710687815,-0.21524484251976497,-15.326861387866039,20.67130135149323,23.873747486998955
1760958815.5357988,-0.19282717471369293,-0.017397242596810577,0.98099555556826,-0.21867629165983452,-15.64756231356899,19.312809301486197,24.760794964381315
1760958815.5456586,0.04745388841753118,-0.0013773265492315675,1.0007858112947159,-0.2227337951148043,-15.436476403636368,17.70181364341065,25.772988431472754
1760958815.555942,0.30821794878786335,0.014788196831707947,1.027696174015007,-0.2265075761696328,-14.675567707138224,15.974968664310058,26.792447509553327
1760958815.5659628,0.5870021209153464,0.030277467104770514,1.0619864521402056,-0.22872541734668486,-13.39595552291507,14.308208784058598,27.667177526155427
1760958815.575794,0.8794278972512044,0.04413897141817397,1.1031375876825427,-0.22787258173448718,-11.685192842464785,12.901960769492803,28.216907791711165
1760958815.5858333,1.179001610376165,0.055364300655108986,1.1497435083542629,-0.22237631471856753,-9.690771295588549,11.961087844708155,28.243125511272897
1760958815.5957055,1.4770413733369863,0.06302225939141587,1.1995021054640038,-0.21083390391866838,-7.61802244690635,11.671975656687568,27.543488422919193
1760958815.6059787,1.762816854437365,0.06644456083954586,1.2493271790996419,-0.19224975320681562,-5.720557147087997,12.18002038161832,25.930208305130122
1760958815.615778,2.023969028421552,0.06543150393731087,1.29558551986516,-0.16624054368614838,-4.28195220740159,13.571131643302188,23.251177442312535
1760958815.6259203,2.247232046263517,0.060425988108430445,1.3344421188770192,-0.13317196706239945,-3.588677648785695,15.860491350257282,19.41163053851046
1760958815.6358247,2.4194143306666573,0.05259191242536253,1.3622773529080197,-0.09420227414335049,-3.8961669882543517,18.9906530412869,14.39315218528988
1760958815.6457415,2.5285241432473913,0.04373530316557685,1.3761257206029411,-0.051220977885730934,-5.392110823931171,22.839372635262894,8.266222620437066
1760958815.6559365,2.564867167072854,0.03603336364912235,1.3740799980111105,-0.006684828972490321,-8.162848693240097,27.23580789028755,1.1927829422356164
1760958815.665709,2.5219237325160675,0.03159315273070877,1.3556091320909331,0.03663120198714737,-12.16936978085851,31.982287289747347,-6.58319330637805
1760958815.6757784,2.396844959694362,0.031931805600396816,1.32174233244907,0.0759367863952718,-17.23845887481836,36.877870135781535,-14.756738502693995
1760958815.6858687,2.190483554276331,0.037519260184848045,1.2750667971794105,0.10874480981314226,-23.072116092471177,41.739522999012266,-22.991703325276166
1760958815.695804,1.9069717215304243,0.047524156190052354,1.2194926357511255,0.13316486445976736,-29.275112157446014,46.417125974001195,-30.954768530684657
1760958815.7057784,1.552947141731351,0.059851732063769626,1.1597857491862318,0.14812975875471798,-35.39705436647173,50.79975887953047,-38.3483835503536
1760958815.7157404,1.136587306410042,0.07148071277512448,1.1009449630756891,0.15351634680457482,-40.98237662684759,54.81257875507691,-44.93769965773745
1760958815.7257373,0.66663275915399,0.0790255319780084,1.047551915387907,0.15013408363543385,-45.62009175595615,58.40565043138706,-50.56780245481795
1760958815.7359219,0.15156114821617603,0.07939593725073159,1.003219332334002,0.139577069915034,-48.98549208051165,61.53784035895177,-55.16937191931079
1760958815.7459767,-0.40097480207667935,0.07040848984084555,0.9702201879684903,0.12396470982528958,-50.86806249904368,64.15994582702471,-58.75285228807987
1760958815.7557666,-0.9843974101616921,0.05122141123848488,0.9493305687508328,0.10562320852963995,-51.18290429824419,66.20141955722303,-61.39292373804295
1760958815.7657716,-1.593160439608849,0.02250723359267379,0.939883375797686,0.08677264191128826,-49.966069473211675,67.56433625618538,-63.20637649019737
1760958815.7759228,-2.2224837954036536,-0.013664206035132645,0.9400078115056998,0.0692762933505993,-47.356738504364515,68.1267229030024,-64.32734357392884
1760958815.7857826,-2.8679713962438256,-0.054199389029469115,0.9470105015379293,0.05448575674337127,-43.570838559545784,67.75528694448954,-64.88414981859194
1760958815.7960117,-3.5252266192023836,-0.09552782808162065,0.9578333989427921,0.04318816444876365,-38.87136982187349,66.32537241160416,-64.98164509963667
1760958815.8057737,-4.1895679122526355,-0.13420736705838132,0.9695083498420793,0.03564008341078452,-33.54032948507507,63.74421250612135,-64.69177374107028
1760958815.815701,-4.855918130059838,-0.16746779294971428,0.9795298669648305,0.03166030874979472,-27.85580705853122,59.972700105097836,-64.05345128808898
1760958815.8259356,-5.518900180423861,-0.19359318668190487,0.9860907855287014,0.030750842110995543,-22.075938427709435,55.04115897141595,-63.08091792888633
1760958815.8359275,-6.173125389653657,-0.21208510779543463,0.9881628592671537,0.03221949569192829,-16.429484578420514,49.055826818858684,-61.778030959144175
1760958815.845743,-6.813617753365441,-0.2235988036139206,0.9854418163099641,0.0352858805619151,-11.111365207714785,42.194583014817646,-60.15479856884261
1760958815.8558292,-7.43628560036636,-0.2296889736305298,0.978201667628518,0.0391621382697943,-6.280856028162185,34.69244359204079,-58.24205030826153
1760958815.8657458,-8.03833870454718,-0.232430866495974,0.9671112172901698,0.04310859613273727,-2.060376855998343,26.819135604038255,-56.10055613685386
1760958815.875981,-8.618555603651235,-0.2339941459112555,0.9530584072472283,0.04647129165419231,1.4663732485064853,18.852343700600162,-53.82211072371248
1760958815.8858147,-9.177331231516513,-0.2362437985448149,0.9370105244542908,0.04871162288680191,4.257059955055776,11.050785750838386,-51.52192467282042
1760958815.8958635,-9.716475542381144,-0.24042957057622452,0.919917768331005,0.049437114701401046,6.31318352248817,3.631087841635973,-49.32374805167407
1760958815.9057422,-10.238783682141094,-0.2470071913159088,0.9026522388377146,0.048437022789345245,7.6807165498764745,-3.2483899649106394,-47.340969074092996
1760958815.9158087,-10.747447767994533,-0.25561277729951803,0.8859691056893481,0.04571905795041998,8.447198972648092,-9.494871498708735,-45.65798083636663
1760958815.9259682,-11.245417900465894,-0.26518767779694574,0.8704809720005976,0.04153578310608422,8.73423976251708,-15.079129009850165,-44.31612115882979
1760958815.9358761,-11.734835604167351,-0.2742268967575034,0.8566447449814765,0.03638444748191835,8.685526995088068,-20.02493420790415,-43.30747964405878
1760958815.9458327,-12.21665061044568,-0.28110299041254283,0.8447652995309793,0.030966800269480774,8.451683138296326,-24.39196839611853,-42.578078276530725
1760958815.955773,-12.690492994962154,-0.28440337557210493,0.8350176781694697,0.0261066648859926,8.17420490198158,-28.25499718107204,-42.03979635875766
1760958815.9657428,-13.154817710276982,-0.28321805020439,0.8274827652868446,0.022637152168384547,7.971052522424676,-31.68254506968859,-41.58846612765083
1760958815.9759178,-13.607284236967589,-0.27732950800693823,0.8221875487349647,0.02127956299635317,7.9261683590061995,-34.71829521599253,-41.12432381026409
1760958815.9860466,-14.045295073009058,-0.26728245073701223,0.8191425461928206,0.022539356828720297,8.0843923112209,-37.36804069313293,-40.570788595357214
1760958815.9959466,-14.466599603748561,-0.25433789980471805,0.8183713872067095,0.026640610388579157,8.45206883614092,-39.59428677945403,-39.88836235234356
1760958816.0060582,-14.869873306981455,-0.2403356671019924,0.8199271076882888,0.03350983090801815,9.002410164759297,-41.31959107529416,-39.08193401903931
1760958816.0160415,-15.255200245057772,-0.22749653817408602,0.823887618577223,0.042806464629105985,9.683773397912526,-42.438514917761196,-38.2013526378964
1760958816.0257578,-15.624410813134284,-0.21819143964419316,0.8303229252288825,0.05398654716301756,10.428696113613956,-42.83680581944329,-37.33628317931327
1760958816.0359704,-15.98124846030538,-0.2146948122995817,0.8392319942820081,0.06638064492227262,11.161857833133757,-42.41532303971544,-36.6068476391664
1760958816.0458353,-16.331353729114227,-0.2189312997566472,0.8504573181805953,0.07926707335795187,11.805933259777387,-41.11541742048825,-36.1514568797312
1760958816.0558524,-16.68206091937125,-0.2322232389679029,0.8635958938007335,0.09192557944567176,12.285296058769116,-38.94209652303981,-36.11280769050191
1760958816.0659277,-17.042004642132603,-0.2550508818583464,0.87793146588664,0.10366470088957422,12.528409259576257,-35.98139586384999,-36.62254241671182
1760958816.0758026,-17.42053530512631,-0.2868460505344749,0.8924124912278202,0.1138260892315106,12.470265203475376,-32.40891179592866,-37.78479705689053
1760958816.0859497,-17.826949932082456,-0.32585118979422173,0.905693708597685,0.1217787134934005,12.056296758450948,-28.487339889761085,-39.65897446496777
1760958816.0959864,-18.269562297772456,-0.36908522504793984,0.9162465640411824,0.12692227417621663,11.24874411817338,-24.551959094691984,-42.24262366120826
1760958816.10584,-18.754665390439616,-0.4124591026946022,0.9225262895811,0.1287186902619898,10.035589638495242,-20.98416817770581,-45.45616100624175
1760958816.1158667,-19.285476250631643,-0.4510732703027525,0.9231668610041246,0.12676064689392832,8.44105519425656,-18.17438396106321,-49.132049612682316
1760958816.1260004,-19.861189994544166,-0.47970571947431345,0.9171672333989729,0.12086927663373212,6.53557780830607,-16.476927526333142,-53.01161273060085
1760958816.1358235,-20.47629447238723,-0.49346380799391265,0.9040360952109474,0.11119626528742826,4.442428354982098,-16.1610120635869,-56.752592790123124
1760958816.146029,-21.120297943907584,-0.48853120930376265,0.8838738217481539,0.09829691931554387,2.3379491925275384,-17.36350217068947,-59.94968344270455
1760958816.1559885,-21.77799266490909,-0.4629026298341832,0.8573832323686272,0.08314496320914304,0.44291230155527533,-20.050421561293007,-62.16851415282734
1760958816.165837,-22.430317060266393,-0.4169716164260765,0.8258105831222045,0.06707614560735768,-0.9962506568789068,-23.994740574850898,-62.9911103942384
1760958816.1759605,-23.055792996540376,-0.353828153280548,0.7908238902532048,0.05166722221297858,-1.7357652475816683,-28.77720681238316,-62.068037970959104
1760958816.1858404,-23.632413304971713,-0.2791481386757414,0.7543427278320063,0.03856809802663751,-1.569578887465433,-33.81451189972223,-59.169820428658326
1760958816.1959596,-24.139758384171465,-0.20063100987398777,0.7183479954757013,0.02930652187045151,-0.36603296305002864,-38.415045654384954,-54.228610435985104
1760958816.2059305,-24.561057442756866,-0.12705068931328586,0.6847135794111167,0.025087336125216273,1.9008337933894535,-41.85758819783205,-47.36143950510488
1760958816.215794,-24.884903231475423,-0.06708281645630261,0.6550953275921528,0.026617611702792074,5.13266645111326,-43.48349941271656,-38.86914379950668
1760958816.2258775,-25.10638363223825,-0.02811794851544353,0.6308817827845395,0.03399484766892723,9.10636638033173,-42.78921258398101,-29.209685147371697
1760958816.2358985,-25.227491742815552,-0.015261218656628571,0.6131778528425404,0.04668514839185538,13.4937777070432,-39.50406214903767,-18.949558917490883
1760958816.245987,-25.256787358947182,-0.030672462341446823,0.6027873221727024,0.06359411695187542,17.89922541768364,-33.63955114207011,-8.70078852273981
1760958816.2558012,-25.20837617291948,-0.07333455387539094,0.6001934952347984,0.08320903007319173,21.90904004023773,-25.500393074263023,0.9470715959753526
1760958816.265949,-25.100332368055813,-0.13926314906521425,0.6055849859109063,0.10377802139921544,25.14492937635276,-15.654338637317494,9.490333312694794
1760958816.2758431,-24.95272613168607,-0.22210209381278548,0.6189838462003483,0.12349338505835564,27.31248054384278,-4.865326548399967,16.561498788195415
1760958816.285909,-24.785457701266136,-0.31399943428197424,0.6404706046633015,0.14065811661988678,28.2372615832085,5.9990557661018835,21.960110884599665
1760958816.2958796,-24.616152900710112,-0.4066312581788931,0.670399026302103,0.15382818981984853,27.88358670110009,16.070970162572753,25.66058590899397
1760958816.3057837,-24.458411090299347,-0.49222640388115413,0.7094400474149385,0.16192632268620236,26.35425358058839,24.58101261037329,27.796853187844313
1760958816.3157854,-24.32067280084999,-0.5644435835989051,0.7583468609680942,0.16431430349742157,23.87264187150661,30.938559527092686,28.627046513384283
1760958816.3257654,-24.205879597937432,-0.6189745838707367,0.8174634130347469,0.16080574841417913,20.75096442294644,34.78398735510228,28.484452981824308
1760958816.335793,-24.111957809998753,-0.6537975176101896,0.8861238236468546,0.15161645294881926,17.349996022981713,36.007864939481,27.722959196919962
1760958816.3458664,-24.033005358904347,-0.6690680306180757,0.9621473368572736,0.13727849863700528,14.036238822206666,34.737348230877274,26.66596410949025
1760958816.356096,-23.960924261240958,-0.6666938879271649,1.0416169243061089,0.11855924901408871,11.142274051544863,31.294667663507425,25.566987521686737
1760958816.3659165,-23.88714706097053,-0.6496843018013847,1.119065749711729,0.09641093910224895,8.935144025239298,26.136235575728726,24.588103391357894
1760958816.3760808,-23.804085587076887,-0.6214047958538935,1.1881034833632578,0.07194385128945036,7.596180167249101,19.78315540378574,23.799111248311515
1760958816.3859563,-23.70600689827781,-0.5848957483246379,1.242402426528884,0.04639233294415721,7.213827851519025,12.754602801999512,23.1963252837977
1760958816.3958256,-23.589203325704297,-0.542408000074022,1.2768464908655286,0.021043419503909696,7.788784028540227,5.5145233508416815,22.735562012243133
1760958816.4059136,-23.451523907140352,-0.49525622687720744,1.288558325398718,-0.00288030739846803,9.248467135763043,-1.5608016674049139,22.370376101661755
1760958816.4159534,-23.291508248332487,-0.44399772492297424,1.2775105552109907,-0.024362971081611322,11.466166533113968,-8.191423031955086,22.08515545082678
1760958816.4258082,-23.10745456405794,-0.3888442723612655,1.2465295184176783,-0.04272159930792363,14.279959540795959,-14.181391565288544,21.914269730880505
1760958816.435762,-22.89673423652853,-0.33014986677937574,1.2006904820688526,-0.05767310591103245,17.507918094186856,-19.393341138539864,21.942811147594536
1760958816.4458003,-22.65555034237739,-0.268813348684744,1.1462985490523234,-0.06931703038316946,20.958595666748348,-23.720635778666427,22.28993579541229
1760958816.4558945,-22.379182312014827,-0.20648739046031267,1.0897579217665232,-0.07804061059458772,24.438004935685516,-27.06685074346905,23.080253544970834
1760958816.4658089,-22.062630943044564,-0.14556203083389382,1.0366155981150458,-0.08438346706323983,27.75525777568386,-29.338351967594686,24.410810815322733
1760958816.4758778,-21.70151479004851,-0.08895440428442716,0.9909540309171252,-0.08891273377691317,30.728641635499606,-30.450564923083515,26.32110815711489
1760958816.4859703,-21.2930602152436,-0.0397696622408685,0.9551671685257314,-0.09214886894666079,33.19282026829798,-30.344255492058654,28.772228046499077
1760958816.495836,-20.83704036534935,-0.0009085391060596872,0.9300463899341163,-0.0945547508983004,35.00689802440155,-29.005837584486486,31.639195144178036
1760958816.5058262,-20.33653216711768,0.02530423594013613,0.9150574031986545,-0.09657048241212622,36.06270149795205,-26.485388184721764,34.718301904954515
1760958816.5158293,-19.79837526871717,0.03740756976730999,0.9087005790567623,-0.09865658037944872,36.292648570432824,-22.90725001908914,37.74841936565833
1760958816.5258584,-19.233241075566994,0.03496650265173646,0.9088850679698871,-0.10130669159108104,35.67653296098577,-18.470302690298652,40.44273707986077
1760958816.5360088,-18.655256823584452,0.01859731056002348,0.9132802684126079,-0.10500820601965542,34.246232984225834,-13.437573576273524,42.52558473142151
1760958816.545886,-18.081174780435546,-0.010128056457206146,0.9196246802048691,-0.11015680301747431,32.087013626802786,-8.117180344051413,43.76839661478531
1760958816.5560148,-17.529124515775127,-0.048859389607153726,0.9259769997821533,-0.11695492860507824,29.33415859537495,-2.838100052908545,44.019461557728214
1760958816.566057,-17.017034771764557,-0.09468065893441732,0.9308958187544273,-0.1253328088478786,26.164303584273682,2.075348770829807,43.22351064939085
1760958816.5758367,-16.56086163205902,-0.1443206805133517,0.9335370282505929,-0.13492183093163132,22.78183498451386,6.327090878920527,41.429004947818314
1760958816.585911,-16.172809616807385,-0.19434815826529253,0.9336637295780615,-0.14509146033501996,19.40170494480315,9.669012233196453,38.78281419982112
1760958816.5958104,-15.859772305173264,-0.24135928961400113,0.9315725824828234,-0.1550422663022977,16.230707750884044,11.916141808357114,35.51355396942665
1760958816.6058404,-15.622231511857454,-0.282173883578455,0.9279524404727392,-0.1639348758423575,13.449540990169977,12.957373949396699,31.906045385141756
1760958816.6157932,-15.453821437960181,-0.3140459229416876,0.9237030454760156,-0.17102883958152051,11.197837598142991,12.761917781643032,28.270163476609337
1760958816.6258972,-15.341681208249916,-0.3348750850470454,0.9197486136737113,-0.1758054360719771,9.56386729635817,11.38135235181317,24.907773438865572
1760958816.6359031,-15.267598978985735,-0.3433899455243539,0.9168793258028021,-0.1780526434172016,8.579881373693372,8.946800205905152,22.08153701673285
1760958816.6458583,-15.209820468444695,-0.3392693562939695,0.9156432852708227,-0.17789746326947697,8.223256553278405,5.660623843443347,19.989083956509326
1760958816.6559274,-15.14528408729264,-0.3231754356561256,0.9162972480750818,-0.17578012333768,8.422826929925542,1.7823601610297999,18.7453594495931
1760958816.6657934,-15.051976611071956,-0.29668507987850395,0.91881220344112,-0.17237580622675766,9.069207632853596,-2.390689347185865,18.374922783859304
1760958816.6758447,-14.911089504783723,-0.26212258120685183,0.9229222574428372,-0.1684800560432559,10.027595791250077,-6.546875152777339,18.814715219656392
1760958816.685862,-14.708697788591966,-0.22231113978780576,0.9282011553544772,-0.16488063790240048,11.151486827068448,-10.385402879266431,19.926495498814994
1760958816.695926,-14.436771756735602,-0.18027410916754147,0.934148808659244,-0.1622395125881828,12.295898207671595,-13.640530905935028,21.51692806449936
1760958816.705795,-14.09344864190604,-0.1389260989476217,0.9402707471925358,-0.16100419145553893,13.328962989263266,-16.101911443905234,23.362387345638577
1760958816.7158139,-13.682611659931062,-0.10079719459657625,0.9461372533879989,-0.1613600868707305,14.14108000485622,-17.62871446172498,25.2350772641385
1760958816.7257597,-13.212922171890494,-0.06782803889276698,0.9514154274297425,-0.16322707634081343,14.651153025099765,-18.156092969752613,26.92714541506066
1760958816.7358303,-12.696508527785069,-0.041259412400360095,0.9558746693132295,-0.16629636880115256,14.809792032861843,-17.69370279145362,28.270060854965738
1760958816.745808,-12.147527458068517,-0.021621376794657508,0.9593720067244124,-0.1700987074800394,14.59964546085369,-16.317145820182382,29.147462223154577
1760958816.7558348,-11.580788627526614,-0.008809881086832286,0.961826975661151,-0.17409167269742856,14.033237212151068,-14.154112153690699,29.500745611379006
1760958816.7657938,-11.010584927523627,-0.0022270854821652337,0.9631959754358351,-0.17775195454694492,13.148780726021853,-11.36747795389728,29.32765341816676
1760958816.7757857,-10.449814739455286,-0.0009564589269753967,0.9634538273518082,-0.18065822456642788,12.004463675155732,-8.13765087130709,28.674921455075108
1760958816.7860968,-9.909427637775908,-0.0039434367347383655,0.9625869227316051,-0.18255232024274304,10.671697157015712,-4.646154931336044,27.626585444670287
1760958816.7960782,-9.398176791222975,-0.010155047137719957,0.9605988938213685,-0.1833708877701995,9.227849982246319,-1.0619663155253551,26.28983681298991
1760958816.8058429,-8.922622616651545,-0.01869686619064695,0.9575268247195118,-0.1832451004011451,7.749047895964105,2.4684350575348506,24.78037595212918
1760958816.8157716,-8.487306585440782,-0.028873767297427102,0.9534642006514812,-0.18247068330134728,6.303668023725707,5.826890438495594,23.209065790071925
1760958816.825787,-8.095004977494288,-0.04019206510644095,0.9485861921989348,-0.1814534456322155,4.947139221380431,8.925393166158326,21.67135885825406
1760958816.8357673,-7.746980876558348,-0.052312465439546804,0.9431725489157842,-0.18063794310041423,3.718524313189422,11.70453747508577,20.24047601355854
1760958816.8457701,-7.443176311095101,-0.06497267005524952,0.9376223848905483,-0.18043038814139858,2.6391134053731937,14.129572125717312,18.964704259393
1760958816.8558981,-7.182319503415337,-0.07790345614321459,0.9324543009118746,-0.18113111227515455,1.7129607182875797,16.18524391733419,17.86855910185756
1760958816.8657963,-6.961956879237819,-0.0907615181743142,0.9282861975831928,-0.18289346278795557,0.9290350130186393,17.87059341408258,16.95704425363982
1760958816.8757606,-6.7784475225576335,-0.10309631501167792,0.9257918279140417,-0.18572154991217274,0.2644797628835819,19.194645198023366,16.221910430206893
1760958816.885839,-6.626972564962922,-0.11435828831894072,0.925635014545296,-0.18950923289519267,-0.3115871463646379,20.173582434011752,15.648678161867757
1760958816.8958051,-6.501610854798994,-0.12394529227741594,0.9283878472450594,-0.19411154507142067,-0.8342568724523836,20.8295736952003,15.223230871921555
1760958816.9058073,-6.395517146370923,-0.1312758666325978,0.9344454852913634,-0.19943161567027326,-1.3393718444850782,21.19099497120441,14.936976371012914
1760958816.9157844,-6.301215525575928,-0.13587360889061736,0.9439545979347616,-0.2055022499381531,-1.8606106973664034,21.29344541718343,14.789881212630183
1760958816.9258418,-6.210995624045797,-0.13744655306404172,0.9567722899257454,-0.21254095174439888,-2.427139458167348,21.18076978123548,14.791062504764069
1760958816.9359505,-6.117377763937552,-0.1359480930165107,0.9724669142023747,-0.2209598884350568,-3.061772824776206,20.905302805568105,14.957029500438535
1760958816.9458945,-6.013598067946621,-0.13160970156836183,0.9903621601786634,-0.23131836044002044,-3.7795937766410432,20.52671373757427,15.30804501841729
1760958816.9558573,-5.894056567402021,-0.12493921175019256,1.0096125852925308,-0.2442146652461533,-4.587042254112074,20.10910354547867,15.863362539079287
1760958816.9658241,-5.75467120943845,-0.11668166828885887,1.0292849124103,-0.2601260434669214,-5.481560511294631,19.716348674433316,16.636240059378874
1760958816.9759746,-5.593088863898779,-0.10774320776394562,1.0484111248040353,-0.27921844186541295,-6.451914938994406,19.406046119365968,17.629612335771927
1760958816.9857235,-5.408720172412991,-0.09908304321485306,1.0659878947162,-0.30116028133283446,-7.479255309478797,19.222741528525127,18.833122948558632
1760958816.9958315,-5.202586763573848,-0.09158525960563986,1.080928433617433,-0.3249833688786641,-8.538838903130507,19.19136195304326,20.221912739530655
1760958817.0057788,-4.976995281499313,-0.08592940369923208,1.0920127714689756,-0.34903587317455437,-9.602224090592767,19.3118790833516,21.757199257380716
1760958817.0160336,-4.735080071696859,-0.08248301079014451,1.0979021377124958,-0.3710638011852852,-10.639703614099515,19.556163523242862,23.38835027811844
1760958817.0258017,-4.480280106734177,-0.08123738279252546,1.0972677356951273,-0.38843734440265604,-11.622794035048699,19.867758129156776,25.055935709112493
1760958817.0357919,-4.215829691730135,-0.08180056393521985,1.089041772381147,-0.3985068735278416,-12.526645956872443,20.164943148011847,26.695178588964016
1760958817.0458074,-3.9443426732460756,-0.08345104811096289,1.0727449351975207,-0.39903247363808686,-13.332222242237199,20.347058231753202,28.239302207906764
1760958817.0558047,-3.6675558077513033,-0.08524474443546,1.0487975641866303,-0.3885929152670376,-14.02802194261172,20.30365891320827,29.62243965607241
1760958817.0659997,-3.3862708510076875,-0.08615809962206411,1.0187069090092458,-0.3668720545890165,-14.611112349604241,19.925761554777385,30.781985822032766
1760958817.0758433,-3.1005008377748826,-0.08524366893588196,0.9850571423883798,-0.33476186569150923,-15.087382281663713,19.11816941738563,31.660476033527374
1760958817.085944,-2.8097897228650632,-0.08177188780765134,0.9512935079604946,-0.2942878800670267,-15.471214277326085,17.811665431152594,32.2072109547882
1760958817.0958335,-2.5136432364322046,-0.07533454474226911,0.9213444016529987,-0.24840278181377445,-15.78497204569191,15.973750740023343,32.3798760638219
1760958817.1059966,-2.2119890521090637,-0.06589082024337788,0.8991436513918366,-0.20068386974994046,-16.058563666113624,13.616693634680662,32.14632508021505
1760958817.1157982,-1.905579511686965,-0.05374483230411878,0.8881130015972284,-0.15493792986787458,-16.32884364742623,10.80198082816556,31.48654276719347
1760958817.125794,-1.5962596998910925,-0.03945468742781493,0.8906630062583035,-0.11471149082884152,-16.638082001086058,7.640751722007331,30.394630671662817
1760958817.1358166,-1.2870455744555693,-0.023687769195733233,0.9077770105265159,-0.08274987833315009,-17.030631156982757,4.290244192440225,28.88052150763198
1760958817.1460872,-0.9819893919768706,-0.007052739061583928,0.9387508920493649,-0.06051642248205353,-17.54743786485508,0.9465229685331922,26.97103855083499
1760958817.156042,-0.68584944897441,0.010051495947445598,0.9811546905272349,-0.047911285885874476,-18.218871905125336,-2.166166327355334,24.70986899825468
1760958817.1659846,-0.40362084287030503,0.0275311825020009,1.03104882636896,-0.04328346223623998,-19.057033979667274,-4.809007211643639,22.15602386588466
1760958817.1758108,-0.1400148773013294,0.045610076306782855,1.0834349541696668,-0.04373778364604032,-20.049060568324528,-6.744615424409329,19.380428300051317
1760958817.186087,0.10100924272366187,0.06474672186297306,1.1328736310452945,-0.045658054298615296,-21.152993096311736,-7.7546094834342325,16.460431497387617
1760958817.19597,0.31655944403711667,0.08546151767040924,1.1741748847949436,-0.04533010377879831,-22.297598580896175,-7.657581499305111,13.472263183294144
1760958817.2059438,0.5048947353492073,0.1080969493577263,1.2030621744568668,-0.03955010657317026,-23.38715656917983,-6.325918264083012,10.481824283117804
1760958817.2160788,0.6652410731052159,0.13255237095124045,1.2167170084717687,-0.02612507484428959,-24.311639451539367,-3.699672925883252,7.534669699512396
1760958817.2259681,0.7973520989170397,0.15804719219811322,1.2141272358660653,-0.004200315157971517,-24.961846980985722,0.20421256544275904,4.646543857056229
1760958817.2362163,0.9008767458182512,0.18296982464743014,1.19618747316196,0.0256227219316714,-25.247929146003408,5.288525595681438,1.7962544441990438
1760958817.245881,0.9746370780019569,0.2048648886391113,1.1655349777140407,0.06138650136394236,-25.11856194899979,11.378653232658879,-1.077140778734459
1760958817.2560642,1.01595070055469,0.2206001472744166,1.1261440461860521,0.10007538707317117,-24.57717483986108,18.23126260623532,-4.071100125493102
1760958817.2659774,1.0201500878296845,0.22673537917006195,1.0827383295266655,0.13806377787431706,-23.691331033877077,25.54763956231822,-7.309331618831071
1760958817.2760174,0.9804486332420222,0.22007857600546918,1.040106826098363,0.17164312997031952,-22.591732130989246,32.99025413814169,-10.92461374374666
1760958817.2858028,0.8882673343462211,0.19835334004562596,1.0024267203947468,0.19754413632480686,-21.458443671370397,40.20141506061654,-15.036079571581945
1760958817.2957592,0.7340583747338231,0.16083167706213633,0.9727069526194758,0.21337381562369837,-20.49401391419336,46.82343129169302,-19.723697891415693
1760958817.3058872,0.5085519091491643,0.10875316595709461,0.9524607609839497,0.21790566814152254,-19.886241749842196,52.51994953397597,-25.004046715095857
1760958817.315976,0.20424100873791823,0.04539112144593143,0.9416745508430512,0.21118982283280632,-19.766880718550404,56.99785480788715,-30.812303571939847
1760958817.3257785,-0.18315437262405768,-0.02427521764715228,0.9390624692261788,0.19448410093149363,-20.175286580105077,60.02855029314232,-36.994887767520765
1760958817.3357885,-0.6535154582518415,-0.09421921338463075,0.9425135763202072,0.17003710286470256,-21.036593488101534,61.4668235845695,-43.315183830413524
1760958817.345789,-1.2016656814748885,-0.15822384962479827,0.9495954854831816,0.1407695637255641,-22.16174772351317,61.26491657378518,-49.47205926941106
1760958817.3560538,-1.8173535268946046,-0.21077858297281377,0.9579918490388782,0.10989977460789217,-23.271860089758924,59.479058159146085,-55.12864125469957
1760958817.365889,-2.4858983024176258,-0.24786343374208236,0.9658027266191503,0.08055515094152133,-24.043101268522957,56.26607565846765,-59.94762957719478
1760958817.3759892,-3.18941845506179,-0.2674950520495362,0.9716935301131996,0.055413482689143125,-24.162897102204134,51.869041904493265,-63.629029822744506
1760958817.3860295,-3.908479551554469,-0.2699502916814614,0.9749154317956155,0.03641898962408295,-23.385519763690343,46.592901115888246,-65.94599173747906
1760958817.3958821,-4.623940944481019,-0.2576343005005334,0.9752338610072726,0.02461108394240027,-21.575935781126397,40.77292540810847,-66.77417742065737
1760958817.4058814,-5.318748970045522,-0.2346197417012009,0.9728027770742746,0.02008552942587088,-18.734027432338173,34.7401220038189,-66.1100550073631
1760958817.4158561,-5.979424471715824,-0.20594227778396945,0.9680204229386934,0.02208356061091816,-14.995649496111113,28.788215591679776,-64.07430031762266
1760958817.4258876,-6.5970305668257705,-0.176781322843767,0.9613979975778285,0.02918256789229955,-10.611429918325863,23.14670968356252,-60.898532114280584
1760958817.4360447,-7.167487846314924,-0.1516746336119478,0.9534633379554562,0.039549028836248515,-5.908155769169319,17.963853456282234,-56.89675885773651
1760958817.4459672,-7.691222235828557,-0.13390676943256016,0.9447078956264079,0.051212412692153694,-1.2404363185713447,13.30203766156403,-52.42628176918247
1760958817.45593,-8.172261610666776,-0.12517394402178536,0.9355717623150887,0.06232379174250943,3.0584376189335867,9.146221724422189,-47.845136994532105
1760958817.4658968,-8.617003551617463,-0.12556558124865044,0.9264532283635828,0.07136927628756663,6.718191497720853,5.4236987125655975,-43.47357948462419
1760958817.4757686,-9.032923239661777,-0.13383073158970027,0.9177277133991963,0.07731494809403988,9.559907671546611,2.0312986490186864,-39.5655484864842
1760958817.4861047,-9.427464100409559,-0.1478379918746593,0.9097631376601283,0.07966961876507783,11.50829436918574,-1.135401778225135,-36.293238522400166
1760958817.495916,-9.807270742677673,-0.16510886378143108,0.9029216367048758,0.07846575265121046,12.588252262843485,-4.1566367010617356,-33.744896719050715
1760958817.5059328,-10.177818063863487,-0.18330977025915957,0.8975407317174764,0.07417373783277573,12.908410901379199,-7.071528149700219,-31.933621263730902
1760958817.5159204,-10.54339397646232,-0.200616800378041,0.8938925774186611,0.0675743942033514,12.635680985598682,-9.872354717706369,-30.813588752322886
1760958817.5258827,-10.90732524009738,-0.21590629456351215,0.892128498786502,0.05961559071461928,11.965491958014129,-12.510147830649442,-30.299726855078653
1760958817.5359042,-11.27230468415432,-0.22876509952587804,0.8922252974294071,0.05127337697968583,11.09245692848501,-14.909371277385702,-30.287150366063905
1760958817.5461192,-11.640685114371966,-0.23935182580466907,0.8939543765866055,0.04343203963919053,10.185750729587637,-16.987686318519067,-30.667472519605735
1760958817.5558908,-12.014644964587989,-0.2481689991346562,0.8968901553397679,0.03679395366120443,9.372406528547296,-18.675991130792095,-31.340199939864018
1760958817.5659032,-12.396190122599574,-0.2558186982938289,0.9004619906687389,0.03182691828451456,8.730077854326183,-19.93418109391045,-32.218638015838685
1760958817.5759602,-12.787017194882413,-0.26280707267105674,0.9040400956524379,0.028751271518150427,8.288904436077875,-20.75933420386386,-33.23088712610839
1760958817.5859447,-13.188308388105122,-0.26943873583139794,0.9070360181552211,0.02756210262363269,8.040437103397123,-21.185001935591856,-34.31740687118165
1760958817.595971,-13.600545767290345,-0.2758094146820167,0.9089943263403149,0.02807621123946222,7.9505224390028895,-21.272488906894626,-35.42709145114257
1760958817.6059115,-14.0234203478688,-0.2818752495094364,0.90965443292227,0.02999133020550009,7.972823806600199,-21.09684228131175,-36.51373316402447
1760958817.6160235,-14.455876230709793,-0.2875584254851781,0.9089689104206141,0.03294623589967186,8.060215175953319,-20.73127433338984,-37.53419136145626
1760958817.6258929,-14.896285994863696,-0.2928456916375154,0.9070755473192659,0.03657307195153572,8.172364997999816,-20.233726705976743,-38.4487363971844
1760958817.636048,-15.34271658091617,-0.29784769195699073,0.9042328033401983,0.040536944591666055,8.27906535176263,-19.63837419637193,-39.22320324917292
1760958817.646135,-15.79322594957054,-0.30280709081663854,0.9007390624439026,0.04456234931043,8.359916709414719,-18.95341132273282,-39.83203122313552
1760958817.6561897,-16.24613291337496,-0.30806419086053066,0.896860774592962,0.0484493039769205,8.401610827810337,-18.164921417023823,-40.26111536784849
1760958817.6659358,-16.700220642247714,-0.31400201893507707,0.8927900744129168,0.05208213560364154,8.394174685317582,-17.24539761783809,-40.50962027553967
1760958817.676197,-17.154857538345823,-0.32099313718878414,0.8886398019793931,0.05543132342222987,8.327251480185172,-16.16480648710435,-40.59032925349928
1760958817.685862,-17.61003605676425,-0.3293588832926822,0.8844686341206237,0.058546013801106314,8.187063142685409,-14.902010847322707,-40.52848181801854
1760958817.695873,-18.066335302197963,-0.3393372735596399,0.880318307507871,0.06153324989198768,7.9543915988234755,-13.454791605193265,-40.3592293762208
1760958817.7060719,-18.52481010143595,-0.35104868527094146,0.8762430379027079,0.0645206384018218,7.603847627296509,-11.847394211445389,-40.12381782732162
1760958817.7158341,-18.986805397287977,-0.36445209979658244,0.8723178260694051,0.06760379172921822,7.104794428313339,-10.135176106209135,-39.86452261674577
1760958817.7258556,-19.45369606092419,-0.3792944975270118,0.8686227581736325,0.07078768730613046,6.424382499993112,-8.406301363997974,-39.61837520449996
1760958817.7360735,-19.92655946818185,-0.39506445986292005,0.8652087700861906,0.07393725593663995,5.533053632949293,-6.780435051632863,-39.409916867997715
1760958817.74584,-20.40579827121267,-0.4109633467994509,0.8620539848772799,0.07675315556267362,4.412482977718292,-5.404148933422114,-39.24357387013874
1760958817.7558763,-20.890740090937747,-0.4259042592247511,0.8590207889945766,0.07878467308485927,3.065285161397501,-4.442521214783658,-39.09665461426541
1760958817.765827,-21.379249001453076,-0.43854543559897774,0.8558256067151848,0.07948572059340116,1.5250848169258593,-4.066468756225001,-38.9142828435525
1760958817.775931,-21.867393717264672,-0.4473650737840634,0.8520355952639369,0.07831250331132932,-0.1350310654006786,-4.435836053966708,-38.607695895884746
1760958817.7861118,-22.34923075041609,-0.4507867082948446,0.8471045150384049,0.07485101486432233,-1.7979261143634737,-5.679129300447624,-38.05719470201282
1760958817.79586,-22.81677103978844,-0.4473599939679697,0.8404499337565492,0.06894971306787241,-3.3037944953372804,-7.871810528399279,-37.12058179354161
1760958817.806006,-23.260192314347368,-0.43598565953586066,0.8315597950571516,0.06082437089166889,-4.459004486498265,-11.015976377521337,-35.647129884487896
1760958817.8159163,-23.668327900044105,-0.41615183542751794,0.8201086586812641,0.051105734124658075,-5.05283170963781,-15.024783974923906,-33.496052500888524
1760958817.8258746,-24.029412427199972,-0.388135900653691,0.8060676786697187,0.04081513087041883,-4.881096144439497,-19.71495719272071,-30.55732265506737
1760958817.8359911,-24.33201470395542,-0.3531293790258246,0.7898012576878923,0.03127029869073069,-3.7742544745293056,-24.80998897255649,-26.77182636149662
1760958817.8459473,-24.566054644233787,-0.3132589518647254,0.7721473388400095,0.023936660841831468,-1.6263322676930603,-29.95526105465143,-22.147530905371575
1760958817.8559005,-24.723789654515134,-0.27149415925135384,0.7544740461230482,0.020245667901469568,1.5795391418086793,-34.744444183299585,-16.768723160042022
1760958817.866045,-24.80066118133184,-0.23144457112687739,0.7386971693600554,0.021402314389525945,5.7532000015736875,-38.75463150303561,-10.79634372360865
1760958817.876076,-24.795906135622054,-0.1970557675569231,0.7272373918125451,0.028201697692714873,10.690761347684802,-41.58618907556256,-4.458742280507908
1760958817.885981,-24.712856049000724,-0.17221975686434932,0.7228971782879283,0.040872924675413355,16.08161180239855,-42.90263385205355,1.9664879743840056
1760958817.895935,-24.55886999786646,-0.16032726153783391,0.7286455015988493,0.058969163303841755,21.53007518580819,-42.46600501763269,8.177759325193703
1760958817.9060464,-24.34487893327728,-0.16380701554539104,0.7473123986096141,0.08132444606293668,26.590825385195984,-40.163942890223964,13.879039963897313
1760958817.916021,-24.084560322129796,-0.18371486674469958,0.7812108541901078,0.10609817044855453,30.81519246407602,-36.02572523643773,18.81027462239168
1760958817.925949,-23.79321016459827,-0.21944490272593573,0.8317163338090012,0.13092255075813047,33.80352817056082,-30.225602041800634,22.774937402758912
1760958817.935843,-23.486428480048648,-0.2686305501114726,0.8988443062894728,0.15315317428395442,35.25702350041836,-23.072820822508138,25.661041074153296
1760958817.9459534,-23.178775588890858,-0.3272840165399976,0.9808788279028747,0.17020005645347108,35.0211754344924,-14.988803880140868,27.452406972285416
1760958817.955865,-22.88257836759244,-0.3901878025540586,1.0741248986416698,0.17989314792890704,33.113096753111755,-6.473158545443285,28.227988578983993
1760958817.9660735,-22.60705516462022,-0.45150462594815244,1.1728785295135518,0.1808195234586648,29.72658438731427,1.938375181546744,28.14860708020439
1760958817.9761183,-22.357876947981932,-0.5055199255915569,1.269715645171795,0.17256340481844398,25.21234102465256,9.719488416223959,27.43251955197494
1760958817.9860063,-22.137194802704894,-0.5473887259552351,1.3561737813080077,0.15578716954126048,20.035357936053426,16.39685473978321,26.323495518264217
1760958817.9961462,-21.944060812132903,-0.5737422654395656,1.4238219531360894,0.13211556696073434,14.71612312021223,21.586272172445714,25.05701676083077
1760958818.0061142,-21.775083471793977,-0.5830297068726095,1.4655835174219047,0.10382795802377391,9.765773017768979,25.017513475877653,23.83120429060648
1760958818.0160754,-21.62512201961252,-0.5755260960054129,1.4770328563973754,0.07341633470575276,5.626518860412584,26.546541320456022,22.788502556661943
1760958818.0258536,-21.48785100595864,-0.5530189202775403,1.4573131998694633,0.04311357033185232,2.62721864647899,26.156404040932937,22.011743936777357
1760958818.0358121,-21.356106605330613,-0.5182721511593722,1.4093932804184848,0.014518581163970604,0.9601759027006547,23.949854604892824,21.53441810018374
1760958818.0459416,-21.222030752743514,-0.4744285482283815,1.3395754112657914,-0.011572768054731954,0.6800827602230336,20.13685416306556,21.360926192682626
1760958818.055974,-21.077122421409577,-0.4245171744031727,1.256383740482577,-0.035085129595734045,1.7209080055711587,15.01880648489128,21.489674325439694
1760958818.065869,-20.9123523502341,-0.3711734550395919,1.1691105310001506,-0.0563736483550441,3.923126101961696,8.969644124671897,21.931120453024157
1760958818.0759568,-20.718475358953427,-0.31658105888725163,1.0863560046194984,-0.07584799475631243,7.063176523567865,2.4129665334143735,22.71474617694777
1760958818.0860074,-20.486590468918045,-0.2625615372766461,1.0148683237386922,-0.09365793949437035,10.879310190784338,-4.205127169375085,23.882827003851176
1760958818.0959852,-20.20889652922802,-0.21070995943750395,0.958884511515869,-0.10955025777677113,15.091559437570282,-10.44647709731443,25.47334143735224
1760958818.1060696,-19.87952174894762,-0.162501003232434,0.9200201087097202,-0.12292821782775845,19.416589050536274,-15.912119494865802,27.4977225365787
1760958818.116095,-19.49529197048785,-0.11933590773429421,0.8976087315286768,-0.13306690158824305,23.579555370145076,-20.27114527632434,29.920428492272368
1760958818.1261787,-19.056330139057472,-0.08253519103317947,0.8893068417199838,-0.13939188150726523,27.32499195460683,-23.283991071666836,32.64642339598124
1760958818.1361408,-18.566420332652594,-0.05329565673974996,0.8917766152300679,-0.14172291881274965,30.42797208249359,-24.817679648860764,35.52019946148807
1760958818.1460414,-18.033103945283695,-0.03262848338137172,0.9013158477497758,-0.14040905244583665,32.70588682445676,-24.85161898670819,38.336874358992134
1760958818.1559107,-17.467495296903103,-0.021287463570476894,0.9143691349560532,-0.1363225024141535,34.03017931298503,-23.473837290460263,40.8631378613214
1760958818.1660311,-16.88381117703212,-0.019690568680543422,0.9278981310572376,-0.13072181791875231,34.33640638764051,-20.86872007607531,42.86405716745373
1760958818.1759887,-16.298612615224222,-0.027837543143024574,0.9396106433507727,-0.12502747461541158,33.63046267515979,-17.29817090338521,44.13116472938364
1760958818.1861207,-15.729767780890155,-0.04523047306579698,0.9480595627461221,-0.1205688791584446,31.989053763775587,-13.078483635304163,44.50767051564809
1760958818.195993,-15.195168661322311,-0.07081089535903466,0.952629174421516,-0.11836018064026384,29.553485447854605,-8.55511609910109,43.907687613502894
1760958818.206098,-14.711271478104237,-0.10293340518553859,0.9534306249821972,-0.11894812984072795,26.517112069361552,-4.077169538657851,42.32760093652753
1760958818.2159283,-14.291576136672063,-0.13939818331459025,0.9511319287673827,-0.12235521911661404,23.10787840474234,0.027061230973877227,39.84881040355947
1760958818.2259371,-13.945202244090407,-0.1775591148274155,0.9467509618596541,-0.1281210083460176,19.568043466333457,3.47238799726239,36.63192418777665
1760958818.2359369,-13.67574418799363,-0.21450911899981256,0.941441021912765,-0.13542689945314393,16.13340290566425,6.0358338548503685,32.903136711681455
1760958818.2460384,-13.480583843095827,-0.24732548154170533,0.9362966616400396,-0.1432760600296756,13.014252820700845,7.571353875054404,28.934123870223374
1760958818.25594,-13.35080235892908,-0.27334402466847674,0.9322026358055997,-0.15069156751583812,10.380026754372523,8.018886216965315,25.01735906618254
1760958818.2660754,-13.271764915198073,-0.29042564712785296,0.9297410556015426,-0.1568934058384643,8.348976080772296,7.406618404813727,21.43922281500607
1760958818.2758908,-13.224361974653865,-0.29717948300902236,0.9291612748520447,-0.16142079355731515,6.983483819716815,5.845868923863573,18.45355034890349
1760958818.2860196,-13.186790196816613,-0.29311074628345746,0.9304054179453921,-0.1641809091119876,6.29076320366142,3.5187670961091695,16.2582822560218
1760958818.2959092,-13.136664245054071,-0.278668908659689,0.9331737031749471,-0.1654239939226393,6.228017491991815,0.659817669424733,14.97763627138293
1760958818.3059976,-13.053188780136288,-0.25518508748825985,0.937010662343629,-0.16566068673848414,6.710786254416824,-2.466708498569744,14.651712106488711
1760958818.3159835,-12.919105896955593,-0.22470548807463198,0.9413952278461906,-0.16554566979882307,7.623196676188241,-5.5910072521329335,15.234697528261677
1760958818.3259056,-12.722172871517621,-0.18974574031092187,0.9458217210752214,-0.16575272212079145,8.82906709509164,-8.46085731360708,16.601901761704074
1760958818.3360183,-12.456008241913823,-0.1530035768356353,0.9498632223147556,-0.16686273297573725,10.183108880373153,-10.861156824054216,18.56479478766502
1760958818.3461554,-12.120249892626239,-0.11707194254589177,0.953213060989291,-0.1692801576178363,11.541703126892966,-12.628062805470208,20.89223501072972
1760958818.3558333,-11.720073561900904,-0.08419168056631267,0.9557037731564706,-0.1731861101581842,12.77282745819432,-13.656768779331275,23.33529996871255
1760958818.3660033,-11.265204585473422,-0.05607389871838887,0.9573053552037548,-0.17852910494817278,13.764700926053036,-13.902866228307062,25.652744795246132
1760958818.3759305,-10.768607336927202,-0.033808828188877114,0.9581060460524168,-0.18504859384727437,14.432680369774655,-13.378073120228452,27.634172954841112
1760958818.3859022,-10.245051734807369,-0.017862857260841986,0.9582796654099741,-0.19232261758617628,14.723948998781731,-12.141747748832127,29.11846666211843
1760958818.3959103,-9.70973826844765,-0.008151414444775242,0.9580441617745463,-0.1998292348352895,14.619617955308662,-10.289927282857512,30.005758660124986
1760958818.4058998,-9.17712171528099,-0.00416524212654205,0.9576166511839336,-0.20701170749127681,14.13401884164344,-7.943596998344177,30.262092292755078
1760958818.4161236,-8.660020464479286,-0.00512260937484204,0.9571707000656502,-0.2133393755390676,13.311190124817575,-5.237568311866214,29.91679601593303
1760958818.4259026,-8.169042919177837,-0.010119572191088102,0.9568016595349613,-0.21835919227238018,12.218831151388677,-2.310851290973856,29.053399797610936
1760958818.4360254,-7.712312500664409,-0.018253853858286595,0.9565053977774239,-0.22173612625402153,10.940282298182876,0.7011063913156617,27.795582055908767
1760958818.4460833,-7.295436366831055,-0.02870616512187559,0.9561746535606358,-0.2232830821243931,9.565342660929767,3.672356166957559,26.290109798185007
1760958818.4561284,-6.921647644400861,-0.04077573079454104,0.9556151118862499,-0.2229816640984819,8.18090054319201,6.49084049599859,24.688971941686944
1760958818.4659665,-6.5920566565759735,-0.05387956184932316,0.9545803419459298,-0.22099323388721162,6.862384369417328,9.061568684307456,23.132867096776245
1760958818.4760408,-6.305962187224908,-0.06753066575822554,0.9528217017206093,-0.2176560819501084,5.666936769927925,11.308822206823127,21.737886063233123
1760958818.4858775,-6.061185872260946,-0.08130744966085125,0.9501464520082548,-0.21346243036299858,4.628996484452544,13.177507889016537,20.58666935803933
1760958818.4960291,-5.8543967852715735,-0.09482039774370488,0.9464745321507272,-0.20901167038601343,3.7586779418633696,14.63368126260296,19.724623572074723
1760958818.5059743,-5.681394576264973,-0.10767871017328068,0.9418827326797976,-0.2049430535663947,3.0430071219264345,15.66424809266809,19.161080780105536
1760958818.5159023,-5.537326264490458,-0.11946066997230391,0.9366258433172262,-0.2018579237449281,2.4497452434114253,16.275934996129852,18.874690775339804
1760958818.5260916,-5.416827407157396,-0.12969455050709927,0.9311277958665417,-0.2002450102511444,1.9332494720777782,16.493747060255963,18.821903825137703
1760958818.53597,-5.3140992893837335,-0.13785823482119786,0.9259406059637433,-0.20042142128389082,1.4416170288569343,16.359191884461,18.947152244566404
1760958818.5459628,-5.22295259296051,-0.1434034524638668,0.9216739440912918,-0.20249770476823847,0.924249824479298,15.928465792213393,19.19326997903998
1760958818.555908,-5.13685808496037,-0.14580512656466527,0.9189028654954313,-0.20636949567121843,0.33894850978449903,15.270585695556996,19.510782609112255
1760958818.5661662,-5.049043388381032,-0.144629809479441,0.918065304356256,-0.21173305074682458,-0.34232222891455943,14.465206613430652,19.86493063777832
1760958818.576066,-4.952663380761116,-0.1396119567591291,0.9193645480992245,-0.21811905963641462,-1.1297618944778693,13.599706746692547,20.239628867356807
1760958818.5859895,-4.841054341858911,-0.13072433118441848,0.9226954858434712,-0.2249387711713222,-2.014741235895807,12.765127504546019,20.63798254741955
1760958818.596174,-4.708063023348187,-0.11822927954596298,0.9276156912289626,-0.2315376586814414,-2.971772669529878,12.050736668256366,21.079436620723705
1760958818.6060677,-4.548424695974495,-0.10270022827079149,0.9333787603960613,-0.23725327288484951,-3.9632973006392707,11.537291852950881,21.59407533519115
1760958818.6159039,-4.358150916963064,-0.08500646076473388,0.9390340628560481,-0.2414748232610247,-4.9466370799439225,11.289440888443421,22.214960153867608
1760958818.6260216,-4.134879264068479,-0.06625835948895441,0.9435785411332298,-0.24370207468325064,-5.882004937721583,11.34802879643897,22.96965291747693
1760958818.6361818,-3.8781344399765367,-0.04771469715363236,0.9461330386049845,-0.2436001756252955,-6.740185331061748,11.723333564815297,23.872193992623743
1760958818.6460578,-3.589453895159803,-0.030658371740867704,0.9461136886014738,-0.24104538666291633,-7.508464647975037,12.390388903992328,24.916773992888004
1760958818.6559718,-3.2723423589204503,-0.016252234323123813,0.9433743080248347,-0.23615566427350096,-8.193623259604134,13.28752958028144,26.07414288899545
1760958818.6659904,-2.9320388411949967,-0.00539194756916192,0.9383015876654094,-0.22930081186473253,-8.821279052924831,14.319063335790984,27.291449619797813
1760958818.6758878,-2.575105456734152,0.0014231650658169707,0.9318484046713029,-0.22108860909629724,-9.431524602360016,15.362511891231724,28.49572489057385
1760958818.6860645,-2.2088757573334616,0.004179417330031449,0.9254933312508749,-0.2123241278845356,-10.071493357564231,16.280224153210067,29.60065695497003
1760958818.6959481,-1.840825061438154,0.0033798615450932852,0.921118697745553,-0.2039392994715593,-10.786066691950957,16.934473388166804,30.51574370776033
1760958818.706115,-1.4779404859567185,6.832864410272098e-06,0.920806921030022,-0.19689052655690834,-11.608267621830459,17.204554818791856,31.156436236122175
1760958818.7163534,-1.12616997206146,-0.0045832528856667495,0.9265664310887792,-0.19202502290169954,-12.550917005716888,17.00401206682287,31.453614820910108
1760958818.7259412,-0.7900172218442438,-0.008820416808702202,0.9400144063674931,-0.18992249124161611,-13.600883246276908,16.29598791082091,31.360734141343592
1760958818.7361662,-0.47232769302158967,-0.011116437850233076,0.962060295638583,-0.19072995522677527,-14.716870071108644,15.10479222407676,30.85728332493947
1760958818.7461188,-0.1742875117399423,-0.010072584121635898,0.9926455452302654,-0.19402365480237077,-15.831313000160208,13.522024290653883,29.947798039058128
1760958818.7561657,0.10436208339409733,-0.004679575225860654,1.0305955520913246,-0.1987431923613529,-16.856630841518616,11.705905596003262,28.65641735224096
1760958818.7659936,0.36490819476216935,0.00550921947188176,1.0736275918545573,-0.20323649614358102,-17.695731057531102,9.872880621419133,27.01774487935363
1760958818.7760882,0.60907804682244,0.02025224915495479,1.118535040118626,-0.20542883484799093,-18.25624478916537,8.281110969136133,25.06542879982725
1760958818.786016,0.8383296338983254,0.03856538907996909,1.1615376388238137,-0.20309795838247044,-18.467451524978788,7.206331693913482,22.820349238918272
1760958818.7963064,1.0530941426394798,0.058762144573024304,1.1987545755261335,-0.19421238196754406,-18.298195444886943,6.911710961617887,20.280568165631117
1760958818.8060887,1.2520649056160311,0.0786060487570615,1.2267275040745502,-0.17727505536259464,-17.773293558192538,7.614735966123024,17.415235660058094
1760958818.8158705,1.4316439721200254,0.09557713811300891,1.2429024088449858,-0.1516127033640854,-16.98518615378376,9.455404423307897,14.164401368225848
1760958818.8259645,1.5856612870834987,0.1072287020267604,1.245980517292754,-0.11756341474209375,-16.09723710182296,12.470692606308868,10.446051111453599
1760958818.83591,1.70546583914241,0.11158289153614862,1.236072024046947,-0.0765349089670648,-15.3354560576686,16.580055006651875,6.170570245508492
1760958818.846041,1.7804472028532208,0.1074949639084671,1.2146272401955798,-0.030921974510224395,-14.966633400218406,21.585498166134414,1.2612322159075615
1760958818.8558724,1.798978039286908,0.09491136834902733,1.1841677872349554,0.016118709913104812,-15.263037769332561,27.187733659090163,-4.322504238223279
1760958818.8660371,1.7496815776027093,0.0749575179504724,1.147882851384016,0.06102573674152429,-16.45691188580832,33.01738403561588,-10.563537306480685
1760958818.875984,1.622844650249021,0.0498177450473789,1.1091792454002076,0.10028814130023349,-18.69154749765566,38.67761598216013,-17.372485164820585
1760958818.885886,1.4117457339548156,0.02241142983871525,1.0712710035822048,0.13093441863904318,-21.978604892321428,43.7923682837291,-24.583711655795252
1760958818.8959494,1.1136702289216627,-0.004082483039773039,1.0368663744412931,0.15096835286421026,-26.172212426449363,48.05290859348655,-31.963569163570625
1760958818.9060304,0.7304425846967586,-0.026760456425316537,1.007970160324717,0.15966225557833819,-30.96834337108984,51.2550803332752,-39.22984127291689
1760958818.915926,0.2683965102059702,-0.04348005444442733,0.985787004000107,0.1576411897266529,-35.93304226609666,53.32057950594949,-46.07935605040541
1760958818.9258282,-0.26219782318840024,-0.053200028605197645,0.9707011016377307,0.14673602546575845,-40.556392633323696,54.29808593110958,-52.21966884393068
1760958818.9359386,-0.8481483851401677,-0.05611399457915846,0.9623169573907635,0.129636617494875,-44.32274869724922,54.34375794750261,-57.40043722626775
1760958818.946098,-1.4746396341755843,-0.05356345525506808,0.9595583183640688,0.10942209788158883,-46.783833107829054,53.68467184238017,-61.44027813127405
1760958818.9558737,-2.126627870668937,-0.04776113706450571,0.9608273296816454,0.08906916840193134,-47.620941734804255,52.572222582904054,-64.24535610032197
1760958818.9659421,-2.790145891906351,-0.041388484121976904,0.9642223570170799,0.07103610834454328,-46.68544457650271,51.234398743489166,-65.81685149152868
1760958818.9759712,-3.4533534272304647,-0.03714513284984434,0.9678020554515525,0.05699332581314424,-44.01190837439878,49.83572741953441,-66.24598272353033
1760958818.9861054,-4.107214982256091,-0.037324873391897787,0.9698661753317442,0.04772964391265082,-39.804022756488074,48.45170595419106,-65.69731648306436
1760958818.995961,-4.745747473612017,-0.04347940332785667,0.9692059594095551,0.043219699231538705,-34.39857765767791,47.06135984814988,-64.38326671763573
1760958819.0059423,-5.365849051808588,-0.05621431996616199,0.9652694095792814,0.04280502810675386,-28.21588114544394,45.55802598582098,-62.53436879290878
1760958819.0159519,-5.966787327716295,-0.0751427419383021,0.9581982727603592,0.045427946371111624,-21.70585092443303,43.775291057479,-60.37061748282856
1760958819.025926,-6.5494771173402775,-0.09899977915531943,0.9487246600415631,0.04986272515262942,-15.297917498799073,41.52272175003489,-58.078660579019335
1760958819.0359387,-7.115703412860828,-0.1258962509708777,0.937955234121837,0.05490569420436293,-9.360598531757525,38.624846771049484,-55.79810458609815
1760958819.0460346,-7.667438698373719,-0.15366554164411375,0.9271033745031428,0.05950656558439193,-4.173974330256488,34.95681517356053,-53.61808131122836
1760958819.0559528,-8.206366740417252,-0.18023799887908698,0.9172411119425031,0.06284143662292077,0.08404471456827627,30.47114766891597,-51.58310097176244
1760958819.0661337,-8.733666548148761,-0.2039688286342102,0.9091289817783904,0.06433976237653223,3.3385384791431023,25.2117801337152,-49.70551810385193
1760958819.07615,-9.2500443041146,-0.22385386172584215,0.9031498922771327,0.06368164217480347,5.607604511948194,19.313798873006867,-47.980925190611764
1760958819.0860722,-9.755943655583668,-0.23959430290378989,0.8993364897751065,0.06077991234717086,6.984543486052128,12.989483870997123,-46.40259993439549
1760958819.0963686,-10.251829669282685,-0.25150980910434423,0.8974555230248771,0.0557573984570718,7.6155950310495895,6.503229873625328,-44.97177912879938
1760958819.1061792,-10.738436679047753,-0.2603361807494263,0.8971067185905903,0.04892510610486814,7.676589290006948,0.13944626174622254,-43.701869356731606
1760958819.11597,-11.216894903403139,-0.2669683490995448,0.8978065140711685,0.0407616484101653,7.351365872623928,-5.8314958239906725,-42.61642335139009
1760958819.1260922,-11.688697438977805,-0.27221651921060186,0.8990481720148813,0.03188825833170021,6.81394997766886,-11.183950976802222,-41.74238491406204
1760958819.1361344,-12.155524383184797,-0.27663384682772885,0.9003461666732496,0.023030647495831745,6.215507297211621,-15.75960205028099,-41.10127224342965
1760958819.1459835,-12.618987415026817,-0.28045103755552586,0.901276514990263,0.014962079864306435,5.676246364520756,-19.478717631027212,-40.70128303009998
1760958819.156058,-13.0803813481575,-0.28362212834544437,0.9015172030167331,0.008430064316522606,5.281818548884111,-22.33890081616925,-40.53271407045584
1760958819.1660042,-13.540522129517088,-0.28595416449539773,0.9008819246684238,0.004076522764844227,5.083407687740851,-24.40246313927055,-40.56786996630158
1760958819.17599,-13.999717645900986,-0.28727113657556125,0.8993349936048354,0.0023638666190155086,5.100588016391351,-25.775578950265352,-40.7652369032238
1760958819.1858928,-14.457872798578126,-0.28755849053844285,0.8969801428083899,0.003517711046961385,5.3261134579884235,-26.58372216256447,-41.07655152540634
1760958819.1959672,-14.91469202004664,-0.2870508060863646,0.8940276612912982,0.007494659159217721,5.7319704103440445,-26.94827567766193,-41.45480302537856
1760958819.2060816,-15.369923624424874,-0.2862518402465466,0.8907532077917983,0.01398277646921945,6.276122020583533,-26.968527218691232,-41.86126551528572
1760958819.2159157,-15.823592224860693,-0.2858972401710487,0.8874599985964388,0.022440588765179792,6.909312751268865,-26.711685979392108,-42.27023759719507
1760958819.2260952,-16.276179910023597,-0.2868776706223499,0.8844466360424486,0.032173520309118714,7.581182172416215,-26.2115355057106,-42.670975597779055
1760958819.235936,-16.72873460549283,-0.2901380160297151,0.881976077959779,0.042435086127776855,8.244953931045597,-25.474512020761836,-43.06703131418564
1760958819.2460525,-17.182899341514243,-0.2965648450769247,0.8802432402319702,0.05253000850414134,8.860228148666822,-24.490876885134657,-43.47364149772214
1760958819.25633,-17.640866681895865,-0.30687282855093595,0.8793450473847414,0.06189376868513722,9.3938337430537,-23.24837418060065,-43.91392527705161
1760958819.2659736,-18.105267464482814,-0.321499538851244,0.879259212762395,0.0701292637203682,9.819109675068185,-21.746083617567894,-44.414506248602656
1760958819.2761514,-18.579002244214678,-0.340515100123357,0.8798345303599646,0.07699382083368063,10.11425290065785,-20.00670586070234,-45.00091104054566
1760958819.286208,-19.065018836386447,-0.3635497150246044,0.8807909409649485,0.08234497479569619,10.260492530724228,-18.085982052357764,-45.69282773065775
1760958819.2961829,-19.566033370641254,-0.38974143542666906,0.8817269674839626,0.08606647529613055,10.240882379672476,-16.07828612435854,-46.499140449812344
1760958819.3061001,-20.084190102120573,-0.4177109832527108,0.882135405023593,0.0880025898038059,10.040459396752723,-14.117687483079383,-47.41266887490045
1760958819.3161316,-20.62066189294531,-0.4455790587124019,0.881432540234403,0.0879267888240768,9.648327564051904,-12.374009871476975,-48.404768558702074
1760958819.3259902,-21.17521085614632,-0.47104897441269267,0.8790083713401519,0.08556090917627127,9.061823809027908,-11.043622700600228,-49.42036005069922
1760958819.3359816,-21.74575350522462,-0.49157533330390135,0.8743024894746231,0.08064548860910807,8.292330044604698,-10.334939037721478,-50.374434520309194
1760958819.3459408,-22.32799815882332,-0.5046225060351611,0.8669016343712426,0.0730454076734281,7.37167048199844,-10.44899295356932,-51.151429659698344
1760958819.3562264,-22.91523437082662,-0.5079881302706477,0.8566431814935047,0.06286199477744119,6.3575896818504525,-11.556172782483479,-51.60885274857546
1760958819.3659925,-23.498347843816095,-0.5001388480051918,0.8437000670707077,0.050517440651631475,5.336708677665236,-13.771185516230197,-51.58600936429588
1760958819.3763504,-24.0661085600402,-0.48049263285943733,0.8286230273528357,0.036782845080647976,4.42365192184696,-17.129375868838316,-50.91774479942185
1760958819.3860812,-24.605740648717276,-0.44959139492834965,0.8123257877142155,0.02273747044459306,3.7556318604131502,-21.56822444164777,-49.451998656004534
1760958819.3959801,-25.103740844902433,-0.4091331143704716,0.7960111504724594,0.00966771645231781,3.4824687058451516,-26.917822522160275,-47.06906011366603
1760958819.4059792,-25.546878968254273,-0.3618615442497726,0.7810440671506238,-0.0010703141794689331,3.7526240023509523,-32.90317364574832,-43.699942582881526
1760958819.4160318,-25.923293221219534,-0.31133358442291503,0.7687817001568704,-0.008197875208863054,4.696286335597284,-39.15941865384106,-39.34133497246406
1760958819.4261432,-26.22358254751669,-0.26159579137121164,0.7603746544973068,-0.010650778270677175,6.406946727103919,-45.258951142762015,-34.06501067444549
1760958819.4361756,-26.441792095968275,-0.21680284478595463,0.7565611604531227,-0.007696800595644721,8.9233418078897,-50.74746819031717,-28.02016291323182
1760958819.4460185,-26.576183273419776,-0.18080771734410805,0.7574862083186252,0.0009706335849815253,12.214132753089428,-55.18473359586698,-21.427723394201863
1760958819.4560409,-26.629680044109598,-0.15675381718688927,0.7625861493684489,0.015164862610233549,16.168088978556085,-58.18533526017778,-14.56631618784913
1760958819.4660447,-26.60989487451099,-0.14670723605410627,0.7705803935601356,0.034168569385244534,20.592601413293075,-59.45488696271393,-7.750213828126311
1760958819.4759824,-26.52866691312918,-0.15137782753306842,0.7796013131693224,0.056734407470206506,25.2227848330142,-58.81782039418463,-1.3005807245865324
1760958819.4862566,-26.401093159007335,-0.16998143498194201,0.7874704836155965,0.08113529781531285,29.742084084545876,-56.233992932389825,4.48760320428267
1760958819.4963324,-26.244097226045035,-0.20028515855536183,0.7920974579559019,0.10527599039332981,33.81327122368741,-51.80261839046333,9.37937955251287
1760958819.5060549,-26.074652898897018,-0.23885364317047553,0.7919436135314285,0.1268701487447642,37.11642909098949,-45.753348332654916,13.229893950833786
1760958819.516006,-25.907851067186993,-0.2814824989847906,0.7864665397016433,0.14367294184067886,39.38860017546216,-38.42559220265933,16.005820194686283
1760958819.526042,-25.75505611866465,-0.32377084310528337,0.7764470358970949,0.15374337706814703,40.45880552099171,-30.23830774938541,17.793695310742198
1760958819.5360568,-25.622427017800522,-0.3617540781577001,0.7641068958600027,0.15570021571503145,40.27235671360588,-21.653450678877224,18.79215713450452
1760958819.5459664,-25.51006519285243,-0.3924968708970013,0.7529547174633309,0.14893325578349093,38.899750559960225,-13.136923767732833,19.287311833301207
1760958819.5560513,-25.41198656307376,-0.41454079741746197,0.7473460802941871,0.13373608140658388,36.52776256217288,-5.121088795951664,19.613209189950084
1760958819.566004,-25.316998766934585,-0.42811455291417716,0.7518032923045842,0.11133391437977001,33.433328830190604,2.0273094319780767,20.102228861064372
1760958819.5761065,-25.210410497506395,-0.435046810936373,0.7701956016870841,0.08379006732070238,29.943954586996725,8.030521829768324,21.032546036709437
1760958819.5859404,-25.076335209403638,-0.4383691905137613,0.8049217169087549,0.05378775418870247,26.39113636992513,12.712078185557315,22.58123025150178
1760958819.5961354,-24.900214932332798,-0.4416537089051719,0.8562525848196211,0.02430196275559473,23.065039508050972,15.996868415322407,24.791531501237554
1760958819.6060324,-24.671122814062166,-0.44818837272683454,0.9219769579382645,-0.0018009737656696616,20.17889522191815,17.899633269071604,27.561309515576085
1760958819.615948,-24.383432764382597,-0.4601449932599379,0.9974465694508029,-0.022173675255125997,17.84994257557677,18.504384285658062,30.656426175751776
1760958819.6259708,-24.0375697704338,-0.4779199420995166,1.076050878192429,-0.0353281639433236,16.100327055141147,17.938931812147842,33.748611700539136
1760958819.6359925,-23.639743699894744,-0.49981859810997326,1.1500748988083918,-0.04083054908197063,14.876841870543984,16.349685867442584,36.472467692614586
1760958819.6460717,-23.200772652264153,-0.5222006470010305,1.2118177269448522,-0.039307221061523186,14.083920627372741,13.88190491556982,38.49181071394926
1760958819.656107,-22.73426719113357,-0.5401055020777698,1.2547844946198343,-0.032274399272325734,13.621137322610652,10.669412507765916,39.562695929200466
1760958819.6659434,-22.254537899040237,-0.5482484941287747,1.2747260946691423,-0.021853346367341712,13.415576309860132,6.835495197491896,39.58034464748649
1760958819.6761005,-21.774595067948443,-0.5421570001779278,1.2703093013508506,-0.010451880963608247,13.441126758012508,2.503599527744448,38.6003099784574
1760958819.6860893,-21.304542724525728,-0.5191546231080117,1.243268141739357,-0.00047098397369295733,13.720643727933423,-2.18669133171395,36.82992815703145
1760958819.6962855,-20.85055635917428,-0.47893951103176136,1.198005954428869,0.005945604707407601,14.311860620181506,-7.06504345467584,34.592784956190435
1760958819.7060552,-20.414511321982282,-0.423635240994737,1.1407514918695354,0.007127985941595059,15.28228597042518,-11.923800162973883,32.274520927717454
1760958819.7160032,-19.994231043300505,-0.35736373078977035,1.0784764616775748,0.0020685106451672716,16.680636134050314,-16.523669568815944,30.26123692531129
1760958819.7260914,-19.58426249121194,-0.2855173692162664,1.0178214484491923,-0.009437179778984325,18.512198976381665,-20.61177603328999,28.88166536789191
1760958819.735994,-19.177046035512614,-0.21393899262039665,0.9642426743772674,-0.02673809393888269,20.723507284491944,-23.9482222637157,28.36190929941327
1760958819.7459924,-18.76431335127296,-0.1481695542809695,0.9215019236637019,-0.04840613078869081,23.198851060110897,-26.335081584440193,28.798150284160815
1760958819.7561104,-18.338525953598328,-0.09285257447869943,0.891513373361939,-0.0724567936741064,25.76834703021289,-27.641665902947732,30.149282433738048
1760958819.7660217,-17.894171651295544,-0.051331747060159985,0.8744747398601691,-0.0966780923383866,28.22516681399535,-27.821396727126398,32.24843680128853
1760958819.7760696,-17.42876641432656,-0.02544681949431673,0.8691740726809939,-0.1189929337818338,30.348525457959965,-26.917758283647025,34.829992976409216
1760958819.7860177,-16.943453698591806,-0.015514288698595648,0.8733786001060728,-0.13776722169472097,31.929054859267595,-25.058983154117637,37.56706546598285
1760958819.796057,-16.4431429595968,-0.020468394601615786,0.8842504521047477,-0.15199644784756344,32.79359160145737,-22.442982953770205,40.11372849337253
1760958819.8060637,-15.93617906390963,-0.03812909080516789,0.8987612565765927,-0.16134656217044413,32.82661555043814,-19.315424365808756,42.14639827551326
1760958819.8161528,-15.433580398430578,-0.06555182755861427,0.9140802111753591,-0.1660697493683146,31.985633218709737,-15.94460928822893,43.3996520888534
1760958819.826069,-14.94792230634483,-0.09940146862396385,0.9279001691273265,-0.166844039227289,30.308192639740824,-12.59681735159634,43.693071431318195
1760958819.8360646,-14.491974066725236,-0.13629067833051267,0.9386616124292708,-0.16459010033017712,27.909242644058278,-9.515042523347658,42.947185486143624
1760958819.8460832,-14.077225016616278,-0.17304068865225672,0.9456439091955624,-0.16030508854328077,24.96904311568152,-6.902855092080304,41.18801499318912
1760958819.856104,-13.712459627772112,-0.20685407056119914,0.9489154675360012,-0.15493476581505394,21.713366997227688,-4.913830708862627,38.54089142236006
1760958819.8661659,-13.402556245570825,-0.23541722325279213,0.9491622770997895,-0.1492904297236817,18.388915687469293,-3.6459883915069677,35.215068000228285
1760958819.8761394,-13.1476777614283,-0.2569605346826696,0.9474390298889703,-0.14400816470799876,15.237461567997116,-3.140205979832497,31.481162189874976
1760958819.8860965,-12.942985180561374,-0.27029688985442735,0.9449006244288489,-0.1395426141238902,12.472162238989332,-3.381637365276638,27.64375469071042
1760958819.8960233,-12.778937795218049,-0.2748448734439586,0.9425698975578473,-0.13618464815167877,10.258834799622376,-4.303539582844083,24.011622932134397
1760958819.9061513,-12.642158793224947,-0.27063165421385194,0.9411806729205708,-0.13409196342447813,8.703924637883981,-5.79335197919121,20.86818760972485
1760958819.9161267,-12.51676071636995,-0.25826636564355565,0.9411101758604846,-0.1333234369751933,7.849711888345352,-7.70112468557174,18.444806532203803
1760958819.9261832,-12.385958211384054,-0.23887696639604977,0.9423914415060151,-0.1338704774267274,7.676247388833082,-9.850353837715442,16.89947497570392
1760958819.9360158,-12.233757409167753,-0.21400904584571223,0.9447822822638486,-0.13568048471510713,8.108805217762027,-12.050955173978734,16.303154349627352
1760958819.9459813,-12.046506795105357,-0.1854911739515475,0.9478638796974697,-0.13866944277692778,9.029332081761721,-14.113610044345005,16.635273361466606
1760958819.956131,-11.814123210693783,-0.1552772277325812,0.951145329280201,-0.1427237368522335,10.2903663362375,-15.86423359749939,17.78895661628501
1760958819.9662364,-11.530863897489139,-0.12528144536854832,0.9541565534173445,-0.14769497440713986,11.730032805324461,-17.157034330400162,19.585349478189183
1760958819.976165,-11.195589954386593,-0.09722496834019029,0.9565188505713562,-0.15339403078919317,13.186869443509469,-17.884674296641386,21.795210246839876
1760958819.9860425,-10.8115407953887,-0.07251078166423738,0.9579886637721869,-0.1595905198333296,14.513364722515025,-17.984410768041734,24.1649766641287
1760958819.9961343,-10.38569801580774,-0.052138198959619894,0.9584747542633434,-0.1660216350632189,15.587209624345844,-17.439716798472094,26.4440089470534
1760958820.0060546,-9.927855675384519,-0.0366628128332098,0.9580315745915741,-0.17241079461614692,16.319448281130956,-16.277577607167906,28.409754742220972
1760958820.0160353,-9.449534482476858,-0.026204884630590265,0.9568330836092102,-0.1784928907125253,16.65897497452178,-14.5622595270738,29.88809465489341
1760958820.0259674,-8.962880092160393,-0.020505153346006392,0.9551324306492027,-0.184040403384867,16.59316507874166,-12.386721699888527,30.76694541654968
1760958820.036114,-8.479668677204474,-0.019019331812095988,0.9532140161003374,-0.18888412580255687,16.144815382945808,-9.862943623457493,31.002159351897273
1760958820.0460327,-8.010507496034782,-0.02103347056191217,0.9513451061996938,-0.19292397107313897,15.365963055804848,-7.11230026997199,30.615732910312662
1760958820.055873,-7.56427231248992,-0.02577696442555548,0.9497341011275048,-0.19612868021607677,14.32949312866186,-4.25681603661023,29.687213120947014
1760958820.065934,-7.147779909131542,-0.03251211186233572,0.948501458577271,-0.19852690231364883,13.119661790757846,-1.411780785851575,28.33987363554495
1760958820.0759137,-6.765664810197648,-0.04058880542413742,0.9476670998458125,-0.20019429217321463,11.822702457017064,1.3200937981936758,26.723655124195638
1760958820.0861526,-6.420419471142259,-0.04946526101279513,0.9471552801121352,-0.20124071215313236,10.518537343130443,3.853004712071209,24.997008435693843
1760958820.0960016,-6.112560844411453,-0.05870410066771585,0.9468152440672839,-0.201799056802864,9.274340093149082,6.12098026187883,23.309672648713306
1760958820.106074,-5.8408926179862055,-0.0679548026860673,0.9464540886311325,-0.20201521814442086,8.140362769969185,8.079469032273606,21.788122792378754
1760958820.1159332,-5.602834782398157,-0.07693098175808956,0.9458768852310583,-0.20203890937436936,7.148118760487816,9.705602832119062,20.524994065535864
1760958820.1259766,-5.394790774760336,-0.08538794976273816,0.9449279495559959,-0.2020161848522206,6.3107415137567004,10.997126333052801,19.573281348157465
1760958820.1360965,-5.212520489166993,-0.09310399350984368,0.9435264673641124,-0.20208445380463427,5.625137984252428,11.970061793411348,18.945570717490014
1760958820.1459413,-5.051487199711863,-0.0998673473806643,0.9416899976204492,-0.20236961338341974,5.075429279656303,12.655322765759054,18.618025437964707
1760958820.156013,-4.907149061433237,-0.10546961234153371,0.9395409990132466,-0.20298411880319284,4.637108793283097,13.09465613418449,18.538356169939618
1760958820.1659796,-4.7751721491237955,-0.10970556576951981,0.9372944575827209,-0.20402492118583027,4.281337994537147,13.336414544646372,18.636589506389008
1760958820.1760592,-4.651552141589984,-0.1123789394843787,0.9352282484925795,-0.20557050895428627,3.9788403887852652,13.431678007406692,18.837157598871702
1760958820.1859322,-4.53264470790641,-0.11331349394913388,0.9336408723201423,-0.20767623677216615,3.702950476800159,13.431124510462634,19.0707103841283
1760958820.1962178,-4.4151184289769345,-0.1123683946342861,0.9328029932163499,-0.21036708667994655,3.431527654747222,13.382822835658486,19.284125127617845
1760958820.206186,-4.2958568405943955,-0.10945677911500708,0.9329100927590821,-0.21362767832832086,3.1476399700442497,13.330859553022158,19.44745316707807
1760958820.2161493,-4.171846586012708,-0.10456680814769803,0.9340442446490969,-0.2173910252610724,2.8391266394160937,13.31450244437133,19.55697418810267
1760958820.227804,-4.040094914451432,-0.09778490998092942,0.9361533714238834,-0.22152961906772728,2.497322184816887,13.367507405891207,19.63407156403278
1760958820.2365415,-3.8976183460705043,-0.08931987557823708,0.9390546447088254,-0.22585322412764547,2.115339907991413,13.517207458592159,19.72022058434586
1760958820.2464163,-3.7415312103724414,-0.07952309930920204,0.9424634314013942,-0.2301159553869887,1.6863538167884695,13.78314779404525,19.86890836958536
1760958820.2561233,-3.569237650414583,-0.0688962422903226,0.946042223496389,-0.2340320589248713,1.2022807847075982,14.175208551958452,20.135709329928414
1760958820.2660508,-3.378699815481334,-0.05807609924792062,0.9494596390046969,-0.2372981774560732,0.6531539067253516,14.691359124714888,20.567978921401206
1760958820.276133,-3.1687283725633297,-0.04778920421607517,0.9524498887063211,-0.23962052455381194,0.027316268594293203,15.315388108619949,21.19567698673511
1760958820.2859228,-2.9392276024348365,-0.038775040743675764,0.9548661227398023,-0.2407463734280195,-0.6876129280954124,16.015121848287237,22.024680534344782
1760958820.296288,-2.691330188361446,-0.03168479125777233,0.9567236595804367,-0.24049884618015957,-1.5032007375510208,16.741755945674406,23.03360288618464
1760958820.3059494,-2.427375681061026,-0.026970236920284087,0.958229581662045,-0.23881210843500444,-2.428373693434157,17.4309519036737,24.17463288267081
1760958820.3161576,-2.150716794079989,-0.024782512033820064,0.9597940349974334,-0.23576149472833868,-3.467551557527077,18.00626106163526,25.378299662601798
1760958820.325898,-1.865371649024396,-0.024901303132434115,0.9620178278042913,-0.23158088785424116,-4.618853544028083,18.385198447948397,26.561440198891294
1760958820.336151,-1.5755700044078222,-0.026711477986303023,0.9656522240989082,-0.22665914416325916,-5.872344293290097,18.487897725834028,27.63711317766954
1760958820.346123,-1.285261558706318,-0.029237058897547737,0.9715294922353893,-0.22150849832661473,-7.208265693995077,18.24778779283106,28.52487788350403
1760958820.3560243,-0.9976618367963753,-0.031233502565390116,0.9804651110811767,-0.21669916534349398,-8.595353034966799,17.623244428164107,29.15980289058694
1760958820.365997,-0.7149060151324415,-0.03133008223618368,0.9931356197011795,-0.21275728946232367,-9.989596814533355,16.60878988812148,29.498779910400692
1760958820.375964,-0.4378657619298175,-0.02820644035091943,1.009943264737123,-0.21003358021385587,-11.33406237213401,15.244198410046257,29.523137182833786
1760958820.3860934,-0.16616273385840888,-0.020782293664999698,1.0308893466312548,-0.20856732258567875,-12.560486159586778,13.61984209798896,29.23709450375293
1760958820.3960211,0.10161130859056407,-0.008397029925471158,1.0554857486218503,-0.207983704005335,-13.593256442830496,11.876805205769868,28.662201983074237
1760958820.4059966,0.3674812401624897,0.009044051565447627,1.08273181253209,-0.20746058342157966,-14.356111786210866,10.200725014856033,27.828498882516936
1760958820.4160442,0.6335177868722551,0.030978449018528257,1.1111709640068885,-0.20578470548386252,-14.781552780866116,8.808977218474608,26.763661017226116
1760958820.4259226,0.9011652818211725,0.05616852304011539,1.1390232456065361,-0.2014958868686961,-14.822552399265284,7.931683112608635,25.481811499861976
1760958820.43629,1.1705420786513183,0.08276988546009077,1.1643728141048546,-0.19309882612340798,-14.465593486244858,7.78801188491003,23.973899287160894
1760958820.4461632,1.4398016478008733,0.10849016421393745,1.1853788355240338,-0.1793094761760045,-13.743389364620073,8.56024073921594,22.20156538871323
1760958820.456157,1.704649338759446,0.13082986018370676,1.2004760324589137,-0.15929697176318647,-12.745011816730894,10.368799375675025,20.096172813507067
1760958820.466179,1.958107313207027,0.14738404142620007,1.208535748425224,-0.13288234259624487,-11.62074080149003,13.25186533487645,17.56413238371418
1760958820.476078,2.1906066895454015,0.15617361253493972,1.2089668588796922,-0.10066053695096325,-10.578923766152535,17.152889918277214,14.498802684418047
1760958820.486132,2.390459180766123,0.1559680556860008,1.2017467871350467,-0.06402133397422959,-9.87262496601195,21.918693591044537,10.798113091552546
1760958820.4959943,2.544715618245598,0.1465534919698374,1.1873869524321992,-0.025056613136245076,-9.774972018904924,27.309504138041902,6.3857513732787785
1760958820.5060606,2.640351829592243,0.12888817477128603,1.16685317930466,0.013644466828807045,-10.54399893844633,33.020650369120865,1.2324838153138529
1760958820.5163825,2.6656410142742217,0.1050815318101362,1.141472072111601,0.049294953758081184,-12.380472520140188,38.713835314193744,-4.626656759943154
1760958820.5261395,2.6115024922213004,0.07815222953408532,1.1128476948625765,0.07926912090941611,-15.385240398263774,44.054322563969926,-11.083425773037249
1760958820.5361629,2.4725935802246166,0.05157450454551625,1.0827881181752572,0.10146799952280187,-19.524975205311595,48.74919997067838,-17.95833764739174
1760958820.5462127,2.2479512223861384,0.028690873290668408,1.0532161995181728,0.11462670921408515,-24.61548166266922,52.58122679576779,-25.013878148564114
1760958820.556,1.9410793551586758,0.012117843966678005,1.0260367596543905,0.11850180416432518,-30.329139294816674,55.432784797563365,-31.976927364379307
1760958820.5662167,1.5594849521686562,0.003277867425060742,1.0029579565701419,0.11389742359658026,-36.22782750976749,57.295440836722705,-38.5667551061005
1760958820.5760403,1.1137612486809554,0.0021590444305390876,0.9852971528714475,0.10252200757250629,-41.81638450360659,58.262738099896026,-44.52426842057336
1760958820.5862277,0.6163840079067706,0.007349550421186409,0.9738158772224005,0.08670345032182743,-46.60659158604432,58.50680242220593,-49.63823470057857
1760958820.5961635,0.0804183399244738,0.016331402455895472,0.9686203929786829,0.06902025561480225,-50.179593169854016,58.24255214770312,-53.764798634516
1760958820.6060848,-0.4816719519777396,0.02596248835888011,0.9691475079474912,0.051921330146310195,-52.235801618396884,57.68592591210871,-56.83768702024027
1760958820.6160893,-1.0589581854162555,0.033040928842961115,0.9742402558944707,0.03740426872606296,-52.624754493564886,57.013847801388415,-58.86795870388145
1760958820.6261318,-1.6426283818201444,0.034839797793838126,0.9823053044248142,0.02680475127478859,-51.351870165345254,56.33326589592524,-59.93383137764068
1760958820.6360977,-2.226188396999177,0.02951981299736462,0.9915313336245078,0.020723652166719942,-48.56353561122807,55.66468164448211,-60.16275661238162
1760958820.6464977,-2.8053181868163097,0.0163617255450933,1.0001359391196822,0.01908827760587852,-44.51560509558337,54.94265636312063,-59.70921684845199
1760958820.656089,-3.3774702202854585,-0.004202682446080868,1.0066005856412936,0.021315696764044552,-39.53258660988999,54.03249872034107,-58.73236232645689
1760958820.6663659,-3.94132924309708,-0.03074819009344578,1.009852592759319,0.026527440628825855,-33.965274759565524,52.75936777368555,-57.377365127900745
1760958820.676134,-4.496260926121224,-0.06116058374983033,1.0093631773178122,0.03376122991789128,-28.153466511761152,50.94393931621597,-55.76326547710991
1760958820.686303,-5.041860585822042,-0.09302432314118465,1.005149888334538,0.042135672205805254,-22.398160780905364,48.43793928486183,-53.97845362564262
1760958820.6961048,-5.577676789351653,-0.12401980098243788,0.9976937091561154,0.05094275071856124,-16.945002631707652,45.153326818285166,-52.083263547287
1760958820.7061002,-6.1031377123454815,-0.15226182357655155,0.9877978165684451,0.05966510033672266,-11.978343443634657,41.080517669334576,-50.117866453932116
1760958820.7160218,-6.617661433514865,-0.17652889544380512,0.976422014343253,0.06793552827212399,-7.623585044658319,36.293363045018324,-48.112926048159856
1760958820.7260928,-7.120893271833251,-0.19635688056237716,0.9645242487140204,0.07546932409171622,-3.954645763199697,30.941100466194552,-46.10028943587804
1760958820.7361257,-7.612988237606345,-0.21199454549621866,0.9529316559987849,0.08200164193248441,-1.0033854956713613,25.229638283364444,-44.12123160219267
1760958820.7460108,-8.094846841429243,-0.22423933677346775,0.9422530243917937,0.08725381269449944,1.231557850486185,19.395939600191003,-42.23036351695173
1760958820.756125,-8.568219982698,-0.2341889878621025,0.9328361644051006,0.09093907675323237,2.7780954981423416,13.679826156341491,-40.49421394400365
1760958820.7660258,-9.035625386655617,-0.2429580312101099,0.9247683825828754,0.09280456531931615,3.6866437460049597,8.297398829085665,-38.98464858636296
1760958820.7761166,-9.500063425685637,-0.25141638077417416,0.9179147290968552,0.09269491050101342,4.0281411016692665,3.419716501900161,-37.76854294445964
1760958820.7860377,-9.964577490258442,-0.26000635188578697,0.9119854572710168,0.09061599233253327,3.8928375403434985,-0.8404946205168329,-36.89619465644678
1760958820.7960515,-10.431758049419688,-0.26868042064990244,0.9066201925663622,0.08677731189186966,3.388323122236973,-4.43251830571719,-36.39150497641676
1760958820.8063269,-10.903318330314903,-0.2769728922832053,0.9014717162546553,0.08159792095878979,2.635517350810199,-7.361624657169392,-36.246703570518925
1760958820.8162253,-11.379855879883094,-0.2841807290137901,0.8962700767963184,0.0756703062639673,1.762003093282686,-9.67491666380634,-36.42328708469446
1760958820.8260653,-11.860859754767704,-0.2895974295419098,0.8908531199613728,0.06968589374344758,0.8930007259768039,-11.442123866602786,-36.85917339159146
1760958820.8364058,-12.344951241306449,-0.2927344819506962,0.885163471967772,0.06433417048574944,0.14119150068812136,-12.735369237187104,-37.48037725881879
1760958820.8460515,-12.830287939290889,-0.2934806292424457,0.8792267689385023,0.06019467305676873,-0.4028062825746491,-13.612025234270476,-38.21434491489135
1760958820.8559687,-13.315035419193416,-0.29217766681429036,0.8731304768618954,0.05764515468590539,-0.6774993726167828,-14.103944574868537,-39.001804824320914
1760958820.866152,-13.79781554830087,-0.28961530472816455,0.8670139276544657,0.056807211108018445,-0.6539332083486871,-14.214812264323193,-39.80464182416836
1760958820.875965,-14.278062201070012,-0.28695824521055496,0.8610666180683937,0.05754176122016911,-0.3352384894585054,-13.925555473316978,-40.6085792516191
1760958820.8860204,-14.756241488958633,-0.28561997013330503,0.8555242281738142,0.059493452739508505,0.24703522174148984,-13.206185788783973,-41.42084982501292
1760958820.8959882,-15.233919165574495,-0.2870971895986277,0.8506530233785479,0.062169926165955,1.038669500137985,-12.031501166578233,-42.26409217207605
1760958820.9062006,-15.713678526240015,-0.2927787102766645,0.8467181898729347,0.06503379354563468,1.969434531941242,-10.397797328272262,-43.16819576621549
1760958820.9161313,-16.198903489856942,-0.3037415568459134,0.8439355904381195,0.06758454804121751,2.9597380021750057,-8.337941517922708,-44.16173574909888
1760958820.9261134,-16.693443222042742,-0.32054762200713116,0.8424106406870513,0.06941312604915328,3.9267913095993348,-5.9326197457612535,-45.26415652488341
1760958820.9360383,-17.201173578805236,-0.34306067761157644,0.8420758168688701,0.07022078349652586,4.790322229798535,-3.316140490548975,-46.47924578086007
1760958820.9461796,-17.725475799270722,-0.37031565202719535,0.8426473815560199,0.0698047735766435,5.478250202588386,-0.6757869615077338,-47.78997007170174
1760958820.9562666,-18.26866675206782,-0.40048047208897625,0.8436235991181675,0.06802449185514214,5.932812197160194,1.7557062957064287,-49.15459672128967
1760958820.9660513,-18.831432413531864,-0.43094556964547454,0.8443355561758302,0.06476908073639588,6.117300530372488,3.71446679365397,-50.50420866896175
1760958820.9760327,-19.412329898413695,-0.45855567219946103,0.8440432398728601,0.059945984694988054,6.022967419360323,4.926040230519537,-51.74207984497494
1760958820.986078,-20.00742862875,-0.4799688921828879,0.8420550368774232,0.0534998291337462,5.675024339418193,5.131095731098707,-52.74568835364471
1760958820.9960048,-20.610156475903878,-0.49209731895614367,0.837843555599651,0.04545866174080571,5.1362774360728976,4.1144183752998815,-53.3721827214433
1760958821.006074,-21.211401599013257,-0.4925579574257859,0.8311314465138793,0.03599574737494204,4.506945537360861,1.734376646365835,-53.467753294344725
1760958821.016173,-21.79989454205112,-0.4800504958443246,0.8219255643659605,0.025490057752036967,3.9196411159570013,-2.050804248434897,-52.880606139608965
1760958821.0261264,-22.362858283845117,-0.45458778273808514,0.8104905020975464,0.014566400574079888,3.5293059226745096,-7.164013900628012,-51.47626689972409
1760958821.0361476,-22.886872059800748,-0.4175382360673535,0.7972740363067539,0.004098870159082025,3.4988932574977034,-13.401143984492538,-49.15309364831915
1760958821.0461862,-23.358859807451115,-0.3714853456913788,0.7828164905574648,-0.004829920302233002,3.9824185339853977,-20.436341159650176,-45.855539991343555
1760958821.0560656,-23.767097411222217,-0.31994870551819277,0.76768013988057,-0.011011170530048898,5.107318207160543,-27.841153058220904,-41.583108906388716
1760958821.0661304,-24.102137156776823,-0.2670288235761974,0.7524218681449035,-0.01322547672471958,6.9578370688301625,-35.11586357017695,-36.393946695642484
1760958821.0760887,-24.357565945617488,-0.21703180950613213,0.7376124654693196,-0.010382563931280668,9.560741825967222,-41.72941367194466,-30.403183834429434
1760958821.086426,-24.53053575196622,-0.17410988522719836,0.7238907846491441,-0.0016759105449699464,12.874453805797392,-47.16333791237036,-23.77692645573966
1760958821.0960577,-24.62202414119206,-0.14193437366270328,0.7120352900747192,0.013260004706093089,16.782862452848786,-50.95525451170913,-16.723010935457626
1760958821.1061435,-24.6367990552535,-0.12340927882660396,0.7030364358647393,0.03420843056538711,21.095407776804873,-52.73824579598091,-9.479389431381477
1760958821.116215,-24.58307922409374,-0.12043633064663456,0.6981547345390784,0.06027082000635961,25.55508677286401,-52.27339970091049,-2.3006517355545966
1760958821.126143,-24.471903457627587,-0.13374934607151925,0.6989470000110113,0.08983865972739397,29.855492368805677,-49.473458307761916,4.556963547271772
1760958821.1359868,-24.31624994790685,-0.1628379520420271,0.7072364956193875,0.12066290448012701,33.66671832123502,-44.415834719880536,10.851505118089536
1760958821.146127,-24.129978585093756,-0.20597476355606306,0.7249958276616966,0.15003468583018784,36.66815168767835,-37.34340861208545,16.371166760185414
1760958821.156083,-23.926700828054067,-0.26034980267140556,0.7541132892748439,0.1750696561596233,38.584310699999,-28.651867650355477,20.948618930803317
1760958821.1664724,-23.71870627166548,-0.3223050206676923,0.7960323817341158,0.19306274565031864,39.21858714679401,-18.86327247245078,24.472236842965728
1760958821.176147,-23.516083633550583,-0.3876493676082239,0.8512914548267325,0.20185879386489927,38.479495673812224,-8.587075649482449,26.8928862118225
1760958821.1860774,-23.32615642230632,-0.452020325608795,0.9190380663593736,0.2001757711786683,36.394980136669076,1.5282721725695863,28.22549901314738
1760958821.1961846,-23.153303629347217,-0.5112457162383345,0.9966372158376012,0.18782315438803182,33.112327147397245,10.84827725599525,28.545505760513905
1760958821.2061262,-22.999157209596703,-0.5616569110252736,1.0795171391124156,0.16577382030479024,28.883856862107077,18.80401910766053,27.981111292309365
1760958821.2160735,-22.86307928223501,-0.6003153180576821,1.1613834374523746,0.13606788011952373,24.041136867003466,24.936456324287743,26.703093654409457
1760958821.2260158,-22.742752636092767,-0.6251362168275634,1.2348700303537077,0.1015487478661405,18.962287699064596,28.928474540691667,24.91397268504679
1760958821.2361226,-22.6346977339129,-0.6349197574827943,1.292584772025012,0.06545624750218618,14.03753832382128,30.621718074263917,22.837920439914473
1760958821.2462583,-22.534572207566626,-0.6293174361497726,1.328370202499661,0.030930779657303044,9.637460978256458,30.017784312076206,20.71178055444344
1760958821.2561872,-22.437203401255108,-0.6087653973569555,1.3384840032933105,0.0005148764340283209,6.08659604747073,27.265828207867457,18.776368977276466
1760958821.2660942,-22.336415909843495,-0.574403449448219,1.3223729194324676,-0.024237530209830025,3.6431694425741923,22.640345794822046,17.26639300126095
1760958821.2760577,-22.224802061794524,-0.5279808897720705,1.2828071602508866,-0.042937592604391055,2.4841663971007244,16.51340499205983,16.397409033762322
1760958821.2861955,-22.09361458730273,-0.47174172713139506,1.2253335020492142,-0.05626371818781594,2.6947008359174665,9.324902214956213,16.349411955288055
1760958821.2964926,-21.932931608580937,-0.4082893077347834,1.1572111993832008,-0.06561349592462959,4.261288702027113,1.5531275421526123,17.248426184096083
1760958821.3061304,-21.732170599708716,-0.34044532553584345,1.086129603694017,-0.07261891345959277,7.0697203148930265,-6.313217971943226,19.1489743542012
1760958821.3160703,-21.480938166710903,-0.2711249679484159,1.019028787673147,-0.07868597098452662,10.90912356620002,-13.801017636596534,22.020874932481828
1760958821.3262913,-21.170123904806847,-0.20324006818172835,0.9612634628376167,-0.08469726492492809,15.483996232393958,-20.47648893725802,25.743384959293383
1760958821.3361814,-20.79309572838618,-0.13962207309968663,0.916208367489895,-0.09093918208649582,20.43511394809329,-25.966633036576066,30.108614094205002
1760958821.3462608,-20.34683438110842,-0.08294266728863284,0.8852596643115975,-0.09722879007073727,25.368474276960406,-29.978295888023638,34.83478979111832
1760958821.3560958,-19.832851536130587,-0.035613608798703324,0.8680992951254651,-0.10315712239966907,29.889598782862528,-32.314238721168394,39.58854201732989
1760958821.3660443,-19.257760767260343,0.00033553412685434654,0.8630827492796038,-0.10834802178094405,33.639358158680366,-32.88486689167503,44.01400026554749
1760958821.3761282,-18.633405027460284,0.023386991422451067,0.8676594170028181,-0.11264853906552907,36.327193689226924,-31.713896479307547,47.76540515184605
1760958821.386019,-17.976482172602914,0.03265152117610518,0.8787870455376997,-0.1162042533919714,37.75789371686532,-28.9366304502575,50.53944068558282
1760958821.3960898,-17.30764988372453,0.027956782683171057,0.8933264942708279,-0.11941625927083807,37.8487036178459,-24.790506076977618,52.10366995523344
1760958821.4061952,-16.650133918089736,0.009902263554729174,0.9084020447841317,-0.12281287615063106,36.63454507651883,-19.59864428347736,52.318144430023864
1760958821.4160676,-16.027910419717564,-0.02011516778119063,0.9217015403679747,-0.12688865186582338,34.26060480230621,-13.747819560895921,51.14825218429879
1760958821.426017,-15.463585970513758,-0.059902611281067664,0.9316832045500902,-0.13196284759206592,30.963373359886585,-7.662440930395138,48.66797584481944
1760958821.4362996,-14.97615813138329,-0.10651258325687263,0.9376604539448813,-0.1380939978408757,27.042928593900037,-1.775970815113017,45.05372074324832
