timestamp,angle,linear_acceleration_x,linear_acceleration_y,linear_acceleration_z,angular_velocity_x,angular_velocity_y,angular_velocity_z
1760598678.047226,-7.213618016742998,-0.058158461473652195,0.9953275029238351,-0.23953984660633176,3.6640172874947017,9.675033206156947,-5.086736522979265
1760598678.057206,-7.128459243559271,-0.0640866144994332,0.9878524780724283,-0.2298637659071915,3.0010925908500146,8.552301974438231,-4.758944400840456
1760598678.0676441,-7.06693683341274,-0.07354199044053325,0.9801473489943563,-0.21906186601811922,2.4077314431864343,7.6806906962391,-4.590150580256672
1760598678.0773442,-7.035505875194597,-0.08542258165626923,0.9726814348494088,-0.20779715969141777,1.8924129658304327,6.98899673303884,-4.605950811138608
1760598678.0875719,-7.037611653651856,-0.09845640615729066,0.9659016552199687,-0.19663699254049372,1.4599368889389988,6.393958295726939,-4.817607338469358
1760598678.0973284,-7.073521004451361,-0.11135914802597915,0.9602019409471271,-0.18602039735941606,1.1118344195036018,5.812777960124393,-5.220780708723186
1760598678.1073291,-7.1405216915322045,-0.12297878532782341,0.9558942203834435,-0.1762381442860129,0.8468556259616884,5.1736898630415,-5.795937439689433
1760598678.117387,-7.233431393842892,-0.13240714321142058,0.9531848819827374,-0.16742818680166005,0.6614935512922238,4.423196551138423,-6.510346033716236
1760598678.1272838,-7.345319731392439,-0.13904607837569796,0.9521606792441157,-0.15958760696830496,0.5505507316390046,3.5293543659033886,-7.3213461963448925
1760598678.1373928,-7.468327281603704,-0.14262409809284285,0.9527868909755216,-0.15260020160046472,0.5077743488560613,2.4812538543950757,-8.180428648478864
1760598678.1477041,-7.594463925925426,-0.14316630901545027,0.9549183213764784,-0.14627702213704266,0.5265743108250346,1.285459342811915,-9.03760425075935
1760598678.1572654,-7.716283774137694,-0.140926615417442,0.9583212068655437,-0.14040553711028123,0.600793977685031,-0.039454676227877385,-9.845572545396571
1760598678.1673064,-7.827363057820574,-0.13629591504577565,0.9627023308109351,-0.1348014780453191,0.7254375185025925,-1.4690195836036857,-10.563311463648606
1760598678.1774344,-7.922546105083024,-0.12970297265292297,0.9677409754473505,-0.12935606557925694,0.897194797687991,-2.9784862750776475,-11.15886935889443
1760598678.1872325,-7.997966240973106,-0.12152508917746632,0.973119182526027,-0.12407084895116802,1.1145737384704173,-4.547008877866599,-11.611299086288485
1760598678.197927,-8.050886596370226,-0.1120236747794296,0.9785457217039716,-0.11907342836515544,1.377475413714088,-6.159772317907724,-11.911789073863172
1760598678.2077966,-8.079434697394236,-0.10131576425599353,0.9837697724224577,-0.11461003269535953,1.6861394199325184,-7.807789637003593,-12.064095551573626
1760598678.2174735,-8.082320049274127,-0.08938686151655363,0.9885824330337042,-0.11101501516590641,2.039540176979132,-9.485495618391067,-12.084363116323965
1760598678.2273848,-8.058623477778939,-0.07614392577492397,0.9928075463919208,-0.1086618945904754,2.433496985061568,-11.186695437897061,-12.00035896657096
1760598678.2373226,-8.007730421197332,-0.06150044410549791,0.9962867451856203,-0.10790414395476396,2.85890767676921,-12.899813053508176,-11.850075578609058
1760598678.2472813,-7.9294488001660905,-0.04547894310038388,0.9988657314467858,-0.10901554863287574,3.300555219426831,-14.603594930203528,-11.679616342458166
1760598678.2575338,-7.824309330327817,-0.028311158306537264,1.0003886596328149,-0.11213979471110455,3.7368427004650533,-16.264364017908388,-11.540295558431465
1760598678.2675467,-7.694000118719118,-0.010514332274522387,1.0007048743764084,-0.1172574168524259,4.140627953764067,-17.83559085428117,-11.484959696367966
1760598678.2773452,-7.541848660616223,0.00707480635449436,0.9996880986260924,-0.12417539787209005,4.481124002636286,-19.260045947138224,-11.563650945099333
1760598678.2876186,-7.373241834787392,0.023319396684945697,0.9972642601800652,-0.13254088285787324,4.726648781143112,-20.474253328522686,-11.818863454508683
1760598678.297608,-7.195872193928529,0.03685649996589446,0.9934418532902972,-0.14187629645525351,4.847862646474518,-21.414518725027463,-12.280768564103655
1760598678.307585,-7.019717191520389,0.04621714621147323,0.988338322725297,-0.15162929749638335,4.821037646835838,-22.023572777221823,-12.962888601777442
1760598678.317251,-6.856696559054356,0.04997414181544554,0.9821974064686132,-0.1612287083764072,4.630875174189521,-22.256910367525204,-13.858757226506105
1760598678.327529,-6.720007531043566,0.04689310737557676,0.9753954918637538,-0.17013826583989486,4.272439984459399,-22.088196995708405,-14.940091112099529
1760598678.3375897,-6.623194221201251,0.036063491463538884,0.9684382041317974,-0.17790332316674126,3.7519026489256926,-21.51351658902363,-16.156884260554268
1760598678.3474603,-6.579047389816589,0.016995962712132606,0.9619492751592005,-0.18418894333451927,3.0859463644407215,-20.554534478573025,-17.439610844406534
1760598678.3577008,-6.598444514523409,-0.010315329947469414,0.9566516411404287,-0.1888090262332465,2.29984680150199,-19.26066422181798,-18.703412754788648
1760598678.3673608,-6.6892349864257055,-0.04536100929959609,0.9533374198993653,-0.19174508844946594,1.4243367945235008,-17.710034452274083,-19.85381987352794
1760598678.3772757,-6.8552683387402915,-0.08711413746305717,0.9528216230857327,-0.19315159674273816,0.49142438827604834,-16.008621233615514,-20.79329247328272
1760598678.387518,-7.095665431982344,-0.1340650811925943,0.9558762691943318,-0.19334422092127596,-0.4705970942592741,-14.28664884260535,-21.427769108244664
1760598678.3972654,-7.404438347534922,-0.1843060542593179,0.9631464541719865,-0.19276751922677154,-1.4425292623628192,-12.691554837849557,-21.67248752720469
1760598678.407522,-7.770557294612348,-0.23567080529306425,0.9750544626346157,-0.19193649928559603,-2.419299492119051,-11.377527609178724,-21.456590643016572
1760598678.4172833,-8.178526149636804,-0.2859173447666043,0.9917000588312079,-0.19134472868349317,-3.4135801332744187,-10.492615428050897,-20.726352403188265
1760598678.427514,-8.609458622182235,-0.3329233591398558,1.0127678588409685,-0.1913416674432532,-4.456885368944605,-10.165260230380975,-19.44715369920076
1760598678.4374685,-9.04255695438562,-0.3748562534547452,1.0374595149057744,-0.19200687998029287,-5.5974389908926225,-10.49246033387013,-17.604508317079674
1760598678.4474516,-9.456810688642324,-0.4102868822210597,1.064474464055061,-0.19306827533265292,-6.894866331393854,-11.531445746825463,-15.204427919807756
1760598678.4572523,-9.832684016949942,-0.43823396380231816,1.0920596800696074,-0.19390218102242562,-8.412558752269751,-13.295839944181457,-12.273231233966952
1760598678.467237,-10.153563677770604,-0.4581471014301359,1.1181362822264385,-0.19361935012686743,-10.209057545535916,-15.756114413269435,-8.856626446570596
1760598678.4773574,-10.406790548564247,-0.46985214475595233,1.1404966644075265,-0.1912081016714318,-12.329873011998904,-18.843197180225125,-5.017670192607841
1760598678.4875746,-10.584176474878221,-0.473486498034643,1.1570542945757214,-0.18569113492564734,-14.800898015609512,-22.453763066000075,-0.8331848568547403
1760598678.4972634,-10.681991455811739,-0.4694419555740996,1.1661178323444656,-0.1762566546606268,-17.624169609987494,-26.45606842250046,3.6115098563868235
1760598678.5073633,-10.700480511164256,-0.4583156555494666,1.1666502020162481,-0.16233971178345893,-20.776279177263255,-30.69589325989667,8.229158950981342
1760598678.5173504,-10.643026839037496,-0.4408588561438946,1.1584642670665222,-0.14364857129586747,-24.209294900713243,-35.00278304403595,12.93743420879806
1760598678.5272813,-10.515113952168226,-0.41791670415611976,1.142305802381932,-0.12014857467951261,-27.853739161622492,-39.1970532533331,17.664727313310433
1760598678.5374672,-10.323251850370564,-0.39036538162567624,1.119788200562027,-0.09202933371109988,-31.623043874956863,-43.09789665617047,22.353566909247263
1760598678.5477202,-10.074020606390631,-0.35906370835955254,1.0931731292348987,-0.05968704606997777,-35.41896910239996,-46.53255875329113,26.960866620009583
1760598678.557367,-9.773351240403764,-0.3248358949447313,1.0650285291857313,-0.023747144471776577,-39.137581053889704,-49.346134308172864,31.45502687257336
1760598678.5672956,-9.426113355233417,-0.2884905781317925,1.0378263495632707,0.014872071888471155,-42.67542008334446,-51.41127117549006,35.81079887681471
1760598678.57751,-9.03601965212393,-0.2508649326022764,1.0135585518045855,0.05489179863945352,-45.93548549323495,-52.636983634126686,40.003509419076636
1760598678.5876138,-8.605800207726988,-0.21287057104475124,0.9934484897568632,0.09466428199754892,-48.83277428085084,-52.97575669611887,44.00448799307475
1760598678.597745,-8.137556295262781,-0.17551600942687115,0.9778153280279924,0.1322750550363511,-51.299317210534134,-52.42808642484608,47.77919550188072
1760598678.6077025,-7.633183254412637,-0.13988761435120062,0.9661154974475732,0.16576052936687113,-53.28866578101738,-51.04365424891836,51.2887041670004
1760598678.6180859,-7.094756675413928,-0.10708258516707339,0.9571472662050438,0.19339404451961983,-54.77940740948061,-48.91859778246604,54.49411149486428
1760598678.6275945,-6.524801666637029,-0.07810095318332252,0.9493721060197537,0.21396442450051822,-55.77679163514579,-46.18875933315601,57.36258305212101
1760598678.6375349,-5.926402446808778,-0.05371722997819026,0.9412834424944699,0.2269741076024703,-56.31141866396687,-43.019230669570845,59.873332917406316
1760598678.647497,-5.303148880729823,-0.034361998179948075,0.9317413636451768,0.23271175734809607,-56.43438465146619,-39.59092847430865,62.02203131754965
1760598678.6575406,-4.658949477519179,-0.020043448131428453,0.9201969981790037,0.23218848082005653,-56.20913572316841,-36.08534925098101,63.82266596168839
1760598678.6674252,-3.9977614497009264,-0.010326619688726522,0.906758725079846,0.22695557943921452,-55.70119637692331,-32.6690248826662,65.30649742478664
1760598678.6772647,-3.3232958990332726,-0.004369754612467613,0.8920985088961638,0.21884627405480042,-54.96752731946685,-29.479404544337612,66.51827594562572
1760598678.6875997,-2.6387522660623093,-0.001003246743197611,0.877241487919728,0.2097003166437637,-54.04733898182693,-26.613794814798272,67.51027945060227
1760598678.6975698,-1.9466257314031812,0.0011659415835938182,0.8633068796786036,0.20112757522289634,-52.95585042252354,-24.122559077437245,68.33499908381565
1760598678.7072618,-1.2486179673492828,0.0036355965565279358,0.8512673623930087,0.19434516795024892,-51.68199647349756,-22.00707724800525,69.0374886797328
1760598678.7175293,-0.5456658388461568,0.007880690017123099,0.8417740737192199,0.19009710837631993,-50.1906066689629,-20.2221465383097,69.6485423383434
1760598678.727478,0.1619157681640783,0.015221474396547035,0.8350681333935198,0.18864755902472383,-48.42910717199044,-18.681798569495356,70.17989735553272
1760598678.737224,0.8741990955463839,0.026693934023947617,0.8309782381251578,0.18983079722125948,-46.338262086331135,-17.267178777045984,70.62244320156428
1760598678.747336,1.5913528728607371,0.04293211543666538,0.8289907153282428,0.19314020932177361,-43.865814725897124,-15.835307773740865,70.94791134630646
1760598678.7572556,2.3133399588099355,0.06407607839611712,0.8283704470986692,0.19784143470321436,-40.98112578593249,-14.228111230723854,71.11383898357961
1760598678.7675114,3.0396482269139375,0.0897236243221984,0.828305320415285,0.20309746696417824,-37.68819337104448,-12.281762896592793,71.07092449672945
1760598678.777552,3.769092893905884,0.11894274971577821,0.8280438479724588,0.2080939227471004,-34.03409915052784,-9.836796229732336,70.77139493823067
1760598678.7872095,4.499714511517953,0.15035118342251305,0.8269979557060878,0.21215205875362333,-30.11030194348453,-6.749420003558976,70.17682206573943
1760598678.7972522,5.228779161975806,0.18225375089832055,0.8247922916738597,0.2148182136095312,-26.045447148235404,-2.904071486948175,69.26402453484921
1760598678.8075192,5.952871365645804,0.21281634512207528,0.8212567796302852,0.21592149229184313,-21.99027110747447,1.7733624026583583,68.02823365820815
1760598678.8173327,6.668059853106043,0.24025219828439134,0.8163767232766274,0.21559504313117653,-18.09719356812098,7.3028495906319835,66.48340681985728
1760598678.8275254,7.370112646151669,0.26299996916018437,0.8102281528661411,0.21425987137315705,-14.498623097900541,13.639716667316309,64.6602079244338
1760598678.8375528,8.054738763277829,0.2798771817860015,0.8029284042572821,0.21257472182086248,-11.28836050110859,20.66818992842116,62.60251477125662
1760598678.8474197,8.717835777227686,0.29019317500824254,0.794620575542037,0.2113607448082548,-8.509680383802218,28.200562591551734,60.36325220558553
1760598678.8572927,9.355723623974198,0.29380720916087966,0.7854906592460744,0.21151293387963227,-6.152031852910606,35.98300639928361,58.00000357699234
1760598678.8672323,9.965346905514881,0.29112517453723646,0.7757982207213969,0.21390960444504398,-4.156439422043538,43.70835748237397,55.57051901438182
1760598678.8773446,10.544432210143526,0.2830400612731925,0.7658945178822685,0.21932761675936205,-2.4281763342673788,51.03549918812848,53.1281637615943
1760598678.8873467,11.091592731614142,0.2708292720344426,0.7562086425228172,0.228367635436386,-0.8543544834412725,57.61416721156113,50.71753086635532
1760598678.89726,11.606376935386972,0.256022929146077,0.747198559041138,0.2413917717292793,0.6763943832565678,63.11304157376075,48.37066002507341
1760598678.9072545,12.089259731623832,0.24025599788359986,0.7392813749441534,0.2584752629568809,2.255184460901011,67.24798317512457,46.10434115273503
1760598678.917565,12.541574475746545,0.2251176678519164,0.7327668297903678,0.27937535346201314,3.9380657464235433,69.80657034673831,43.918817986543715
1760598678.9276102,12.965383772123845,0.21201207289057333,0.7278150426416029,0.3035248246789388,5.737515014189232,70.66513565073447,41.797993490554134
1760598678.9375546,13.363287797158176,0.2020418206997926,0.724427076589306,0.3300599889446002,7.621295384908724,69.79553153188608,39.71111181036875
1760598678.9475408,13.738172362117322,0.1959221711827019,0.722464261724945,0.357887064393479,9.518064993275917,67.26063580782949,37.61587314189822
1760598678.9575992,14.092906764102397,0.19393238657195844,0.7216866330980458,0.3857801015806747,11.32782332622834,63.19955597251161,35.462958690594554
1760598678.9677057,14.430012798804318,0.19590968453166047,0.7218008960810345,0.4124978437517621,12.934954962969682,57.80507843426036,33.201891988501345
1760598678.9772434,14.751337865792841,0.20128768455332158,0.7225089719839235,0.4369039604061068,14.222116769502739,51.29691193967657,30.787938931345472
1760598678.9875221,15.057773625064243,0.20917749603447436,0.7235484282635446,0.45806441059085634,15.08390929852871,43.89465687143642,28.18933616501154
1760598678.9975019,15.3490650906134,0.21848769536960358,0.7247185626137217,0.4752849526552743,15.439724343959053,35.794209586925255,25.393679769660842
1760598679.007299,15.62375227359669,0.22807750617704894,0.7258914271723297,0.4880648231698347,15.245294501577407,27.150589518814048,22.4120723935459
1760598679.017563,15.8792771455837,0.23693412347345452,0.7270121356128056,0.4959823956369492,14.502400033428836,18.06919148146221,19.279817932617615
1760598679.0275183,16.11227139023621,0.24436042636399152,0.7280930311486676,0.49856655481125356,13.266012850928744,8.606489031573036,16.053025191742137
1760598679.03724,16.319011484929945,0.25015218524693994,0.7292034664681387,0.4952145448558979,11.647938812654077,-1.2196028525902356,12.801197911219697
1760598679.0475523,16.495986070702404,0.2547349509008242,0.7304581171221974,0.4851909732917193,9.815862416757252,-11.410205476660051,9.59653377433585
1760598679.0575078,16.640475685920023,0.2592257027169013,0.7320139393168821,0.467705927896585,7.98676856319907,-21.958061594369664,6.501176135273074
1760598679.0675879,16.751016079365744,0.2653883980099906,0.7340925646846416,0.44204865382940045,6.41413915139254,-32.81447185161479,3.5540954633956763
1760598679.0774586,16.82762129305707,0.27546548480780814,0.7370438651707958,0.4077549152561995,5.369107110812979,-43.854049701736315,0.7595911098778324
1760598679.0874903,16.871684728457563,0.2918851154402031,0.7414546747301175,0.36479701756003374,5.11681896368353,-54.84209506224276,-1.920537435256262
1760598679.0974584,16.88554188264152,0.316863052731233,0.7482846924032552,0.3137835986768388,5.8904359323253015,-65.41049316334731,-4.569402393988207
1760598679.107531,16.87174772218045,0.3519382310491245,0.758984627324278,0.25613248913148556,7.866137234869615,-75.04846469908725,-7.310886214923521
1760598679.117752,16.832180370525766,0.39750040545694626,0.7755307900575694,0.19415192082837993,11.142686165825793,-83.1138198503619,-10.298579290385266
1760598679.1278675,16.76712315575068,0.45238315013438424,0.8003079305171672,0.1309664080277128,15.72829583282221,-88.86840509958849,-13.698268444645242
1760598679.1375515,16.67449370162875,0.5135998059440067,0.8357947476109205,0.07026518619599516,21.53595680787584,-91.5382619481179,-17.665390114672814
1760598679.147464,16.549377471781305,0.5762903055286326,0.8840511757562873,0.01590586165332197,28.386753005744932,-90.39503066985122,-22.31992994178558
1760598679.1572351,16.38398409032523,0.6339253803379556,0.9460630245701296,-0.028559657888031848,36.01958028751973,-84.85100192661614,-27.722247123354872
1760598679.1675608,16.16808427494919,0.678787761008846,1.0210565458113146,-0.06036076262543784,44.105265605152475,-74.55678141875062,-33.8537897840653
1760598679.1772943,15.889913661135623,0.7027204234737424,1.1059428936771045,-0.0779117818461772,52.26326450303481,-59.488538424398804,-40.60626143562136
1760598679.1874874,15.537457612304499,0.6980959356032372,1.195077208608965,-0.08107903736776505,60.079781886478806,-40.011601878504834,-47.781510023107245
1760598679.1973217,15.099968526668016,0.6589167756383455,1.2805017333943092,-0.07126391976212036,67.12722024469755,-16.908669873024845,-55.10265482340104
1760598679.2075434,14.569526198629484,0.5819129943813752,1.352771280067468,-0.051279078386907956,72.98602790164034,8.63600591407722,-62.235213691330216
1760598679.217552,13.942443649848403,0.46747439345230896,1.4023296314459341,-0.02502533694125828,77.27068859650284,35.100520215659856,-68.81551130169817
1760598679.2275794,13.220346924269982,0.3202463141152871,1.421237111191229,0.002985097176015142,79.66107495928004,60.73585880040514,-74.48262661891364
1760598679.2373002,12.410804487346674,0.14923135107045205,1.4048887210367722,0.02817651299774564,79.93842534720308,83.71605525942665,-78.90986358995693
1760598679.247501,11.527429397341185,-0.032726380639195286,1.3532733298848674,0.04643107680642831,78.02222755852709,102.31546799726121,-81.83245376488462
1760598679.257224,10.589409645584663,-0.21014034566708753,1.2713687842440844,0.05450728805502971,74.00126414158933,115.09516778365857,-83.06983123933351
1760598679.2675498,9.620439214819957,-0.3667360288209285,1.1684704178636152,0.0503277912734819,68.15020829647256,121.07544239694086,-82.54267103241372
1760598679.2772217,8.647047359850236,-0.48777561239166284,1.056566544603301,0.03315862981448156,60.92360718233577,119.86861469797786,-80.28569009130277
1760598679.2875705,7.696393044829352,-0.5624546725077813,0.9481835901133285,0.0037191869408925724,52.92237964868806,111.74758773113025,-76.4559162439085
1760598679.2973685,6.793721920718326,-0.5858029024290995,0.8542801980033211,-0.03577523757574567,44.83350392380837,97.63217513892242,-71.33317788745254
1760598679.3075497,5.959837136885768,-0.5595403664163564,0.7826994341552852,-0.08170485801900956,37.34985737081911,78.98765385923932,-65.30724342622183
1760598679.3175316,5.209030807716,-0.49160265993932484,0.7374452937065316,-0.12936921467728543,31.08247596394599,57.64631012764388,-58.846902678821394
1760598679.327553,4.547888456858178,-0.39445040389178015,0.7187706484897507,-0.17358710838331293,26.480444712563493,35.57894728943837,-52.45095663910221
1760598679.3373663,3.975202521410215,-0.282642683475107,0.7238654338652408,-0.2095003462168339,23.773280882297755,14.654426825964759,-46.58762237413947
1760598679.3475487,3.4829691839187884,-0.17033274175997357,0.7478560375622081,-0.2334053897436496,22.94676971274441,-3.572230816503224,-41.6341238815245
1760598679.3575816,3.058190901902228,-0.0692775143610645,0.7848477022683702,-0.24340243249065435,23.756579519939596,-18.009564576076276,-37.82974948950697
1760598679.3677254,2.685054808137765,0.012308355280209066,0.8288195417582188,-0.23969466026283276,25.776401090860773,-28.097835272246357,-35.25267901915091
1760598679.37732,2.347046478607114,0.07003840579378191,0.8742787810695334,-0.22446618999474852,28.470773845121684,-33.793969168725376,-33.82462186120545
1760598679.3876462,2.0286665673353217,0.1029880674082555,0.9166671709353306,-0.201379857344144,31.278662588744247,-35.48806939299843,-33.34028326434956
1760598679.3973243,1.7165792011457752,0.11295372055671148,0.9525672052246086,-0.17483175608868176,33.69304897046499,-33.87729582486716,-33.51340915929681
1760598679.407343,1.4001724795782926,0.10356946357352519,0.9797711412506362,-0.14914976655746306,35.3241904658877,-29.826327002345042,-34.02893506764653
1760598679.4175158,1.0716211953290231,0.07943708177730534,0.9972596453477267,-0.12791320599239484,35.9386615885017,-24.239761576953015,-34.59142273490498
1760598679.4273741,0.7256060079817629,0.045370699968803656,1.0051086773802378,-0.11350960531749554,35.471343847297526,-17.963021806828834,-34.96255385875566
1760598679.4373732,0.358865697072418,0.005826247140484016,1.0043247061800848,-0.10696421527261178,34.01210824600276,-11.717966783681282,-34.98386171133875
1760598679.4473815,-0.030258093984722557,-0.03544860963209265,0.9966106154814781,-0.10801201928978346,31.772508215944807,-6.0707119808096754,-34.58416833691429
1760598679.457496,-0.4421758338065483,-0.07555554148893037,0.9840819558003724,-0.1153469086909246,29.040084530631976,-1.4239993501737211,-33.77371610142338
1760598679.4677117,-0.8762679840493194,-0.11243225505556903,0.9689702911363152,-0.12697467995856243,26.128719130607887,1.9748806149637084,-32.628488788737265
1760598679.4773533,-1.33099560065298,-0.14475734369487311,0.9533556346468608,-0.1406035596202109,23.332903020721293,4.018131326369978,-31.268768945453626
1760598679.4874601,-1.8039727109840222,-0.1718340491290854,0.9389613554072972,-0.1540178003539289,20.89206200038203,4.718151752308184,-29.835788441889072
1760598679.497379,-2.292070226718507,-0.1934851706675704,0.9270277765243392,-0.1653916742913396,18.968615065928812,4.186823730130113,-28.469673731906674
1760598679.5076466,-2.7915895482875026,-0.20996366512955397,0.918262916955254,-0.17351242834754033,17.6406909171471,2.6135289479650208,-27.291036536847386
1760598679.5175734,-3.2984994221769597,-0.22186765593923752,0.9128568098905374,-0.17789294666836758,16.90788805670989,0.24153027771472824,-26.387702231945905
1760598679.5274026,-3.8086933512406906,-0.2300461394152512,0.9105414941868384,-0.1787691081812405,16.70659026860642,-2.657165812964293,-25.807278495700444
1760598679.537557,-4.318209767746401,-0.23548769482716816,0.9106801550767816,-0.1769923001893937,16.930447637846985,-5.807425016810278,-25.555556485105257
1760598679.5475535,-4.823363988614598,-0.23919268242502298,0.9123730154399028,-0.17384132488789186,17.451751572363886,-8.955201550483403,-25.60011462394056
1760598679.5574815,-5.3207625690208795,-0.24203622190922522,0.9145722320130488,-0.17078647772731811,18.140362373085246,-11.888098079515892,-25.87799918852377
1760598679.5675583,-5.8071991074474285,-0.2446346219771156,0.9162016904530356,-0.16924001491689503,18.87822325691509,-14.450237533543444,-26.306044622305027
1760598679.5773363,-6.279460198515461,-0.2472326086196353,0.9162790379253459,-0.170322829368939,19.568895604494223,-16.550138603799564,-26.792307274592716
1760598679.5874581,-6.734096432131875,-0.24963181466741843,0.914035876422168,-0.17467104935687042,20.142597588012634,-18.16122525250679,-27.247196871542343
1760598679.5976005,-7.167231299169407,-0.2511807692263757,0.9090282796981258,-0.18230284668939756,20.557714287914624,-19.315486879543204,-27.593135255685397
1760598679.6075573,-7.5744863531917055,-0.250841999052334,0.9012253363364698,-0.1925654212684572,20.799733250781525,-20.091526100202543,-27.77189621839346
1760598679.6173534,-7.951090708811418,-0.2473425091586883,0.8910593052585983,-0.20418040164929402,20.878295789130064,-20.59877801710457,-27.749147095031525
1760598679.6273212,-8.292214654401187,-0.23939987436041357,0.8794175455399523,-0.21539795850898322,20.82278094747348,-20.96002789368866,-27.516071225642964
1760598679.637809,-8.593521126905515,-0.22599839074475547,0.867556373656113,-0.2242548041006487,20.676679077219195,-21.294415795679065,-27.088236095489737
1760598679.6473353,-8.851870415063813,-0.2066709091462006,0.8569258024219266,-0.22891055102853622,20.491000620645135,-21.702860641993734,-26.502051112446537
1760598679.657557,-9.066054938250156,-0.1817272685817726,0.8489153301015047,-0.22801160441150967,20.317093752464803,-22.257330953470227,-25.80925245741903
1760598679.6679575,-9.237401367939226,-0.15236740540893895,0.8445631302845906,-0.22100406458087615,20.19947924721953,-22.99479016268587,-25.069921856407934
1760598679.677471,-9.370078418978451,-0.12063428705044134,0.8443049124897052,-0.2083020368638703,20.1696100467195,-23.916110405891214,-24.344657708096268
1760598679.687575,-9.471002996656782,-0.08920099735344054,0.8478531572967327,-0.19124570972404945,20.2417275071679,-24.989827185688604,-23.686680742393534
1760598679.6973007,-9.549333019715318,-0.061035180373756076,0.8542688458794188,-0.171862739357847,20.411981411586147,-26.160180164962615,-23.134781843057592
1760598679.707617,-9.61563293759195,-0.03901650849413172,0.8622191372842609,-0.15252675815707245,20.661439156671552,-27.358314767244984,-22.707978125726953
1760598679.7175808,-9.680856227675156,-0.02558089236567985,0.8703446836970835,-0.13562598591638644,20.962543015598918,-28.514871503701983,-22.402499250025908
1760598679.7274954,-9.755296145882076,-0.022439104191791605,0.8776293613039898,-0.12331288416179373,21.287399875235163,-29.57174003747529,-22.19137055809241
1760598679.7373433,-9.847631236345544,-0.030392358265769644,0.8836784051090715,-0.1173508155095868,21.615532525286017,-30.490767138459326,-22.026511334389017
1760598679.7475398,-9.964159651035228,-0.04925423000528322,0.8888469984674164,-0.11903868377159868,21.938660694734075,-31.25777267548144,-21.84298045976396
1760598679.7575517,-10.108285416171128,-0.07788073082704691,0.8942005700012436,-0.12918229861856104,22.260673108352687,-31.881252591510904,-21.56477951934628
1760598679.7675922,-10.280288846229128,-0.11430172585466684,0.9013222043937714,-0.14808487530054132,22.591993885459342,-32.38639408438878,-21.11147179879378
1760598679.777577,-10.477381371394667,-0.15593764256733594,0.9120087927384024,-0.17554024974790342,22.938812126558695,-32.80617610246425,-20.404829268074934
1760598679.7875495,-10.69401455836425,-0.19987709266818443,0.9279132670240114,-0.21082160708192665,23.288924335414567,-33.172063092883505,-19.37479707282968
1760598679.7974966,-10.922386653630571,-0.24318319471663594,0.9501938859977508,-0.25266190895974766,23.59699199251749,-33.50687855104446,-17.96421611642004
1760598679.8075528,-11.153069606723706,-0.28319029767065507,0.9792241417949313,-0.29922510799986574,23.772561786801994,-33.821785523521875,-16.13188468290777
1760598679.8173642,-11.375668911760815,-0.31775184259089495,1.0144018513757216,-0.3480756134945447,23.674049247788567,-34.118099065331265,-13.853652593041394
1760598679.8273969,-11.579432355677087,-0.34540547336974503,1.0540779990524065,-0.39616521008674427,23.111056359984214,-34.39332605568277,-11.121398050294992
1760598679.8375084,-11.753743138635588,-0.36543185036810677,1.095610365823868,-0.43986617210409334,21.856032150081372,-34.64973754401456,-7.940000290748462
1760598679.847456,-11.888463264172607,-0.37779939852855743,1.1355391652429407,-0.47508450784548756,19.664632371420716,-34.90309865434999,-4.32276335576924
1760598679.8572605,-11.974126634315725,-0.3830097975461741,1.1698827224175576,-0.4974864113914296,16.302524686159835,-35.189008402568795,-0.2860821221065713
1760598679.8675478,-12.002011167183866,-0.38188312775173006,1.194552183263702,-0.5028586491060781,11.57517468353342,-35.56473799768935,4.155602817001163
1760598679.8772347,-11.964142070229208,-0.3753352399503651,1.2058707732788312,-0.48759447223006097,5.356548016862496,-36.10545572208281,8.993394773785493
1760598679.8875778,-11.853291958373493,-0.3641959381932298,1.2011505507117468,-0.44925432842409474,-2.3873218521162554,-36.894986082360546,14.225004592944988
1760598679.8973012,-11.663043790708716,-0.3490994892747612,1.1792433671916818,-0.387110659732067,-11.583419528558627,-38.01236223711123,19.852613924790933
1760598679.9075596,-11.387964933328263,-0.3304577606495359,1.1409641384703113,-0.3025663055529244,-22.048028359587878,-39.516128347395124,25.877544040022322
1760598679.9173534,-11.023904125412301,-0.3085052348553243,1.089289740285023,-0.1993438172002546,-33.49537339142138,-41.42859501487982,32.292550537093675
1760598679.9277408,-10.568373493366908,-0.28338616373763326,1.029259212808317,-0.08337291019621085,-45.558162042037964,-43.72215501099582,39.07330052206064
1760598679.9375114,-10.020927621063736,-0.25524355656035236,0.9675357418991043,0.03765547867769698,-57.81792147474423,-46.309494195091695,46.17102630191102
1760598679.9473145,-9.383418671503303,-0.22427464612432127,0.911636878981954,0.15505573419051216,-69.84162136864019,-49.03924380932109,53.50828131309567
1760598679.957414,-8.66000888872131,-0.1907353585401633,0.8688961053973407,0.260174424217181,-81.22000921851784,-51.698346605674594,60.97906969212776
1760598679.9675004,-7.856871365496676,-0.15489809319887848,0.8452909720163251,0.3455567473337224,-91.60258032144468,-54.021956607461085,68.45358073255788
1760598679.9776945,-6.98160264552906,-0.11699140851537765,0.8443570052251858,0.40605505807242,-100.72451449322186,-55.710805992083955,75.78672508422605
1760598679.9875317,-6.042476314256504,-0.07717654076722101,0.8664552884921493,0.43962471509531265,-108.42231922826696,-56.45473095235121,82.82890046890138
1760598679.9972606,-5.047734852315574,-0.03562322123214679,0.9086052528490948,0.4475823382991251,-114.63685716293213,-55.96001440886008,89.4369322387497
1760598680.0075316,-4.005110413172913,0.00729106314932225,0.9649333990666296,0.4342408519937425,-119.40429652117902,-53.97797118319596,95.48298967146096
1760598680.0175586,-2.9216889930873995,0.05070998182174513,1.0276190719911924,0.4060170989450493,-122.83697545689301,-50.33273256138825,100.8597125201374
1760598680.0275905,-1.8041241620934358,0.09307308303659402,1.0881255239016436,0.37023851669900265,-125.0970684924545,-44.9467288535512,105.48090642161247
1760598680.0375242,-0.6591056253873722,0.1320659098538026,1.138486850075579,0.33391485181040914,-126.36627337787407,-37.86212173086868,109.27859708565727
1760598680.0474038,0.5060792067293193,0.1648244769598996,1.1724368843609265,0.3027052926259377,-126.81477050454548,-29.255342587478545,112.19830166942438
1760598680.0575335,1.6830736553640906,0.18838621464950128,1.1861980315604166,0.28023982962182487,-126.5727847702988,-19.440789091124973,114.1947050563919
1760598680.0675192,2.8622301855549654,0.20029501166415592,1.1788048490214051,0.2678750401940941,-125.70823918434516,-8.85970699062396,115.22964050958105
1760598680.0775619,4.0327428635114915,0.19921452304265483,1.1519219059923578,0.26488274801705586,-124.21400017963009,1.9481886688887078,115.27365657051598
1760598680.0875332,5.1831628983131885,0.1853929202876535,1.1092143951060678,0.26898599028233655,-122.0077002609337,12.390051292953201,114.31161699451881
1760598680.0974627,6.302243996695182,0.16085171895551886,1.055421545408707,0.27709263879203067,-118.94559622467978,21.878574518173632,112.35171954217606
1760598680.1074412,7.3799860718821915,0.12923012154452435,0.995344304826911,0.28605813281677844,-114.84923541562522,29.897089036250605,109.43616339018153
1760598680.1174972,8.408685833068823,0.0952902756392791,0.93297170512132,0.29333226559266384,-109.54062700278303,36.061638965943374,105.65073413620802
1760598680.1272628,9.383776567879814,0.06416485913762286,0.8709291244706493,0.2973870730646491,-102.87950543601595,40.16962988183124,101.13008578605739
1760598680.1377752,10.304257975391039,0.04049068229965775,0.8103436830975249,0.2978702891663047,-94.79595576834915,42.22578800084217,96.0557025248507
1760598680.1473193,11.172580379502978,0.027601874496010693,0.7511079511810396,0.2954842677653681,-85.31286402745715,42.439328152282485,90.64459592667181
1760598680.1576014,11.993944514984056,0.026944238907299016,0.6924222028686895,0.2916495714004934,-74.55459563581815,41.1908607709482,85.12872257451501
1760598680.1675587,12.775089389191363,0.037826003652435804,0.6334480675980463,0.28805658830359276,-62.74061026295943,38.973017654766,79.72754692927984
1760598680.177614,13.522745836816306,0.05755477599011705,0.5739200882273554,0.2862216971293606,-50.16534078310654,36.314148443208715,74.61846571229928
1760598680.1876986,14.242013226076539,0.08193793417068279,0.5146080152738891,0.2871465791029436,-37.16824294107309,33.69842335061495,69.91115286473388
1760598680.1975744,14.934955147983533,0.10605398281150971,0.45756825264920953,0.2911417980931944,-24.099733500480124,31.496920213806774,65.6316734807947
1760598680.207759,15.599696171270212,0.12514868697523368,0.40615204293117,0.2978333537234826,-11.289253203301403,29.92213408323781,61.72040166965357
1760598680.2172818,16.23023469365026,0.13548555506395402,0.3647537773023018,0.3063340264554043,0.9790656082757122,29.013310074486288,58.0449090633223
1760598680.2275488,16.81707645809567,0.1349936011669428,0.338299163244414,0.3155329807145516,12.479366883636288,28.653432957193527,54.42589776991158
1760598680.2373254,17.34865647899466,0.12360432626142975,0.3315052037716023,0.32443684764134245,23.044330019986532,28.612263074746732,50.67170059716688
1760598680.2473311,17.813370694971308,0.10323870018070508,0.3479984404301234,0.33248397213356073,32.55422264175017,28.60488977512616,46.61536899314311
1760598680.257422,18.201898259013795,0.07747087170437626,0.3894421232054357,0.3397510956082277,40.91897790755006,28.352769531933614,42.1480747093617
1760598680.2674973,18.509387349742283,0.05094495242023691,0.45486373129345764,0.34698211029471887,48.059262951285305,27.634505097737346,37.24331976133007
1760598680.2777495,18.73704706987153,0.028654018170367813,0.5403587228345189,0.3554041685793947,53.892502004583044,26.316600580191736,31.96802239778677
1760598680.2875738,18.892778236308544,0.01520604402564391,0.6392755240114569,0.36636242658223545,58.328098249254936,24.359409162054586,26.478706272811184
1760598680.2975643,18.99068293043749,0.014193933884819059,0.7428953732205499,0.3808756302308857,61.2735562354898,21.79925449254468,21.00352677456719
1760598680.30756,19.049548204826454,0.027755530896450734,0.8415340604318186,0.39924802921103913,62.65076244663473,18.71292791496338,15.813328456624625
1760598680.3172963,19.09061030699181,0.05636630009569452,0.9259091599881214,0.42084700270285125,62.4194541618166,15.174445354355631,11.186818795251453
1760598680.3274567,19.135016957736287,0.09886760375744146,0.9885395219744854,0.44408797875384026,60.60276831813482,11.215444269857867,7.375781249450574
1760598680.3375404,19.20141952548528,0.15270586798441232,1.0248956242136318,0.46660071197334263,57.3084412941368,6.799541612967238,4.57577393860674
1760598680.3476398,19.304072702076027,0.21434278989772218,1.0340280251026197,0.48551577298117166,52.73989506301629,1.8175181853902076,2.9060868792229515
1760598680.3576357,19.45171391513322,0.27978454504242584,1.0185010651077966,0.4978085401619595,47.19418026530562,-3.8947156927044277,2.4003503353713533
1760598680.3673189,19.64734212626461,0.3451554305691913,0.9836565994747363,0.5006517621882997,41.04723327706986,-10.518371020736573,3.006750203204724
1760598680.3774238,19.88882897937576,0.40721417381014524,0.9364472826978033,0.49173962514438807,34.72960458820571,-18.201018372653632,4.594940157542679
1760598680.3874478,20.170115690308943,0.46370939734560696,0.8841874127286946,0.4695507642448127,28.696964480126585,-27.001512062349974,6.965981037830062
1760598680.3976185,20.48263581543884,0.5135128503530461,0.8335274657135391,0.4335221763204293,23.399350117849224,-36.83926529846048,9.862268448964764
1760598680.407429,20.816597629630206,0.5565329156769934,0.7898259930224327,0.3841202167443231,19.251854405992095,-47.4550009236924,12.976212762831937
1760598680.417573,21.161854676672053,0.5934578897092816,0.7569502825437777,0.32281729551295446,16.608012506895893,-58.38805189116198,15.958670106285277
1760598680.427769,21.5082450743282,0.6253923664522683,0.7374285998287016,0.25200079693344474,15.736126475563786,-68.9737676318567,18.42981059609847
1760598680.4375906,21.845435773905706,0.6534418333981712,0.7328125622615913,0.17484247383414642,16.798525743375432,-78.36389036250017,19.9954830722497
1760598680.4475563,22.16242737669517,0.6782887550492134,0.7440847947820293,0.09514227591822921,19.834321903484188,-85.57219598621461,20.271007579171325
1760598680.4573107,22.446939658539637,0.699799019681995,0.7719572114193176,0.017140634788321125,24.747185959404348,-89.54624951419335,18.91213260679742
1760598680.4674268,22.684906276866037,0.7167019609978376,0.8169437533033526,-0.05472230960777529,31.30037915628853,-89.26342162608142,15.650383274980651
1760598680.4774182,22.86026871163635,0.7263962663257998,0.8791543720155592,-0.11612500423154122,39.12133251907206,-83.84573476963304,10.327940231427064
1760598680.4875386,22.955191067508398,0.7249433376696907,0.9578352192857759,-0.16326470261682266,47.71770314168018,-72.68427031426245,2.926152159170845
1760598680.4975657,22.950739599657275,0.7073126050429231,1.0507584596341635,-0.19330137160901026,56.50625752435877,-55.56024597103907,-6.4177739302625385
1760598680.5076306,22.82800105279852,0.6679287669367546,1.1536328710021577,-0.2047667233160416,64.85483744817407,-32.74697675920039,-17.409459027470543
1760598680.5175557,22.569559069821,0.6015283023481038,1.259754865670543,-0.1978513116996232,72.13561867794452,-5.075544887558466,-29.61222078195612
1760598680.5275211,22.161204879778293,0.5042612759789764,1.3601284417720991,-0.1745092004537824,77.78511006565738,26.0520957426741,-42.476282660394915
1760598680.537262,21.5937209400962,0.3748879288632713,1.4442236778681197,-0.13835968784646724,81.36384464315384,58.71530103461159,-55.37871750648058
1760598680.5474913,20.864542448338643,0.215841773930089,1.501403626089326,-0.09439756156275166,82.60744886594959,90.59868021862953,-67.66985963258546
1760598680.557392,19.97907791164716,0.03388832136329427,1.5228422754088522,-0.04854109272843288,81.46101496322049,119.18538931193478,-78.72202291743862
1760598680.5675797,18.951467348623293,-0.1598762089639823,1.5035262323074057,-0.0070552744327413335,78.09027212559361,142.0062494117954,-87.97675130501031
1760598680.5776088,17.804584498644314,-0.3508517902519648,1.4437701985985998,0.024107913883139785,72.86593160649844,156.91909821852715,-94.98725223852453
1760598680.587571,16.569152028099623,-0.5225847579444478,1.349700667028467,0.04000528204702935,66.32174438054618,162.3820373001019,-99.45305080769803
1760598680.5976117,15.281936271944877,-0.6590224636379097,1.232434365716559,0.03737101069765525,59.09153168516539,157.67798101430336,-101.24425391488265
1760598680.6075773,13.983114895354026,-0.7469571809479166,1.1061092129652002,0.015162712489208948,51.834263103322726,143.04947265953973,-100.41321451659013
1760598680.617586,12.713051666166455,-0.7781486817250147,0.9853074814268951,-0.025137664622852093,45.157912649677264,119.71393458368004,-97.19188168329869
1760598680.627527,11.508840855905957,-0.7506701461215138,0.8825653122289049,-0.07958030329708626,39.552168449322515,89.74917425675899,-91.97367963388879
1760598680.6374743,10.4010657253596,-0.6692155350936545,0.80655636315456,-0.14221361374432262,35.33795148621005,55.862617221448765,-85.2795766281432
1760598680.6474454,9.411219296428436,-0.5443649527405269,0.7612613132617826,-0.205919033749632,32.639159855976466,21.0789509324692,-77.7096212742815
1760598680.6573336,8.550147072822748,-0.3910286363762118,0.7461208184858408,-0.2634768168189664,31.379630439796884,-11.60593122891184,-69.8839202898133
1760598680.6674738,7.817707036394678,-0.22641025241534746,0.7569302027775463,-0.3086580472719558,31.305821147919442,-39.55377801045132,-62.38012974146517
1760598680.677479,7.203645013383881,-0.06784140916411781,0.7871286449135869,-0.3371263716129463,32.03266899761406,-60.750866880024425,-55.67656295006574
1760598680.6877375,6.689501529052734,0.06921414762160319,0.8291542792068338,-0.3469794008150913,33.10638950047652,-73.9811787176412,-50.10976595877567
1760598680.697542,6.251232961474767,0.1727599286029748,0.8756260325558227,-0.3388458898453074,34.074455403321025,-78.89112540258584,-45.8527927260621
1760598680.7075913,5.862159120412185,0.23531397806136992,0.9202194104406063,-0.3155546676516204,34.551069306557046,-75.94871926921968,-42.91638111632346
1760598680.7173648,5.49584244767376,0.25432320067834024,0.9581950815056778,-0.2814789263052803,34.2672889087487,-66.31494905090862,-41.171030685961064
1760598680.727349,5.128555525814643,0.23194967303423714,0.9866042143666706,-0.24171350552235987,33.09856072829667,-51.65486811611244,-40.38458399895049
1760598680.7375953,4.741092983724169,0.17432367505278826,1.0042323164938014,-0.20125527325065568,31.067515878857165,-33.91953907371325,-40.267885582825116
1760598680.7475379,4.319814205175994,0.09043189409209794,1.011357204020524,-0.16433324991000325,28.32478476140093,-15.127967963079014,-40.520656094861955
1760598680.7572832,3.856939663552817,-0.009154905693030912,1.0093932410942832,-0.13398528349984137,25.113994884295167,2.8279202245818786,-40.87079084568978
1760598680.7675717,3.350235555464323,-0.11352444226881406,1.0004835032576418,-0.11191273870521165,21.728515063809503,18.340160915843594,-41.102513797075694
1760598680.7775717,2.802281837014151,-0.21250156903793474,0.9870925721425717,-0.09857957654032769,18.467188336506315,30.195986127837305,-41.07157443214438
1760598680.7875364,2.219518300949901,-0.297499009272929,0.9716457853472872,-0.09347418758911868,15.594987910597203,37.64169794516277,-40.708209334072386
1760598680.797532,1.6112155097298415,-0.3621276474170334,0.9562512402991235,-0.09543227820093986,13.312877338089365,40.40109404224825,-40.01029886766164
1760598680.8076515,0.9884509899394869,-0.40257142409849317,0.9425256517284366,-0.10293080488617802,11.739445570697852,38.652444375287494,-39.02985137501068
1760598680.8175967,0.36311528906308155,-0.41772457572423716,0.9315258210205348,-0.11430137847491482,10.905182993107196,32.969411314831184,-37.855880780124366
1760598680.8275926,-0.25305410399778344,-0.4090794513816421,0.9237689575795882,-0.12785834152080713,10.75864173801056,24.232638406003765,-36.59631033287324
1760598680.8378818,-0.8494045326403429,-0.38036055008987757,0.9193133069393772,-0.14196810839004703,11.182350154968821,13.520235742160974,-35.361037653673016
1760598680.8476236,-1.4172217329267591,-0.33692856253347864,0.9178689676505704,-0.15509243033497094,12.015386684040399,1.9869588003836316,-34.247834708283065
1760598680.8576295,-1.9504145943065772,-0.2850159901964441,0.9189155088093967,-0.16582774534614034,13.079022164999847,-9.256816618275582,-33.33227873197518
1760598680.8674555,-2.4459153074015623,-0.23088794825463826,0.9218117927285534,-0.17294873355358392,14.201807533647699,-19.254677869943645,-32.66232411669405
1760598680.8775609,-2.903699944673885,-0.18003833145022496,0.9258889646689502,-0.17545308716282476,15.24089532952548,-27.291372865897877,-32.257413389746354
1760598680.8876567,-3.3264010894269873,-0.13653004104061556,0.9305196304025682,-0.17259850657648731,16.097163973827517,-32.948799317829796,-32.11130748638903
1760598680.8973525,-3.7185709270568443,-0.10256955505725739,0.9351584702391013,-0.16392478532084814,16.722708600229712,-36.12534742155758,-32.19729827310886
1760598680.907575,-4.08572834679029,-0.07837404004318006,0.9393550467193129,-0.1492649999061343,17.120302563495084,-37.017442715041106,-32.47431039650028
1760598680.9175458,-4.433366275038863,-0.062348337645064866,0.9427474411013532,-0.12876394841729824,17.33542181901316,-36.06677887579466,-32.89262383322154
1760598680.9275057,-4.76609970323045,-0.05154453989835735,0.945051018689414,-0.10292504139086277,17.442329255077446,-33.8810293942547,-33.398437428482275
1760598680.9376278,-5.087104415897069,-0.042333729845475836,0.9460559434644469,-0.07269036545945044,17.526488016081156,-31.139099956675583,-33.937068556480774
1760598680.947342,-5.397939478402085,-0.03118458207423188,0.9456405687376324,-0.03953164283506781,17.666101403404017,-28.493726304281587,-34.45507286616133
1760598680.957286,-5.6987732788501155,-0.015423802321496998,0.9437997810155161,-0.005509924265924523,17.91575050866576,-26.484192897586055,-34.90184693944884
1760598680.9674215,-5.988955159816257,0.006147008527418754,0.9406808142299463,0.026743141773135304,18.294849311257376,-25.470198265747,-35.23128865751406
1760598680.9775746,-6.267806042683147,0.032883794114043054,0.9366143567346812,0.054161817506170745,18.78289734815673,-25.59469710416198,-35.40385160880845
1760598680.9873114,-6.535455567937112,0.06224982159043259,0.9321269502305706,0.07351862894275264,19.322265152809003,-26.779325818594923,-35.388929791472684
1760598680.9976172,-6.793540140738373,0.09010000358432083,0.9279245136223538,0.08181339311102406,19.82770559531497,-28.75137947790096,-35.16710227943943
1760598681.0077534,-7.0455991097543995,0.11126049140470101,0.9248470721815379,0.07671311166541621,20.20045293687832,-31.097041536893848,-34.73153933029413
1760598681.0176523,-7.297060788053471,0.12031221507247414,0.92380606018261,0.05694037308514762,20.344170028731266,-33.33236879851123,-34.0879387413939
1760598681.0273879,-7.5547856983950314,0.1124514157201504,0.9257182671729421,0.022508681627434277,20.180181285068876,-34.98171451913305,-33.25267620280314
1760598681.037611,-7.826216855886455,0.084290230699692,0.931440803848507,-0.025245820404452737,19.659874648532533,-35.652782031323646,-32.24923411637405
1760598681.0472624,-8.118260335573313,0.03447625863796263,0.9416990641400682,-0.08381282570230669,18.77238868517254,-35.098216342638615,-31.103259782817673
1760598681.0576112,-8.436070572227317,-0.03595550285421244,0.9569987347362837,-0.14976618482631016,17.545869602384702,-33.25552907438618,-29.836761987265835
1760598681.0675905,-8.781936127952362,-0.12354082517318836,0.9775263949225446,-0.21906381851317308,16.041230433306275,-30.26011369833966,-28.46203423782103
1760598681.0776136,-9.154450780104096,-0.22265369820973968,1.0030622881775177,-0.28735504383808536,14.33865379071558,-26.429770808516547,-26.975938638685417
1760598681.0875833,-9.548112463594695,-0.32604914468494983,1.0329414318624266,-0.35029865719698156,12.518660763559065,-22.22295108808381,-25.355204797220733
1760598681.0973046,-9.953422681323472,-0.42562510400034703,1.0660921809173125,-0.4039065698034142,10.640940255927399,-18.176327234860327,-23.553372329347496
1760598681.1075413,-10.35747271987966,-0.5133291293971297,1.1011484450522444,-0.4448931305043319,8.725029424392115,-14.830017713070445,-21.499902010456996
1760598681.1177642,-10.744918977109364,-0.5821167895429957,1.1365940778026058,-0.4709575808616258,6.737096821522683,-12.65059599279058,-19.10178597387126
1760598681.1276248,-11.099186024407492,-0.626846344217162,1.1708941267317403,-0.4809242768225915,4.5861923316671245,-11.96270358711594,-16.247739445057743
1760598681.1374245,-11.403705782630848,-0.6449728684372306,1.2026028865595957,-0.47472951365819427,2.1314415465420167,-12.899410221038698,-12.814835367207616
1760598681.147699,-11.643012110827136,-0.6369022756585244,1.2304712677621141,-0.45330786759620695,-0.8006115370633056,-15.379250108748,-8.677298012631178
1760598681.1576595,-11.803558993757022,-0.6059044300691265,1.2535713444503784,-0.41843671787530906,-4.391238256684569,-19.114131650852748,-3.717073150351935
1760598681.167538,-11.87420067930868,-0.5575698190035515,1.271423235888882,-0.37256287338637345,-8.801263869434983,-23.647518188866112,2.1643201807179757
1760598681.1775656,-11.846342963466084,-0.4988997284520383,1.2840787266955476,-0.3186064387353275,-14.143670467117316,-28.417293707094434,9.03330931117618
1760598681.187586,-11.713831447005546,-0.43720255831083066,1.2921095699136131,-0.2597320104475889,-20.461144229903145,-32.83356249989546,16.912030211901797
1760598681.1975327,-11.472676448731152,-0.3790002583866923,1.296473106094271,-0.1990885677343577,-27.711770189123648,-36.35909930269461,25.767500121885984
1760598681.207531,-11.12072224257158,-0.3291300726466737,1.2982729179944978,-0.1395367749691304,-35.764799570823975,-38.57978586988512,35.50368681208248
1760598681.217541,-10.657353858769032,-0.2901774831805455,1.2984745768304293,-0.08339915706425363,-44.406982195171885,-39.25431934180679,45.95810266773153
1760598681.2273316,-10.083306220037258,-0.26231392565161044,1.2976563824876644,-0.03227940384147762,-53.358572473904964,-38.33648071084745,56.90430132852466
1760598681.2378821,-9.40060651778864,-0.24354483013148365,1.2958659097434702,0.01300366703063337,-62.296864397823455,-35.96846822228499,68.06096004918817
1760598681.2474995,-8.612647988870531,-0.23030502976252007,1.2926173791275668,0.0523405142769473,-70.88402623844122,-32.44893538345378,79.10721429536346
1760598681.2575817,-7.7243664601594055,-0.21828115917881735,1.2870123828344702,0.08612596540586216,-78.79530230748628,-28.183151154048044,89.70280443452965
1760598681.2676613,-6.742472913756593,-0.20330874506510446,1.2779251290718567,0.114987433396779,-85.74371557505971,-23.62445492297003,99.51072472520666
1760598681.2775002,-5.675684726581819,-0.18219027515813507,1.264195838780108,0.1395432111484649,-91.49838272796222,-19.216077950335087,108.2197526900858
1760598681.2875886,-4.534891016409621,-0.15329975065567122,1.244816653566756,0.16027750170362814,-95.89502022621706,-15.341099434868404,115.5645594175344
1760598681.2975416,-3.3331820815827857,-0.11686833376095027,1.2191221718796617,0.1775589556522903,-98.83857387083215,-12.286305804472608,121.34180803367425
1760598681.307532,-2.085674324860069,-0.07488985375690929,1.1869746782887394,0.19175487639489858,-100.29897186303164,-10.223105024392126,125.42140650295924
1760598681.3172774,-0.8090784369352672,-0.030654735203302586,1.1488888743806036,0.2033540491536686,-100.30194418294944,-9.20547760732156,127.75270385527827
1760598681.3275108,0.4790057867472913,0.01199246714197145,1.1060301675628423,0.21302543321862638,-98.91759510259958,-9.181796820873002,128.36579621807772
1760598681.3375256,1.7610323371823797,0.04950231519567606,1.0600639419296956,0.22158129038030558,-96.24953763325485,-10.015175689589952,127.36816080775169
1760598681.3476222,3.0205945643774226,0.0793737308413354,1.012894011106918,0.22984946270908002,-92.4265455522816,-11.506522400902782,124.93666102838212
1760598681.3572912,4.2435085876336,0.10063190870956346,0.9663606133498982,0.23848552006120236,-87.59700483272897,-13.415778449588732,121.30487876844853
1760598681.3675005,5.418727913619763,0.11392769033796667,0.921964470291571,0.24777881873994592,-81.92478257502557,-15.479237092038817,116.7460342011641
1760598681.377336,6.538939337112662,0.12125960651372826,0.8806676039558058,0.2575195495466641,-75.58454475847964,-17.423315976308643,111.55247665372077
1760598681.3877406,7.60074233864908,0.12541777888789152,0.8428082143734366,0.26698115167572994,-68.75538710864427,-18.976710731846225,106.01357799568146
1760598681.3978136,8.604387739515015,0.12931022126311065,0.808148330796366,0.2750348655093331,-61.613136482496614,-19.883076679316623,100.39443864606918
1760598681.407851,9.553127639721827,0.135341369004893,0.7760431698209608,0.28036918497745267,-54.3227286959193,-19.915473056830578,94.91789941030515
1760598681.4174943,10.452290699555608,0.1449747135258963,0.7456898361306133,0.2817560697905979,-47.03211274391228,-18.892304807135424,89.75192845236874
1760598681.4275174,11.308233506394432,0.15854756844869522,0.7163943808223118,0.27829782512667334,-39.868324955226996,-16.693041659836936,85.00361623854006
1760598681.4376948,12.127325043577637,0.17533991536683924,0.6877967944598963,0.26960262915449096,-32.935327363361274,-13.271108238004096,80.71990642567867
1760598681.447619,12.915097400663704,0.193846170617292,0.6600106233274222,0.2558643735788682,-26.312608418925716,-8.66129314646344,76.89402461538671
1760598681.4572635,13.675648677382613,0.21216622906529498,0.6336588787249948,0.2378523160761856,-20.053726852224347,-2.9797674933872673,73.47561866091164
1760598681.46766,14.411327040457037,0.2284233580885432,0.6098105669445597,0.21683702043095981,-14.184676745144275,3.5839659572490934,70.38219773424595
1760598681.4772947,15.122673306616429,0.24112798578057382,0.5898360353753572,0.19448429970486356,-8.702633844078331,10.782513916512777,67.50974632629787
1760598681.4875875,15.808563869757508,0.24942868632710413,0.5752043759645193,0.1727394156168818,-3.5759972721076374,18.331533788563075,64.74131915552039
1760598681.4975672,16.466480347865648,0.25321686919865344,0.5672466464420144,0.1537080291367339,1.253333000885022,25.933387653231872,61.953617452888885
1760598681.5075984,17.092836380444155,0.25307867133458384,0.5669084979387504,0.13952811290979064,5.864696469526319,33.300225105979706,59.02250991532212
1760598681.5175297,17.683311670183897,0.25011659986279455,0.5745165975902605,0.13222343181286117,10.350014322220032,40.17315967347783,55.828856569275025
1760598681.5276325,18.23317123318704,0.24568931542173145,0.5895864236153087,0.13353382086174545,14.801753156331227,46.3346759480542,52.265771284690004
1760598681.5375588,18.737573561836374,0.24113183714734063,0.6107054325541442,0.14472667952502527,19.298102790425812,51.61246990548445,48.24777271200537
1760598681.5475748,19.19188504377965,0.2375155544807279,0.6355327411991138,0.16640291593294654,23.886715505295644,55.87445242376032,43.721368180326614
1760598681.5572762,19.592014834822127,0.2354905548866732,0.6609567785920056,0.19831521514550754,28.569228229800494,59.01629351575279,38.675772502062685
1760598681.5675251,19.934768467186778,0.23523036439025424,0.6834332829889158,0.239219577828736,33.289541777559236,60.944339192552974,33.15193167465316
1760598681.5776608,20.218200539718502,0.23647975840434785,0.6994781771045887,0.2867904312250238,37.92910142225599,61.55783592739257,27.247891182906265
1760598681.5872838,20.441936350976405,0.23869283795279916,0.7062262517786999,0.3376445729954036,42.31191387190887,60.735010841959735,21.118734297415102
1760598681.5977635,20.607430362850042,0.24123805936751333,0.7019276568366462,0.3875221412806805,46.2206597143022,58.32745305810474,14.969735628149982
1760598681.6073947,20.718130327682886,0.24363593860127858,0.6862739481496473,0.43164363442622933,49.423130830344604,54.166240432813076,9.042089906872969
1760598681.617736,20.779515772174438,0.2457856792558134,0.6605110846090916,0.4652041760685241,51.705685851958016,48.08141026171482,3.591656111680696
1760598681.62757,20.79898029026497,0.24813513563977346,0.6273601263643573,0.4839153117909274,52.90821717479826,39.93398157291747,-1.1375410726339714
1760598681.6373825,20.78553265363923,0.25175776428603147,0.5907957109518046,0.4844996833797161,52.95423871061072,29.657224918246982,-4.9421696201466085
1760598681.6477869,20.7493027220742,0.2583172708957673,0.5557336473031951,0.46508297201755694,51.87065386042612,17.301732940479177,-7.687327688822671
1760598681.6576154,20.70085350156533,0.2699177334341535,0.5276671118956832,0.4254655911712204,49.7940987315521,3.0775832612172165,-9.329696212164507
1760598681.6674879,20.650321347880368,0.28884692756916014,0.512267923604222,0.36725880242173253,46.96337758635286,-12.61314725854492,-9.93301575692805
1760598681.6776037,20.606432132405846,0.31722287744526445,0.5149416750121155,0.2938491974647319,43.69946971514546,-29.159160733100716,-9.673289653280733
1760598681.6879754,20.5754673788317,0.35655674092727596,0.5403162212900773,0.21014858615121348,40.37562569027402,-45.74203207594199,-8.831784293617966
1760598681.6977665,20.56027602952356,0.4072598428054595,0.5916662431200028,0.12211461363810103,37.38051497538496,-61.36017995556321,-7.7749574537591
1760598681.7074556,20.559444581335853,0.4681522169568934,0.6703173751603255,0.036089750192563684,35.07768083222014,-74.87617315010482,-6.921991246263472
1760598681.7177167,20.566750250358847,0.5360652498732242,0.7751070503817847,-0.041921650622494436,33.76492992310087,-85.08773307058367,-6.702527196222267
1760598681.727303,20.571019271251057,0.605651191233975,0.901995967489298,-0.1068883643470538,33.63775121775893,-90.82114290631368,-7.509196366461896
1760598681.7373698,20.556481524617634,0.6694968177931688,1.043928513542404,-0.1551992923154409,34.76128007154115,-91.04314478666556,-9.65111208970199
1760598681.7476113,20.503650036119346,0.7185897775614847,1.1910375216923739,-0.18491519555921695,37.05536943169571,-84.98383777536603,-13.315104302240766
1760598681.7576303,20.39067448574076,0.7431311059481018,1.3312739943711742,-0.19587047223823548,40.29661651063568,-72.25924856245358,-18.5408292526485
1760598681.767561,20.195045489030484,0.7336448005122788,1.451502384982056,-0.1896522829142364,44.13951923380893,-52.979015652186504,-25.214030667832006
1760598681.777455,19.895479299577964,0.6822964479274632,1.5390239485670199,-0.16944114875738464,48.15635418200745,-27.82255433380374,-33.07936387834132
1760598681.7874985,19.473798366421644,0.584283678340765,1.5833763026624856,-0.13968155572557084,51.89213524239943,1.9334840816976921,-41.77066615558509
1760598681.7974963,18.91663974119738,0.43910531760369137,1.5781315777769334,-0.10557986806029407,54.927592530088475,34.45190897833872,-50.853070000923594
1760598681.8073668,18.21685937203902,0.2514701657995834,1.5223221946971004,-0.07248590867643676,56.940186074638405,67.44601623690563,-59.86896352788139
1760598681.8173895,17.374538451375287,0.03159047116283792,1.4211117166585798,-0.04526664468082636,57.75169632126935,98.36538508812025,-68.37946776416985
1760598681.8277442,16.39752281540532,-0.20535347118530273,1.2854365200761537,-0.02778517599894194,57.352088973072185,124.6433222193421,-75.9952416728064
1760598681.837612,15.3014345812588,-0.4406631474180609,1.1305722116700394,-0.022551279949417326,55.89383188888255,143.97812469141078,-82.39456938505347
1760598681.8473048,14.10910051731137,-0.6543568320780898,0.9738630530390505,-0.030549793640633222,53.65776124236888,154.60857867074964,-87.33124663100342
1760598681.8576906,12.849367277420919,-0.8278191215770625,0.8320839095751849,-0.05122116387885107,50.99841590104581,155.53938972033097,-90.63753575131389
1760598681.8676639,11.555333707206861,-0.9463324931387688,0.7189926022662372,-0.08257229503581888,48.28086397560941,146.67713039744908,-92.2269570673833
1760598681.8773525,10.26211623888696,-1.000966046711215,0.6435553274063356,-0.12141362335144999,45.82140537558953,128.85162521521323,-92.09852658044711
1760598681.887663,9.004347395734394,-0.9894839335447204,0.6091323659567759,-0.16372470217262056,43.841934401264766,103.71826211942641,-90.34047876296745
1760598681.8973207,7.813660692491764,-0.9162187660111304,0.6136684078544893,-0.20513562675245134,42.44383340538019,73.55820500768564,-87.12961075929869
1760598681.9074197,6.716423035159181,-0.7911039178306178,0.6507136359952669,-0.2414816107295812,41.60343020466898,41.01028399183477,-82.72274625944499
1760598681.9176416,5.731941057693532,-0.6281785938506361,0.7109607903468599,-0.2693553938709692,41.18779229237229,8.77680326090471,-77.43877558060463
1760598681.9276054,4.871304872956431,-0.4438626572824084,0.783941308449517,-0.2865593857553688,40.98681712178229,-20.654883762341857,-71.63224690785358
1760598681.9373841,4.136957779339655,-0.25520957178021625,0.8595689700436485,-0.29235955854553725,40.75522022689515,-45.24071441335454,-65.6616899815484
1760598681.9478648,3.523004217300624,-0.0782680537224799,0.9293187452250499,-0.28747814649883,40.256616436623396,-63.53604108738155,-59.85721831307182
1760598681.9575865,3.0161939426091786,0.07334037122343791,0.986944191997177,-0.27383054863781975,39.30199827629459,-74.77130761796988,-54.49230418049396
1760598681.9675357,2.5974510059013425,0.18950801367930833,1.0287399410991296,-0.25408588079679767,37.77664083931893,-78.85148674903446,-49.76396496253092
1760598681.9772992,2.243762362336306,0.26427600167591037,1.053428764667192,-0.23117156194862584,35.65232404008933,-76.29213614171977,-45.78404514098765
1760598681.9873383,1.9302180895058179,0.29595767929656996,1.0617878015129985,-0.2078336142158701,32.984948112367476,-68.1091141125908,-42.582148685910795
1760598681.9974306,1.632011052102713,0.28678623980973644,1.0561293564176732,-0.18632234254685714,29.900318273924345,-55.67949803225582,-40.11863436279743
1760598682.0073192,1.3262493819396486,0.24221118390487958,1.039732098422878,-0.16822561342755918,26.572511725333605,-40.589498881636324,-38.304477924213565
1760598682.017364,0.9934871618347109,0.17000627258385173,1.0162944739607302,-0.1544367806803437,23.199569242946403,-24.482534524735954,-37.0240208536359
1760598682.027639,0.6189140351838489,0.07933013718458166,0.989462236370699,-0.14522497481647442,19.980438350971514,-8.91811644284986,-36.15669285742331
1760598682.0373535,0.1931559923816393,-0.020171665409854708,0.962464914297327,-0.14036803930495115,17.0956822732425,4.7496747148217615,-35.594568544662266
1760598682.0474799,-0.28735934268535035,-0.11917831359003392,0.9378776418039942,-0.13930873568083843,14.693106881031888,15.466754491205277,-35.25382437017053
1760598682.057455,-0.8205077986622088,-0.20939113341081864,0.9175054115116068,-0.14130100554196365,12.878529261171456,22.540835276545717,-35.07945849238333
1760598682.067392,-1.3990449078584986,-0.28408667777589924,0.9023712473647418,-0.14552359091838898,11.711423042854424,25.666908179703487,-35.04374287624062
1760598682.077423,-2.0116016881301704,-0.33849142569987734,0.8927818452883249,-0.15115156310522257,11.204932280364414,24.915855744004556,-35.139674443619036
1760598682.0875943,-2.643991051724185,-0.3699501012627317,0.8884436942899374,-0.1573904118519757,11.329565013388926,20.689120466621688,-35.3711986121754
1760598682.0975378,-3.2806699700616813,-0.3778807081616899,0.8886065313138806,-0.16348839356944497,12.019687315377853,13.64585931036437,-35.74225038183027
1760598682.1076233,-3.9061820521613875,-0.3635422240319472,0.8922158554379863,-0.1687464346214205,13.181768394715007,4.61201358934143,-36.24671307691023
1760598682.1173944,-4.506418249910216,-0.32967221127554724,0.8980604099573687,-0.17254088773075205,14.703258460734888,-5.517361127578178,-36.86119636990015
1760598682.1276948,-5.06957897445453,-0.2800667115656154,0.9049044055806026,-0.17436624163408024,16.461090421527086,-15.870829396237424,-37.54202895162506
1760598682.1374178,-5.586788364957912,-0.2191692099184394,0.9115985240518678,-0.17389420901122735,18.32910280175652,-25.678136633968112,-38.227049474878946
1760598682.147535,-6.052382220837051,-0.15171541411112208,0.9171674878242692,-0.17103333036458782,20.1841190304148,-34.32526374205347,-38.84179145254727
1760598682.157613,-6.463944223146349,-0.08245562232808608,0.9208736359810537,-0.16596552013735322,21.91086054397662,-41.38339701410997,-39.30874270291455
1760598682.1676283,-6.82218617220374,-0.015954176056083333,0.9222557270961185,-0.15914175000632402,23.406178373477754,-46.61219771057751,-39.557777046947955
1760598682.1775548,-7.130755900951277,0.04354978162192078,0.9211417452178713,-0.15123714826133505,24.583140673638344,-49.94134172515923,-39.53574041831599
1760598682.1873102,-7.396021675291332,0.09224378027961125,0.9176351557730344,-0.14308273205017616,25.375232536616338,-51.43695572016924,-39.213481250524936
1760598682.197573,-7.626838161083599,0.12683186540438535,0.9120776135133952,-0.13559500788739612,25.740353273237396,-51.260900656083386,-38.58918107510646
1760598682.2076612,-7.834257663635477,0.14463805305937275,0.9049998189736486,-0.1297143912208709,25.663724465863094,-49.63073684131069,-37.687497131214634
1760598682.217692,-8.031120399540786,0.14374178444938746,0.8970831204482109,-0.1263461050879171,25.15866607622405,-46.786815533706104,-36.554672970339716
1760598682.227701,-8.231448473511135,0.12314711535632611,0.8891551380287449,-0.12628782984342699,24.264579387269855,-42.97060923367657,-35.25034390758643
1760598682.2375956,-8.449587171037361,0.08296415160801877,0.8822224261314912,-0.13013953292907499,23.042036320449515,-38.41553375660263,-33.83719516700036
1760598682.2473884,-8.699083169879522,0.02456308214733471,0.8775113750914995,-0.13821400588369667,21.565202438969013,-33.34865466688882,-32.369873516028655
1760598682.2573636,-8.991352831928378,-0.0493439973076428,0.8764703416556655,-0.1504768405004986,19.911943058538867,-27.999388100653007,-30.884612590910997
1760598682.2677128,-9.334262360816286,-0.13473442845564546,0.8806955052593414,-0.16653191410204926,18.152215968252893,-22.610039135979488,-29.39093805014219
1760598682.2773314,-9.730802446808234,-0.22645364705878543,0.8917704799319052,-0.1856480424671851,16.335862211411012,-17.442915081811055,-27.8665858504385
1760598682.2878363,-10.178078033849175,-0.31856224429278396,0.9110358734408925,-0.20681083862454397,14.481405858762669,-12.779702863274444,-26.256393123396006
1760598682.2975981,-10.666833424123066,-0.40484663205083793,0.9393185917942541,-0.22878180335173418,12.56765677231723,-8.910590873199672,-24.475410842421756
1760598682.3073661,-11.181685096627517,-0.47945185544297425,0.9766540835114416,-0.2501489163449151,10.529709640019295,-6.1129690222630115,-22.415881579500876
1760598682.3174772,-11.702140844432499,-0.5375578529181616,1.022038373613694,-0.26936066359189703,8.260438041414073,-4.622073618138464,-19.957120594344627
1760598682.327836,-12.204352109529639,-0.5759926118632803,1.0732586732764022,-0.284752769677059,5.617895331312741,-4.598157780520638,-16.976876769393826
1760598682.3375876,-12.663391307338088,-0.5936654416942915,1.126867017748544,-0.29460004723452815,2.4382793409245838,-6.096169405234483,-13.362576968980694
1760598682.3473752,-13.05570107464744,-0.5917198569971178,1.1783622473910935,-0.2972379202625334,-1.4465823727187428,-9.044179840054959,-9.021052122960587
1760598682.3573258,-13.361283482048483,-0.5733521206723634,1.222612584648987,-0.29127912663112937,-6.188889422875605,-13.23585849692618,-3.885859407603103
1760598682.3677976,-13.565232039685219,-0.5433074957117532,1.254484904778109,-0.27590024178698985,-11.90386610443316,-18.34030433306549,2.0780186739867825
1760598682.3777053,-13.658356489014976,-0.5071292623105773,1.2695752797263524,-0.2511195857618668,-18.650611079717795,-23.929835409809733,8.871733525723918
1760598682.3879592,-13.63685548059573,-0.47027826636740877,1.2648950043756566,-0.21796782002762588,-26.417202664733214,-29.523288006620092,16.461730598592442
1760598682.3977926,-13.501185946005723,-0.4372613129850749,1.2393742834776706,-0.1784737715031063,-35.11193212057848,-34.63948071442939,24.779949985069038
1760598682.407444,-13.254415083946718,-0.41091034121865627,1.1940901477109367,-0.13543516561218633,-44.561819400191666,-38.853331330570214,33.7248965594039
1760598682.4174972,-12.900409207797214,-0.3919411228725578,1.1321820571720254,-0.0920005238085666,-54.51888385820246,-41.84617046042813,43.16380733777353
1760598682.427953,-12.442220310177268,-0.3788859682332771,1.058472954008424,-0.051144943706501196,-64.6740032260858,-43.442354264718546,52.93625507444085
1760598682.437585,-11.880987122064555,-0.3684375430598066,0.9788607695981919,-0.015166016683633548,-74.67741952628236,-43.62635809898642,62.85923362957218
1760598682.4478223,-11.215579929166246,-0.35616279351703467,0.899582045407561,0.014664753965368454,-84.16388443764052,-42.53784564695058,72.73322537589453
1760598682.4576697,-10.44309112888679,-0.33745951728795004,0.8264693320280003,0.038201651940045524,-92.77925215095424,-40.44610087256956,82.34838131047724
1760598682.4674103,-9.560114230529072,-0.30856139543686584,0.7643221976805412,0.056266172197416996,-100.20466031655404,-37.70872591387197,91.49019031877543
1760598682.47757,-8.564584361339021,-0.2673799640972826,0.716486789600243,0.0703089597500762,-106.17502471945505,-34.721725288261446,99.94482625231468
1760598682.487633,-7.4578107672290255,-0.21401075250232576,0.684693337490397,0.08201806397819578,-110.490537465698,-31.868627639068063,107.50510115625569
1760598682.4978507,-6.24625744962891,-0.15080681739637192,0.6691393322878338,0.0929831500809813,-113.02226547424948,-29.475473032288708,113.97799976664933
1760598682.507286,-4.942647276109289,-0.08201076013695434,0.6687408760804703,0.10446602339804559,-113.71425445787476,-27.77693021415562,119.19413564960463
1760598682.5178509,-3.56607831643651,-0.013018860398360782,0.6814355511579822,0.11727056636574398,-112.583900739718,-26.896802662938203,123.01866363972428
1760598682.52778,-2.1410329944585484,0.05058041190901436,0.7044421625489992,0.1316813893107589,-109.72048258932111,-26.84375040619375,125.36260573591632
1760598682.5373704,-0.6954006069273654,0.1040044023784541,0.7344637540531327,0.14745117331364183,-105.28033650943868,-27.520499116475193,126.19320720269256
1760598682.547681,0.7421377977533874,0.14410837344931088,0.7678940740002891,0.16384111592688422,-99.47732925838964,-28.7429127976791,125.54169281733816
1760598682.5576181,2.1448764998109477,0.16988003795426102,0.8010799735507975,0.17972952541829115,-92.56862884800029,-30.26478067182913,123.50664072368238
1760598682.567451,3.49052028845349,0.1824996157445462,0.830616861302036,0.19378928505423149,-84.83709000364209,-31.80496556195568,120.25132994774468
1760598682.57764,4.762920344565283,0.18497106265386073,0.8536018614499481,0.20471225579294533,-76.57215169423208,-33.07483031536888,115.99406474935657
1760598682.587537,5.952911348193265,0.1814305746763284,0.8677905863112201,0.2114469164204241,-68.05126972169435,-33.804626824229096,110.99163862638369
1760598682.597356,7.058218891138045,0.1763047647403142,0.871662179128076,0.21341178964456423,-59.52396685956016,-33.767462758081244,105.51750592524719
1760598682.6074178,8.082549731623958,0.1735047999034658,0.8644359651450855,0.21064169864995916,-51.200381531848535,-32.79898704816825,99.83747331395719
1760598682.617425,9.034081806726197,0.17580838035168142,0.8460810659218615,0.20382266526010873,-43.24532617182795,-30.810731057057854,94.18640435767736
1760598682.6273897,9.92362740731004,0.18451913171972387,0.8173310043907884,0.19418877096959128,-35.77743903973355,-27.795454318234718,88.74929232997194
1760598682.6373842,10.762750105317027,0.1994255535491619,0.7796829151538537,0.1832935197863605,-28.87170567991894,-23.823779113905587,83.64913376383636
1760598682.647499,11.56208062940424,0.21902515352309415,0.7353465343531241,0.1727131587648286,-22.563106592557187,-19.032563342060307,78.94263461372309
1760598682.6576374,12.330011019351483,0.24094152067058086,0.6871214567501102,0.16376372151552987,-16.84964363283792,-13.606562414515617,74.62331569567117
1760598682.667401,13.071864906758268,0.2624434240349954,0.6382125669549876,0.15730194619587032,-11.694264245293581,-7.7557358708220185,70.6304429365116
1760598682.677312,13.789560620624895,0.28097182411506405,0.5920172753455724,0.15364325056665867,-7.0266167542943085,-1.6909441066390019,66.86165367066384
1760598682.687366,14.481716881426179,0.29458881358373273,0.5519158549556997,0.15259306359504346,-2.746368631536987,4.399174157430243,63.18721964416009
1760598682.6973097,15.144105812556308,0.3022791252751176,0.5210749326402849,0.15356757192736734,1.270407834676573,10.367419651828309,59.46439533166321
1760598682.7073443,15.770335567963615,0.3040586208249,0.5022552985379206,0.15577413216712133,5.161266048140339,16.1206226773493,55.55095527633274
1760598682.717482,16.352642301172693,0.3008757683677672,0.4976117562711105,0.1584192930111867,9.064401874103996,21.62295159362815,51.31755784459616
1760598682.7276924,16.882685895549372,0.2943316669118023,0.5084828282869898,0.16090883001412593,13.103942921159984,26.887877403410783,46.65883977405189
1760598682.7376542,17.35227356046631,0.2862854411307649,0.5351826487910264,0.16300375723872554,17.37511933055808,31.95827142540399,41.50317472438951
1760598682.747457,17.753975430295274,0.2784412292787502,0.5768194264685386,0.16490416028664748,21.93103668186754,36.876523882099775,35.82095726579249
1760598682.7576497,18.081637220751542,0.27201719989677253,0.6311731921123945,0.16724806709681256,26.77273264901475,41.64916872705596,29.631189054481155
1760598682.767327,18.330823778732498,0.2675721269954683,0.6946718580279192,0.17102739854178822,31.84389545019063,46.21240909595145,23.006019743155235
1760598682.777611,18.49923356981893,0.26501997524017235,0.7625087085163208,0.1774288310151243,37.03098737856089,50.40559630545538,16.072697881643244
1760598682.7874758,18.58710624817711,0.2638149420864263,0.8289413707182565,0.1876078228107791,42.168802518607286,53.95898562288917,9.012157273309132
1760598682.7976148,18.597610821968207,0.26325322735754164,0.8877944615129391,0.20241402061023853,47.051192967355604,56.500111883332174,2.053264872959507
1760598682.807664,18.537161862348817,0.26281812654353315,0.9331504565588079,0.2221109210674724,51.44695585358852,57.58030467627505,-4.538333439047336
1760598682.8189578,18.415577879481592,0.26248968739418405,0.9601583762624105,0.24615571373628675,55.120985744184175,56.719876857086426,-10.477617483962238
1760598682.8276742,18.245981266351375,0.26294703354731586,0.9658339238318474,0.2731054702491596,57.85986810758601,53.467962474625324,-15.4839288878004
1760598682.8375516,18.044350382624096,0.26560951942737854,0.9496978449348062,0.300687318037457,59.4992164411431,47.470972723162525,-19.30981021327967
1760598682.8476338,17.828670413071546,0.27249054125848565,0.9141229756544079,0.32602305035992735,59.948442891439555,38.54204481387703,-21.772260152782877
1760598682.857627,17.617684414210537,0.2858736781913086,0.8643208291279447,0.3459540720712083,59.20847678261231,26.722776568114867,-22.78260706826086
1760598682.867463,17.429313034116465,0.30786222240620287,0.8079571052948099,0.35739820629275226,57.37938777802623,12.328382356582592,-22.37071568859933
1760598682.8777928,17.27888255057406,0.33988967916444823,0.7544204112090409,0.35769423036690506,54.65709232464963,-4.031414487421888,-20.699387968563258
1760598682.8874526,17.177361364652732,0.3822911625555713,0.7137930027276229,0.3449215071142101,51.32011683459696,-21.460882995568323,-18.06551635265399
1760598682.8973746,17.129835399920896,0.43401109890024514,0.6956084590147482,0.31818273673184694,47.70805188535385,-38.81795060249287,-14.885781536581637
1760598682.907823,17.13443911315069,0.4924737095719158,0.7075281970406214,0.2778127620910813,44.19312581549295,-54.78360331728293,-11.666467925246579
1760598682.9174347,17.18190288092522,0.5536010681367026,0.7541058387421039,0.2254619814824293,41.14612626600603,-67.95720122627708,-8.959164315421543
1760598682.9276915,17.255797023708134,0.6119530476212356,0.835818226859785,0.1640183633352172,38.89839598194225,-76.97218956696334,-7.306417221500139
1760598682.9375472,17.333469594031435,0.6609817974609917,0.948522790485682,0.09736451991808648,37.70291392874561,-80.62504957656336,-7.183436818815688
1760598682.9474044,17.38760230769798,0.6934175034178477,1.0834627634269305,0.029994307868512333,37.699120845574825,-78.00833161705525,-8.94332071231156
1760598682.95757,17.388249362786016,0.7018104684350855,1.2278942285790089,-0.033470644309484696,38.88743899455934,-68.63636062327625,-12.773525161078883
1760598682.9674067,17.305179447800644,0.6792428047842317,1.3663524746388043,-0.0888126857999194,41.11956483225544,-52.55012036008949,-18.670134465214193
1760598682.9773638,17.110318426836432,0.6201975865377363,1.482499556599132,-0.13273176917277066,44.10906963910388,-30.386330480951155,-26.433845926436025
1760598682.9873507,16.780093658487008,0.5215343350535842,1.561388281924877,-0.16326170440739074,47.46374803983553,-3.395405395106076,-35.68799022066862
1760598682.9975312,16.29750622894699,0.38346167361612027,1.5918423009002138,-0.18001384087715883,50.73710691065823,26.605184622332555,-45.91526065798073
1760598683.007555,15.653791597064766,0.21032734357232258,1.5685213794663488,-0.1842029966730433,53.49205557890656,57.35044417546589,-56.50712064955169
1760598683.0176296,14.849557649596733,0.010990938274914382,1.4931834406649265,-0.1784540948451651,55.366058913071264,86.3192989180304,-66.81876310105552
1760598683.0277405,13.89530346804102,-0.20145355970933174,1.374742629351726,-0.16641978766438337,56.1251015690986,110.98417619641903,-76.22315234370299
1760598683.0376325,12.81122599418084,-0.4107478365854928,1.2279765969842744,-0.15225337656354607,55.69525660394202,129.09092583282032,-84.15964645824857
1760598683.0473318,11.626234103159623,-0.5992937212784809,1.0710901329833906,-0.13999955062962788,54.16567070422385,138.92992590473295,-90.17496170906682
1760598683.0576744,10.376137728657422,-0.7504675713644428,0.9226639611316615,-0.13299735137374602,51.76359379467125,139.55480528566392,-93.95561117174977
1760598683.0674834,9.101079526637536,-0.8509737982892941,0.7986800829269439,-0.13340749288864276,48.80803523760396,130.91060724696763,-95.35084540758358
1760598683.0773942,7.842411697831374,-0.8927345229423576,0.7102626227434288,-0.14195229781998336,45.65201746145977,113.84803397860802,-94.38406752634987
1760598683.0876899,6.639344496114198,-0.8739352848584147,0.6625378951408964,-0.15790323063961922,42.624118000535674,90.0207830609145,-91.2499558989803
1760598683.097875,5.5257578061440675,-0.7990891567748264,0.6546951300439122,-0.17930165925388694,39.97884882896753,61.68332626199634,-86.29517791588566
1760598683.1076791,4.527552533632124,-0.6782221446970584,0.6810354500116037,-0.20336613052452435,37.86321218127677,31.42198403023583,-79.98279508957972
1760598683.1174562,3.6608361283403283,-0.5254230815534512,0.7326178634469741,-0.22701231502280678,36.3038526845705,1.8603249486183708,-72.84355257300628
1760598683.1277041,2.9311147950022614,-0.35702917367018905,0.7990739817285835,-0.24738499485123946,35.21569722479691,-24.619588690450545,-65.42015352143017
1760598683.1373744,2.3335308791480114,-0.18969265082638698,0.870238839677109,-0.2622932982952963,34.429164021713305,-46.104989887549685,-58.21239341845053
1760598683.1473923,1.8540551962804597,-0.03855392436073333,0.9373780702939174,-0.27046832092571005,33.72968978451124,-61.305751823220206,-51.63112664328236
1760598683.1575377,1.471433457307915,0.08426231873873588,0.9939301159627647,-0.271617222041829,32.90134658067899,-69.623870172931,-45.96740824723192
1760598683.1678169,1.1596087405352467,0.1706462290319165,1.0357924684407323,-0.26630236516176153,31.766236436860545,-71.14274534842204,-41.38019025203059
1760598683.1775813,0.8903143494134288,0.21690097312243278,1.0612468101823342,-0.255707489131252,30.21312423416221,-66.5495070991481,-37.902394669567265
1760598683.1873975,0.6355597312535842,0.22356396856917216,1.0706380012848415,-0.24136159275277072,28.211775401132353,-57.00882424341855,-35.461968044249886
1760598683.1976292,0.36980417549309136,0.19478295206279952,1.065909162698448,-0.2248805763064389,25.812694916142735,-44.007860315502356,-33.912437488912516
1760598683.2076223,0.07169963327116921,0.13742995612887174,1.0500712716887395,-0.20776390317695295,23.13448040333496,-29.19036968959064,-33.06685967629906
1760598683.2175949,-0.27464743223117694,0.060119267921437014,1.0266679886064707,-0.19125846893818213,20.342399480005724,-14.194837419580766,-32.729702904303146
1760598683.2276747,-0.6789123504262023,-0.0277614396328114,0.9992881268218038,-0.17628497523915138,17.62226028467664,-0.5084553449999878,-32.72266121119412
1760598683.2376037,-1.1442987658606139,-0.11694996973717062,0.9711713732338946,-0.16341622010016582,15.153574752531657,10.653629284128169,-32.90214385637522
1760598683.247626,-1.667804058364189,-0.19910366616002853,0.9449394825447814,-0.1528960063111455,13.085673640817324,18.43612332216645,-33.167792124394715
1760598683.258067,-2.2409870612029943,-0.2674500221297668,0.9224642189049338,-0.14468676975125408,11.519819378783621,22.392709226125184,-33.46263811403606
1760598683.2676382,-2.8511704742208495,-0.317246172106184,0.9048601401874722,-0.1385338395074798,10.499399737645343,22.493421180400578,-33.76644196511288
1760598683.2774212,-3.4829497616310157,-0.3460038099253767,0.8925717815704263,-0.13403542347142253,10.009029783738828,19.09076723055669,-34.084410123376465
1760598683.2876074,-4.119831901145577,-0.35345883441720777,0.8855152107095339,-0.1307086206148115,9.982051731456396,12.849162503356016,-34.43391337093483
1760598683.2974327,-4.745806461987826,-0.34129949126672005,0.8832337958944685,-0.1280414755368601,10.314741695528518,4.646258081345668,-34.83188485513011
1760598683.3073375,-5.346665372177514,-0.31270200407940585,0.8850355212546459,-0.12552072899171604,10.884676289121858,-4.54193818067546,-35.28517633094924
1760598683.3173826,-5.91093625348559,-0.27174972490615723,0.8900922530687855,-0.12263092693417145,11.570246603481863,-13.758224972301283,-35.78530435232982
1760598683.3276649,-6.430368059603669,-0.222825515260798,0.8974978446264816,-0.11883875274853305,12.26824086528808,-22.169440422346128,-36.30792259326764
1760598683.3379917,-6.899989980799361,-0.17006654006900312,0.9062976144287035,-0.11359803583851212,12.906772055974265,-29.14724715142177,-36.81630575207603
1760598683.3476493,-7.317836091311099,-0.11695740708964578,0.9155101250955474,-0.10641288238490432,13.45162102160833,-34.315503804479164,-37.26738276127824
1760598683.3576376,-7.684472771846519,-0.06611274640751276,0.9241596420022303,-0.09696816407400048,13.905209878033288,-37.56013214127779,-37.61855441669104
1760598683.3676775,-8.002474653853028,-0.019266396138591237,0.9313280481298183,-0.08529748084176753,14.298705343937083,-39.00284382593397,-37.833688922531515
1760598683.3775454,-8.27596939017925,0.022552908709201513,0.9362264158913145,-0.07193632389068898,14.678967305314531,-38.94529710194212,-37.887205513618085
1760598683.3878305,-8.510322456156606,0.05871351821328691,0.9382824093573259,-0.058009849013987806,15.093039636238235,-37.79436049794527,-37.76582933722209
1760598683.397607,-8.711974514919282,0.08862020982099056,0.9372367319886353,-0.04522084054584146,15.573411034322396,-35.98145962546315,-37.46819322982536
1760598683.4075541,-8.888388526971063,0.11139286199266907,0.9332361457150137,-0.03572513120694961,16.127109863120808,-33.88910252370173,-37.00280425693465
1760598683.4175866,-9.048021057549944,0.12567172129452875,0.9269036344993509,-0.031903894666783804,16.73079188507993,-31.79567250036678,-36.384956194013704
1760598683.4275272,-9.200209408053539,0.12961279644691567,0.9193623751879408,-0.03606090127217896,17.332555988826538,-29.845869548355907,-35.63305159191495
1760598683.4376311,-9.354870943363354,0.12109497467695302,0.9121922873667199,-0.05008632421861799,17.859610709801924,-28.049452821796073,-34.76464532043034
1760598683.4474218,-9.521948074681577,0.0981074561342951,0.9073072467120341,-0.07513602443487512,18.229487581737615,-26.30602577205714,-33.792450099712894
1760598683.457416,-9.710596771586305,0.05923729947178721,0.906756027195101,-0.11137376987147177,18.361701578392527,-24.44938685424474,-32.72057838127854
1760598683.4676216,-9.928192569971875,0.004148885022876234,0.9124657705345068,-0.15781308778153466,18.18692532811686,-22.30216481358855,-31.54136700467827
1760598683.4775171,-10.179295539967674,-0.0660522324161729,0.9259591600112996,-0.2122811152620344,17.651800843278522,-19.73045483465253,-30.233161151410105
1760598683.4876232,-10.464756206290328,-0.14865341958236986,0.9480850139737523,-0.27151691699964237,16.71896910227619,-16.6889356447104,-28.759404688921876
1760598683.497502,-10.78114621746444,-0.2394112012922646,0.9788065438133327,-0.3314130723959681,15.363165776901688,-13.249094309990108,-27.069316177880403
1760598683.507536,-11.120657198699584,-0.3328738124356601,1.0170895972185994,-0.3874027838295881,13.564996790938878,-9.606182747021014,-25.100314159110955
1760598683.51744,-11.471532727410233,-0.4229173575086396,1.0609211802913228,-0.434971462120379,11.304310539505527,-6.0638805810564795,-22.782144479609016
1760598683.5273519,-11.818995743016538,-0.5034309500190594,1.1074642650198347,-0.4702278910427442,8.555084768890229,-2.9989417839237356,-20.042334068106214
1760598683.5373833,-12.146534157881042,-0.5690627236443317,1.1533242369439594,-0.49042379037578404,5.283489697197856,-0.8110324715649628,-16.812226895704974
1760598683.5476935,-12.437341774766189,-0.6159240357168434,1.1948830756140867,-0.4942979591872702,1.450191471013195,0.13476589396665098,-13.032635764562945
1760598683.5573719,-12.67569551536274,-0.6421390652005506,1.2286633534142202,-0.4821662183934723,-2.983021644739333,-0.43599445655333097,-8.658255038228116
1760598683.567434,-12.84807879056025,-0.648126315465383,1.2517025600475453,-0.45575930681649424,-8.043394801659188,-2.6613699217631264,-3.6604408682257388
1760598683.5775588,-12.943920381505762,-0.6365263151187627,1.2619199852069019,-0.4178750242190591,-13.736243738603829,-6.515058763486289,1.9714361952819712
1760598683.5873756,-12.955892768958634,-0.6117544471551499,1.2584355379070642,-0.37192964411336676,-20.0353879219109,-11.801101702266541,8.229426136387103
1760598683.5973444,-12.879787775820283,-0.5792394975894278,1.2417759976069038,-0.321482114348961,-26.877153966425237,-18.172627456169987,15.08649422040069
1760598683.6073809,-12.714047922962381,-0.5444777741151383,1.2139053680687915,-0.2697895943327203,-34.15912530256705,-25.172160410503498,22.495604375278567
1760598683.6177504,-12.459072676382448,-0.5120746377610566,1.1780455455890309,-0.21944440690528932,-41.743524406220246,-32.28735972743057,30.388389165387945
1760598683.6273131,-12.116439100682193,-0.48495772348638344,1.1382958058889785,-0.1721355955478654,-49.46409311054466,-39.01333362937935,38.67390434997579
1760598683.637718,-11.688177509063154,-0.4639245985581357,1.0990987546872406,-0.12856640404056863,-57.13502181245508,-44.91156838812789,47.23829822738472
1760598683.647265,-11.176225035421181,-0.44762533422789264,1.064629910337039,-0.0885408526685519,-64.5608189796057,-49.65636009803301,55.94620470965725
1760598683.6576643,-10.582144819490354,-0.4329841920284718,1.0382067667197004,-0.05120984825235193,-71.54648427098168,-53.06225357239534,64.64423278072546
1760598683.6682172,-9.907150226656327,-0.4159623295326014,1.021818640478977,-0.01543875860431906,-77.90741526848086,-55.0897724409832,73.16625429558738
1760598683.6776974,-9.152419921034014,-0.39248918064453014,1.0158659037847733,0.019777479001532476,-83.47812058315385,-55.830761652016996,81.3396579813523
1760598683.688019,-8.319638724233318,-0.35936463203538294,1.0191623579040459,0.05495784805676305,-88.11860509072152,-55.47799554237476,88.99166088649052
1760598683.6974025,-7.411657821540482,-0.31495805130821386,1.0292015175374982,0.08994572804456691,-91.71777517221041,-54.28571299953507,95.95516419924411
1760598683.7074893,-6.433141777952935,-0.2595860546221258,1.0426296509257942,0.1239472397025242,-94.19418631778107,-52.52831758108644,102.0742044083477
1760598683.7178414,-5.3910637712159355,-0.19551401034974666,1.0558197130107954,0.15577300014208,-95.49518985516418,-50.46379139321728,107.20944498567445
1760598683.7278407,-4.29492754291555,-0.12658519162996593,1.0654144832187775,0.1841801810480648,-95.59561172035664,-48.30659261055746,111.24424105807581
1760598683.7373555,-3.1566347210799917,-0.05754180548374281,1.0687230341160827,0.2081865852516646,-94.49671793570958,-46.21219094215868,114.09159520071927
1760598683.7478333,-1.9899747394827167,0.006834463062274084,1.0639204695976199,0.22726522795558374,-92.22578536319388,-44.27253085157949,115.70182679159393
1760598683.7573643,-0.809782817169421,0.06258536745962268,1.0500844646165757,0.24138996922352554,-88.83631500882045,-42.51949837539232,116.07006968461944
1760598683.767638,0.3691225136283386,0.1072542564951181,1.0271431079994926,0.250948848775773,-84.40874377252601,-40.932679304434544,115.24200508052247
1760598683.7774734,1.5330610808464717,0.140229585214962,0.9957833318949553,0.2565651008461124,-79.05117351731937,-39.44848933856372,113.31585890967466
1760598683.7875288,2.670490250499975,0.16268449959658343,0.9573225099347499,0.25888261716362043,-72.89906347839397,-37.96948377517349,110.43893910463719
1760598683.7976954,3.772716187189666,0.17714475214439265,0.913534058500183,0.25838492180756367,-66.11247857492178,-36.37418968878727,106.79792901074849
1760598683.8077056,4.834203528478326,0.186809487711086,0.8664433270343866,0.2553081704108257,-58.86995333749425,-34.528292627021,102.60354600949775
1760598683.8173854,5.852446590348542,0.19480304695209194,0.818132765334547,0.24967277997968781,-51.35926128201411,-32.2974534422985,98.07154796051013
1760598683.8278332,6.827449196750892,0.20353609650453153,0.7705894854206318,0.24141178608409744,-43.76656237566809,-29.561090427173404,93.4029579656992
1760598683.8373888,7.760930954223304,0.21430744522221531,0.7256039724327986,0.23054188210286303,-36.26576176574712,-26.22575862325242,88.76653918179449
1760598683.8474598,8.655418940848207,0.22720502123046918,0.6847086776057777,0.2173181979876222,-29.00941059457037,-22.236481528797572,84.2860211589228
1760598683.857656,9.513387788531151,0.24128925536408313,0.6491405574505583,0.20233056338760105,-22.12168175446459,-17.584457220497494,80.03356129981756
1760598683.868234,10.336579845498026,0.2549813736463057,0.6198188427928041,0.1865230603225548,-15.693392640790924,-12.30991194129918,76.029685057492
1760598683.8773937,11.125581248986675,0.266542628279801,0.5973378786970296,0.17114080867185197,-9.77885400147405,-6.499543283470222,72.24878447733447
1760598683.8873565,11.879667442683605,0.2745246673838369,0.5819759888907654,0.15762467336005168,-4.39440646321592,-0.2789549504167136,68.62845804588353
1760598683.8973637,12.596881367901865,0.2780964901938276,0.5737163231296638,0.1474811678509136,0.481194583289666,6.1984905497088905,65.08072769998475
1760598683.9074254,13.27427868020192,0.27719870345078507,0.5722727311521314,0.14214807197874454,4.903988601088199,12.764232546773298,61.50345513089553
1760598683.9174619,13.908265946048123,0.2725226162189589,0.5771159478208763,0.14286361544291684,8.9588749836588,19.24608629654374,57.790902190840804
1760598683.9274805,14.494964852543102,0.2653463213316563,0.5874985850264258,0.15054178483143696,12.750083237631944,25.47669565154207,53.84307887661672
1760598683.9375994,15.03055356420859,0.2572791492878091,0.6024777595586356,0.16566257884363805,16.388263981635586,31.29735116611418,49.574086261947386
1760598683.9474983,15.511561055430368,0.2499727030782169,0.6209322666866717,0.1881950422454853,19.975143584867077,36.556547965364764,44.9199585705395
1760598683.9577842,15.935115599027778,0.2448543325676988,0.6415704089876411,0.21757173030895738,23.587264793432443,41.10376255269626,39.84646121990127
1760598683.9676995,16.299167838375872,0.24292973392954714,0.6629279625051729,0.25272363482920096,27.260761374325888,44.780115079888375,34.35689920500663
1760598683.9776208,16.602716438479995,0.24468708913651793,0.6833646383898991,0.29216960466912584,30.979403459723052,47.408616019711424,28.499335870184083
1760598683.9878771,16.846057027315755,0.25011611339717676,0.7010807331849737,0.3341386383663304,34.66819987441476,48.78736553572539,22.371925378133383
1760598683.997453,17.03105306412323,0.25883222641082765,0.7141880817993879,0.37669216725826526,38.19455630510632,48.6892383484052,16.124558840527094
1760598684.0075397,17.161395614129574,0.27027347439236005,0.7208708983153861,0.4178165955374329,41.3783953113449,46.87108735806707,9.954909347408606
1760598684.017724,17.24278911373732,0.28392300200828857,0.7196524127021398,0.45547899974581874,44.01167573008725,43.09424338569736,4.097364748200906
1760598684.0276253,17.28298581651639,0.29950688335037123,0.7097413251931787,0.4876658471305865,45.88611587100481,37.156215691528104,-1.1957081856098055
1760598684.0375657,17.291600949352954,0.31712497968409165,0.691384653995909,0.5124314353458268,46.82573683093877,28.931284177498284,-5.679550751836055
1760598684.0474153,17.27967043535824,0.3372869541030484,0.6661290423045158,0.5279663493991703,46.71909660003123,18.415410691172156,-9.147153742937972
1760598684.0586429,17.258950563678926,0.3608416054587093,0.636910285657984,0.5326783737927183,45.54586940323653,5.7690522398376745,-11.46041935737036
1760598684.067421,17.240992189480256,0.38880400428999523,0.607942914465993,0.5252769410182663,43.39373441244047,-8.649316958139297,-12.578024316713508
1760598684.0776513,17.23604987971782,0.42210361882510256,0.5844332399621232,0.5048639377315937,40.46333565879905,-24.265504177232515,-12.575441123283726
1760598684.0876763,17.251915145237085,0.4612924352799059,0.5721558646352242,0.47104159890292085,37.0603703440804,-40.29240878145217,-11.653039045623695
1760598684.0976737,17.29279151972687,0.5062526574226756,0.5769184892509758,0.42403866627953,33.57450150561503,-55.75570765697367,-10.1294147690292
1760598684.1078355,17.358346722760118,0.5559302546256465,0.6039280162934088,0.3648346173076225,30.445366070214963,-69.54258649222291,-8.418969477912436
1760598684.1176515,17.443075146665464,0.6081131953048869,0.6570835000980737,0.29524895528625034,28.117163549179644,-80.47189912213062,-6.994950662880015
1760598684.1274805,17.536082968074176,0.6592844998031754,0.7382492827051725,0.21796662144940132,26.98538518608623,-87.38265063220317,-6.341381065687878
1760598684.1374617,17.621371861567017,0.7046006736121745,0.8465898176823603,0.13647960833614664,27.341735783697434,-89.23621221632821,-6.899225456572978
1760598684.1475024,17.678648880186756,0.7380564112563684,0.9780704193311716,0.054928170816429825,29.32529268747304,-85.22588231795542,-9.013521962988628
1760598684.1578205,17.684634391204728,0.7528843149023622,1.1252432650217037,-0.022173053209724358,32.88845378973635,-74.88519937320906,-12.888690951759543
1760598684.1675677,17.6147834322462,0.7422041895882031,1.2774419057494788,-0.09032740510361163,37.784757239967504,-58.18402169804437,-18.55852646630589
1760598684.1776514,17.445285536705054,0.6998915210856509,1.421492938261828,-0.14554356032835214,43.5825862876329,-35.59942548377752,-25.875406783472865
1760598684.1873527,17.155171664004392,0.6215897428290871,1.5430052687832039,-0.18485691303691104,49.70505449765445,-8.147766055964421,-34.52032788839292
1760598684.1973991,16.728340715855996,0.505745648613878,1.6281966171821356,-0.2067950867579623,55.4927746013764,22.63445003757634,-44.03210915123402
1760598684.207646,16.155323427005168,0.3544991336283155,1.6660591680928312,-0.2116977084015236,60.2829478914881,54.76953534615352,-53.85134863560701
1760598684.2204704,15.434623116045197,0.17421883595275395,1.6504841087698219,-0.2018277183737801,63.495187410039186,85.97987626017877,-63.37301734384417
1760598684.2271855,14.57350166854712,-0.02452873538582606,1.5818326601359791,-0.1812392352941937,64.71198034240186,113.88519264127362,-72.00115404603099
1760598684.2376115,13.5881060650615,-0.2277283891135843,1.4674497881839466,-0.15537740698656424,63.7406910673768,136.2388927488298,-79.19986841754863
