timestamp,angle,linear_acceleration_x,linear_acceleration_y,linear_acceleration_z,angular_velocity_x,angular_velocity_y,angular_velocity_z
1760959294.708295,1.368312353654623,0.04640271409395979,0.9718229868892859,-0.1824201711702001,2.092067697574407,0.5053813507902907,10.70875607712421
1760959294.7184932,1.501753714008241,0.03620747240751006,0.9692872923401372,-0.1837021805333055,1.5698483286684441,1.8944155196690065,10.411095921251924
1760959294.7283738,1.595415684350217,0.02355131217639445,0.966969987950598,-0.18418903628495303,1.0590002087471861,3.3083278744835143,10.063225632880492
1760959294.7384186,1.6475760677154998,0.00928976677787256,0.9649967357655189,-0.18385734786019076,0.5860382502850152,4.653557332517214,9.715677367998055
1760959294.7483363,1.6592618463480622,-0.005607197210755503,0.9634348670832306,-0.18275954755782498,0.1713605675128552,5.845076031986828,9.41038824557465
1760959294.7586427,1.63403950462005,-0.020138417825774663,0.9623005514396856,-0.18101764087750136,-0.1722878614958775,6.814032456641686,9.178196886082185
1760959294.7683706,1.577620745782103,-0.033362074169854955,0.9615714488565885,-0.17880827880524477,-0.4399977745178422,7.513799203488318,9.038185441683854
1760959294.778419,1.4973132931426163,-0.044482198142707575,0.9612012348775,-0.17634028134839308,-0.6337748490998338,7.923851138877219,8.998449129662314
1760959294.7885797,1.4013686030440162,-0.05291724333970059,0.9611320600021727,-0.17382659230233122,-0.7609757534113482,8.051054669938182,9.057722305726072
1760959294.7985725,1.2982961544233118,-0.058339101407929375,0.9613024681085839,-0.17145422025096,-0.8325966370001657,7.928199277227149,9.207327605367498
1760959294.8083434,1.19621886489556,-0.06067780511909941,0.9616503429390312,-0.1693576008475094,-0.8618030500899095,7.609929309695717,9.433081204359379
1760959294.818488,1.1023337104869926,-0.06009528831026741,0.9621120175041371,-0.1676014052098104,-0.8629016725011283,7.166573175312486,9.716998830089288
1760959294.828247,1.0225193911220212,-0.05693779065427957,0.9626197862946796,-0.16617731984782425,-0.8507519126845521,6.676628903761052,10.038821339670346
1760959294.8382494,0.9611057188843327,-0.051679138353595694,0.9631007314163387,-0.16501634338679955,-0.8404601536744182,6.218782670158129,10.377462530041337
1760959294.8484,0.9207947892121868,-0.04486602991309377,0.9634794872394009,-0.1640146736621459,-0.8471239614247595,5.864301613952213,10.712472209115614
1760959294.8583405,0.9027074070287282,-0.03707269116267915,0.9636861673761014,-0.16306798464680108,-0.8853981754007174,5.670494727414121,11.025539802531167
1760959294.8683043,0.9065216702403124,-0.028867517118899406,0.9636687568213148,-0.1621064446867649,-0.9687227437990249,5.675731088662749,11.301981092990781
1760959294.8783975,0.9306732018768417,-0.020789968324582207,0.9634075007982575,-0.16112199741386135,-1.1081632997413644,5.89629029739515,11.53208530259045
1760959294.8885486,0.9725957905989612,-0.013332854794837295,0.9629275237812794,-0.16018077496904462,-1.310947792633696,6.325128532007952,11.712168681982257
1760959294.898351,1.0289933160313338,-0.006923859547129276,0.9623053728607541,-0.15941684422145658,-1.5789108491901982,6.932494897630837,11.845184965332573
1760959294.9082668,1.096143806310486,-0.001901234543482363,0.9616660257521771,-0.15900790339969714,-1.907155326964306,7.668234978537303,11.940772744647742
1760959294.9183066,1.1702398311848,0.0015181756083773867,0.9611696477490678,-0.1591379244725958,-2.2832824389480795,8.465569049732759,12.014666570854548
1760959294.9282882,1.2477647090939201,0.0032763299128148993,0.960991203970433,-0.15995502614257323,-2.6875078798642464,9.24611821261147,12.087460056713853
1760959294.938484,1.32589336653043,0.0035111138026975176,0.9612985951294589,-0.16153413244854897,-3.093863743959321,9.925950573468667,12.182781998451702
1760959294.9483254,1.4028937332048719,0.0025853744342977138,0.9622344329979237,-0.16385258099224811,-3.472496651755534,10.422400894501102,12.325017790935956
1760959294.958454,1.478491915851844,0.0010990575664897595,0.9639035595424086,-0.16678303357510413,-3.792847866183764,10.661353404954856,12.536759029611504
1760959294.9685006,1.5541536999540333,-0.00012433039208765856,0.9663654229505338,-0.17010340798345552,-4.027299248334109,10.584568169466378,12.836182902816192
1760959294.9785962,1.633228320374604,-8.416030069749217e-05,0.9696294027230253,-0.17352021477822974,-4.154751770000184,10.156508376210516,13.234556952006352
1760959294.9882302,1.7209013423197386,0.0023144875982262355,0.9736523339285542,-0.17670050429327028,-4.163608734154443,9.370026027311303,13.734051940291451
1760959294.9983654,1.8239154757754505,0.008144090741548291,0.9783397111685501,-0.1793077429052275,-4.053757123328698,8.250210212592096,14.326037137087686
1760959295.0083191,1.950042380824289,0.01831372242749304,0.9835537633652098,-0.1810372063929734,-3.837331215438834,6.855719399578297,14.990027708042348
1760959295.0182698,2.1073222483856475,0.03342007763190052,0.9891314071745552,-0.1816465853632262,-3.5382428787239144,5.277040734766801,15.693447796462587
1760959295.028325,2.3031257507943286,0.05361121435696372,0.9949123954591625,-0.18097762648412588,-3.1906283935868323,3.6313683322439796,16.39235402018018
1760959295.0383117,2.5431292280468574,0.07848581444279368,1.0007733167784452,-0.17896505479912983,-2.8364773516805073,2.054156946446237,17.033210239465394
1760959295.0484126,2.8303233914299084,0.10705010175012021,1.0066585290909404,-0.1756302343365475,-2.5227793153301272,0.6878398523352948,17.55569931811024
1760959295.0588639,3.164192388278577,0.13775008072044517,1.0125975299205021,-0.17105956910167108,-2.298545577074403,-0.33135896773102774,17.896419293461758
1760959295.0683026,3.540198132687141,0.16858771334179667,1.018700948188523,-0.16537129777902657,-2.2120142623355536,-0.8871940663238758,17.993190843343573
1760959295.0786598,3.949680869351307,0.1973165448931261,1.0251326990714447,-0.15867784380838587,-2.30821022115565,-0.8961480012638268,17.78964423548962
1760959295.0883787,4.380238857530663,0.2216961349666382,1.0320617763515094,-0.15105281578194643,-2.626839176391448,-0.3174879012111767,17.239753933559307
1760959295.098531,4.816579514392797,0.2397683697897925,1.0396026528473559,-0.14251103772607981,-3.200341412455599,0.8408520426343492,16.311999841222963
1760959295.1086454,5.24175461395721,0.250109286526903,1.0477567780784764,-0.13300614625790938,-4.051912850017218,2.5215957073158184,14.99281323994517
1760959295.118323,5.638626254701116,0.25201350769465747,1.0563674210155158,-0.12244452643878181,-5.193445864959485,4.623049330456728,13.288922484512401
1760959295.128231,5.991375583395001,0.2455828632736993,1.065096915954644,-0.11070954117013014,-6.623575366637791,7.009268383295277,11.228202506589898
1760959295.13833,6.286864821614326,0.23170884257956584,1.0734320926061403,-0.09768833775309994,-8.326217886213865,9.524365270060162,8.85870716799903
1760959295.148609,6.515688416445728,0.21195489327041087,1.0807213794573287,-0.08329509914297199,-10.270068814651665,12.009241151531313,6.245743457316111
1760959295.1583617,6.672794778760926,0.18835793911116985,1.0862438616524266,-0.06748823542405974,-12.409444006634686,14.318659449665859,3.467097996763867
1760959295.1684065,6.757620235083369,0.16317823660250888,1.0893046655056455,-0.05028290375156337,-14.68664469517444,16.33652025453793,0.606775009129154
1760959295.1783895,6.773742437532843,0.13863164041564818,1.0893435282911872,-0.03176261235893199,-17.035750196210536,17.987422936475486,-2.2522090455509636
1760959295.188406,6.728120246299756,0.11663828173436824,1.0860369335825415,-0.012093583232458795,-19.387463903095988,19.243067447957383,-5.035305971050278
1760959295.1983612,6.630032675261653,0.09861800441011223,1.0793707006475994,0.008456860929378134,-21.674405776047006,20.122696398201416,-7.683437110252711
1760959295.208425,6.489857823732853,0.08535689703534317,1.0696618397785242,0.029500437359911303,-23.836110620309274,20.687557067926694,-10.158722400142118
1760959295.2184067,6.317843717950381,0.07696073435298204,1.0575190312351823,0.05051276766870899,-25.823007440657157,21.030174640198513,-12.448195795283496
1760959295.228387,6.123016777199307,0.07289963304638183,1.0437491590072194,0.07083135416416814,-27.598837538547187,21.2599658365345,-14.5649275157144
1760959295.2385132,5.912349866345352,0.07213434923143948,1.0292345533685452,0.0896755638146834,-29.14127131717897,21.4872572797812,-16.546233998721334
1760959295.2487903,5.690271011385638,0.07330047504563099,1.0148128106604564,0.1061962913311653,-30.440806977689412,21.807979627346647,-18.44899475626414
1760959295.2583895,5.45853975849021,0.07491606092708675,1.0011863373461938,0.11955950248020256,-31.498270772130795,22.291115325816463,-20.342475842990822
1760959295.2684565,5.216460825918952,0.07557573444674315,0.9888765732968089,0.12906101632066477,-32.321338298339235,22.970402352175515,-22.299423678377604
1760959295.2786028,4.961358715198695,0.07410319828857914,0.9782234790194277,0.13425780449126737,-32.92050125015382,23.840959645478435,-24.386471353398285
1760959295.2885394,4.689214317121373,0.06965100260775639,0.9694185320629022,0.1350848667644747,-33.30489869044291,24.86061974841004,-26.655022375281213
1760959295.298613,4.395366643135123,0.061752406418158504,0.9625524658451481,0.13191585572745793,-33.47846867900202,25.95507667771256,-29.13369797592826
1760959295.3083408,4.075199976440606,0.05033636834317615,0.9576585363722154,0.12553334227879528,-33.43694552000605,27.02564431792442,-31.82317404131402
1760959295.3184726,3.724756766426645,0.035712914250046884,0.9547373688976185,0.11700356917119624,-33.1662624111746,27.958480146730633,-34.69388146102836
1760959295.3283842,3.3412331284557815,0.01852943976485031,0.9537584367549842,0.10748620748944374,-32.6428263985899,28.63442547169689,-37.68669749555555
1760959295.3385212,2.9233270813530647,-0.00030432050803278046,0.9546425806473418,0.09803201547367976,-31.835873978900516,28.938936635748263,-40.716469938957474
1760959295.3486245,2.471421969875956,-0.019722149844455306,0.9572359833571886,0.08942140884935944,-30.711758658074867,28.771746329126707,-43.678007319834315
1760959295.3585024,1.9876002039766159,-0.03863050967602408,0.961287063853122,0.08207922203342326,-29.23968640155252,28.05583318355621,-46.45403375368593
1760959295.368491,1.4754957186525273,-0.056045243654681644,0.9664347518367385,0.07607501990187712,-27.398187295215898,26.745068792195163,-48.924510380080925
1760959295.3786144,0.9400068646783694,-0.0712156405205949,0.972212369091922,0.07119481373409708,-25.181518505208185,24.82970986808244,-50.976613796608525
1760959295.388469,0.3869038483959651,-0.08371772559085153,0.9780686011280934,0.06705724678788016,-22.60521761888416,22.33884209015051,-52.51452673724092
1760959295.3986807,-0.17762426035293283,-0.09350343396800544,0.9834047762611995,0.06324492331468105,-19.7101171761542,19.339022891328774,-53.46809587648139
1760959295.4087296,-0.747429359555442,-0.1008955781244504,0.9876233041479148,0.05942339982713414,-16.564231565197428,15.928729192598869,-53.79941854125594
1760959295.4182987,-1.316813471949967,-0.10652236111047539,0.9901779941880507,0.05542476643466664,-13.262012521662353,12.228788692877957,-53.506560927234
1760959295.4286072,-1.880833759357163,-0.11119397890008453,0.9906176717970798,0.05128226865458941,-9.920578260766927,8.369705728119184,-52.62387128528494
1760959295.4385407,-2.4354640670513383,-0.11573731477430148,0.9886189188807472,0.047215561919202946,-6.672733198251139,4.4775487328452925,-51.21871624897623
1760959295.448531,-2.9775973785358407,-0.12081828543188541,0.9840074490053046,0.04357750297356833,-3.656969229047211,0.6606379018020169,-49.38491620293804
1760959295.4586194,-3.5049036519736805,-0.12678985299975243,0.9767700410983806,0.040779573913035744,-1.005159989105704,-3.000575582467449,-47.2336294029971
1760959295.4686265,-4.015588601528904,-0.13360315921528287,0.9670612993178385,0.0392140244516135,1.1707681913973937,-6.458467769018286,-44.882839108256576
1760959295.4785388,-4.508123881174378,-0.14080820164442218,0.955209470152167,0.03918765120740318,2.791423788286141,-9.69700976120167,-42.44683374850618
1760959295.4884732,-4.981029840515994,-0.14765061888492798,0.9417199376013894,0.040877288254873655,3.8198009364174337,-12.724530880255955,-40.02707271544429
1760959295.4985013,-5.432782194596804,-0.1532470370449526,0.9272659663177673,0.044313679593700604,4.2665467741806875,-15.561831809635477,-37.70559053108768
1760959295.50853,-5.8618824566344845,-0.156799876293307,0.9126517029760572,0.049398172267474776,4.189366524953623,-18.227878959726997,-35.541654223171165
1760959295.518471,-6.267086145360105,-0.15780096464807014,0.8987387928146272,0.0559515713927981,3.6862190413240565,-20.725758244696767,-33.57184412140446
1760959295.5283773,-6.6477376524413545,-0.15617650603057498,0.886342735591488,0.06378469419400039,2.8830958942225955,-23.031532378734248,-31.813198960215548
1760959295.538366,-7.004131904302267,-0.15234270946513587,0.8761188139622964,0.07277021196300373,1.918261049089581,-25.088130277670444,-30.268656498980647
1760959295.5485904,-7.337817709576423,-0.1471645335446784,0.8684622385480635,0.08289238839102707,0.925535374350891,-26.80546100666189,-28.93377483891223
1760959295.5585322,-7.651772327574802,-0.14183109535001978,0.8634427349807671,0.09425750775331834,0.019313120480940218,-28.066758664422192,-27.803630317420666
1760959295.5683627,-7.950403331562757,-0.13767618764930514,0.8607862776921162,0.10705872138764021,-0.7165173606111095,-28.740016279070563,-26.87882935188062
1760959295.5783527,-8.239366148928656,-0.13598093620481627,0.8599112870522928,0.12149951900792327,-1.234506599927376,-28.69255673286161,-26.169718804586914
1760959295.5883098,-8.525218993969208,-0.13779691839252317,0.8600206977812,0.1376890155370338,-1.5242214975775128,-27.80647767825003,-25.698118302016944
1760959295.5984843,-8.814964967590454,-0.1438196492108396,0.8602385715931397,0.15553066212887215,-1.6081198963783625,-25.9928667069533,-25.49621560510129
1760959295.6084847,-9.11554702886756,-0.15432577851304508,0.8597623194252425,0.17463133145320708,-1.5339210303477309,-23.20317213063036,-25.602627214759195
1760959295.6184013,-9.433361353149381,-0.16916964480860808,0.8579907384104053,0.19425429501668545,-1.3648674524826931,-19.436775363543298,-26.055973872738015
1760959295.628461,-9.773838747094844,-0.1878229372548007,0.8545933651407288,0.21332589919953662,-1.1691645372796633,-14.744515759463699,-26.886608776312567
1760959295.638463,-10.141117577052242,-0.20943800854334343,0.8495067574396507,0.23048918436463364,-1.009607781945706,-9.228564432632634,-28.10735893795889
1760959295.6484525,-10.537804878212473,-0.23292035679037415,0.8428684531550487,0.24418945804172912,-0.9341748864135807,-3.0395062604294645,-29.70432034953571
1760959295.6582894,-10.964805785264051,-0.25700574831876655,0.8349180791431491,0.25278203329990134,-0.9683008485401069,3.6283617664105465,-31.628896093689413
1760959295.66855,-11.421201518793266,-0.28034701025297987,0.8259003039575378,0.2546656096543384,-1.109612618154404,10.542714228905151,-33.79234735523795
1760959295.6784728,-11.904171435822697,-0.30161948107670933,0.8159963447932245,0.2484540564844053,-1.32590517781824,17.439531182406633,-36.06406811460866
1760959295.6887968,-12.40897600355192,-0.31964960473966986,0.805296381022438,0.23319322133506779,-1.556970886780934,24.030326981716787,-38.27453971628193
1760959295.698698,-12.92903212998532,-0.3335587356171741,0.7938132435841803,0.20860526659742043,-1.720521694262507,30.01105628635414,-40.22347471790001
1760959295.7084498,-13.45611073670159,-0.3428985711631987,0.7815325734141677,0.1753118976738726,-1.7218873352435518,35.07382639861895,-41.69306005997883
1760959295.718551,-13.980668627155707,-0.3477436353633485,0.7684937407504409,0.1349677360569904,-1.466489369694789,38.92250151712297,-42.465499066815035
1760959295.728505,-14.492301405001212,-0.3487072557626544,0.7548934015885423,0.09023962495554196,-0.8734248502493622,41.29266162584753,-42.34330824974878
1760959295.7386627,-14.98028332973133,-0.34686222775716863,0.741196919287494,0.04459896767079273,0.1119522390948759,41.97515453452638,-41.17019597737657
1760959295.7486749,-15.434150121860391,-0.3435697665179152,0.7282349237266554,0.0019408013511448198,1.5086404382780216,40.84093270239204,-38.84998225806092
1760959295.7584894,-15.844279420705668,-0.3402413551851639,0.7172578419125208,-0.03391299632785765,3.2956441666185636,37.86354437028315,-35.36098146208341
1760959295.7683165,-16.202424879399995,-0.33807280907613346,0.709922663277737,-0.05974046017416573,5.413786004834805,33.13509807341044,-30.763585340418107
1760959295.7785976,-16.50216112026667,-0.33779775022016995,0.7081939120319144,-0.07338121323374071,7.773707217230279,26.871976615960225,-25.19947492318138
1760959295.7885692,-16.739199050876998,-0.3395079297869921,0.7141551584552933,-0.074049724937273,10.268807813586564,19.40790308370087,-18.881943476148138
1760959295.7984762,-16.911536099605094,-0.3425789359518263,0.7297474722208483,-0.06244637189933301,12.79068070461904,11.17379437692244,-12.078103841588101
1760959295.8085222,-17.019414885472234,-0.345722494969514,0.7564711861058215,-0.040650062645276826,15.24381799886536,2.6657566198948284,-5.085033493678872
1760959295.8183966,-17.06507799377885,-0.3471645626678823,0.7950964499491445,-0.011810870463596492,17.556292508872858,-5.5957424505007864,1.7970866827501513
1760959295.828437,-17.052327938799205,-0.344926582645693,0.8454206913961368,0.020311857297819626,19.683824323041964,-13.111210187119994,8.29122606270857
1760959295.8386319,-16.98593021371853,-0.3371684093225448,0.906096672373261,0.05189914170933506,21.605997557930507,-19.44689340666062,14.16552028413445
1760959295.848544,-16.8709282415947,-0.3225354192353973,0.9745486419551341,0.0796236890869367,23.315179604775135,-24.27375159190995,19.24803644424085
1760959295.8585365,-16.711962720037455,-0.3004413343334318,1.0470001926539558,0.10110196303013348,24.8006965854365,-27.395940627635902,23.432552501498975
1760959295.8690665,-16.512695760236266,-0.2712198709315623,1.11864827054897,0.11514763371752756,26.03273336535634,-28.765200964111745,26.67542465883741
1760959295.878475,-16.27542802527384,-0.23610048048433685,1.1840226706563184,0.12175822021371602,26.951707727605825,-28.479110913983583,28.985615499227414
1760959295.8884516,-16.00096760904324,-0.1970060124155713,1.2375553267645825,0.12182960274417477,27.46870213499179,-26.763110145294814,30.41158014250554
1760959295.8985794,-15.688772789447295,-0.15622152112156878,1.2743337374803274,0.11667312429608578,27.48020541562794,-23.938339933301478,31.029318941712454
1760959295.9085963,-15.337357179785105,-0.11602493188703955,1.2909289347168746,0.10748087177324166,26.89599480151978,-20.379388727960123,30.935112832764613
1760959295.918487,-14.94491780974431,-0.07838447910103197,1.2861043186984022,0.09491720580145217,25.673776241615037,-16.467634216121784,30.244356020936458
1760959295.9285629,-14.510120596096803,-0.044804794626823866,1.2611843871649184,0.07898611625892235,23.850313741270046,-12.546796389392423,29.09510137813759
1760959295.9386468,-14.032948768565438,-0.0163445074371752,1.2199310719800112,0.05923117643766075,21.558107347129134,-8.887417670176639,27.652461013484658
1760959295.9484308,-13.515485325958249,0.006248112321629241,1.1679218842255816,0.03519588811516698,19.019938006552394,-5.665999826482841,26.1089761070093
1760959295.9584627,-12.962464918477577,0.022391438874488575,1.1115787518604274,0.0069620037300386056,16.519897479594665,-2.96208830077324,24.677093450712682
1760959295.9687607,-12.38141425197109,0.03162825182668871,1.057089539012648,-0.024453779624075935,14.356637072022824,-0.7727903543817498,23.57257255413545
1760959295.9785428,-11.782239261688513,0.033730368679201504,1.0094693007409365,-0.05700806949626849,12.78988825277443,0.959953932670049,22.990820590890113
1760959295.988571,-11.176238685866013,0.02890316102742911,0.9719420049180765,-0.08788632830753135,11.993033339396439,2.3169845372461437,23.080616737042014
1760959295.9983468,-10.574706563898244,0.017977381526268606,0.9457214141604219,-0.11402349956625603,12.022390952013494,3.3726144199189676,23.920778428914
1760959296.0084121,-9.98745213823021,0.0024729379430360595,0.930168333117697,-0.13273155642143836,12.8090934039603,4.174708776688946,25.504900656085443
1760959296.0186026,-9.42162462300986,-0.01552553542304302,0.9232279108627114,-0.14226376698921647,14.173761762043245,4.737112365449758,27.737576686640686
1760959296.0284586,-8.881147750510811,-0.03366414234114321,0.9220180600153683,-0.14218225882639468,15.859277254542269,5.043909698450846,30.443005565080107
1760959296.0384796,-8.366887221780996,-0.049709209260426025,0.9234458362250718,-0.13345748856446776,17.573890896509774,5.062364444279013,33.38435651193349
1760959296.0483456,-7.8774742122873525,-0.06193256586198651,0.9247581235643691,-0.11829476573102378,19.036067987893325,4.759992467749985,36.29039951743798
1760959296.0587556,-7.4105571240929775,-0.06940804705602077,0.9239653978190806,-0.09973910426177099,20.013522343122013,4.121075720481594,38.88511279236945
1760959296.0686793,-6.964179652182084,-0.07216363298371362,0.9200983501690764,-0.08114866072861548,20.351143416535848,3.1587968401248347,40.916212703221284
1760959296.078482,-6.537981196653637,-0.0711617676141941,0.9132708051693211,-0.06564796454368177,19.98516934619773,1.9206822965832806,42.17946785299729
1760959296.0886059,-6.133968447439,-0.06810606072141762,0.90454371337322,-0.05567109951425411,18.94340662659335,0.4866973762743466,42.53679956343812
1760959296.0986376,-5.756697781052455,-0.06510167123206327,0.8956190338172126,-0.052674865169163,17.33324417400608,-1.039269189803954,41.9271997073545
1760959296.1084142,-5.412821383315179,-0.06422889662778582,0.8884284803045498,-0.05704868167022336,15.320598368879562,-2.542792316822472,40.37028459168865
1760959296.118423,-5.110068093814155,-0.06711456278169854,0.8847060851582433,-0.06819710590332159,13.103757998033862,-3.9147396143910442,37.96287150798027
1760959296.1284156,-4.8558333610505695,-0.07459126415237602,0.8856350089367584,-0.08474467021481771,10.886328119478327,-5.066725670605738,34.86938075629076
1760959296.1384997,-4.655624041562275,-0.08651542115705654,0.8916349158823781,-0.10480924640589011,8.853071842509996,-5.943474064301976,31.307179220069543
1760959296.148624,-4.511631345656962,-0.10177699614717232,0.9023153062920116,-0.12629420222539045,7.151516769857141,-6.530060953931287,27.528216474371813
1760959296.158513,-4.4216845633453765,-0.11848875951844273,0.9165794570066668,-0.14715524995285056,5.8809448262539465,-6.853092628058118,23.79846899831097
1760959296.1684787,-4.3787731095542615,-0.13430495862852632,0.9328367238274352,-0.16560876841059247,5.089054983850906,-6.975954472913254,20.376780737702312
1760959296.1784441,-4.371226719575566,-0.146798064096623,0.949271301719163,-0.18026595284761093,4.775368204166914,-6.989093919627679,17.494644213733274
1760959296.188759,-4.383531206490235,-0.1538200817476749,0.9641181802303932,-0.190196759731735,4.89950750369474,-6.996809900685322,15.338338231393822
1760959296.1984375,-4.397652335392137,-0.15378803523417725,0.9759054945559497,-0.19494204048924785,5.3920181874089606,-7.102267178898052,14.034694293762024
1760959296.208506,-4.394665833861172,-0.14585678362659923,0.9836338172654144,-0.19449613180410522,6.16550702999236,-7.3924875325182136,13.641618946994697
1760959296.2185533,-4.356461461233745,-0.12997005113539462,0.9868764338465769,-0.18927605695366048,7.124495611425807,-7.924937089026099,14.144295103441314
1760959296.2284918,-4.267302175910257,-0.10680415072840603,0.9857982151848698,-0.1800833622811421,8.17323216836541,-8.717091845356203,15.457648504687613
1760959296.238553,-4.115063994804324,-0.07763293665860337,0.9811010408587489,-0.16805585494814246,9.221465819687655,-9.740080061594474,17.43515706172626
1760959296.2485254,-3.892045862887333,-0.044147674811500365,0.9739089974173314,-0.15460058991921957,10.188631582344023,-10.91719917308316,19.883410957545934
1760959296.2586026,-3.5953120395265947,-0.00826505027816079,0.9656078646192864,-0.14129646099640167,11.006967162290556,-12.127788384198386,22.58106416711046
1760959296.2684388,-3.2266010161678906,0.028048111828381975,0.9576538030438493,-0.12975595005216695,11.623882186784838,-13.216586536770143,25.3000970981022
1760959296.2784398,-2.791890728264836,0.06291366285408882,0.95136825508628,-0.12144266970048777,12.003609904995018,-14.008260913260619,27.826867521151613
1760959296.2884574,-2.300738135649198,0.09463626889963671,0.9477400297821045,-0.1174544835140251,12.127960185533293,-14.326176434311067,29.98047390093741
1760959296.2986066,-1.7655088235283727,0.1217558797657752,0.9472596393596975,-0.11829924592543234,11.99595006405116,-14.013672130386317,31.626502656929116
1760959296.3084671,-1.2005841837045272,0.14307068588629343,0.9498130412453673,-0.1237079191455536,11.62221705033618,-12.955268834998572,32.685063132530395
1760959296.3185294,-0.6215906796485043,0.15764898332585714,0.9546593337314744,-0.1325412787870873,11.034358320215418,-11.094654861216007,33.13285830261081
1760959296.32852,-0.04465385426729847,0.1648484878368693,0.9605067930910403,-0.14284067812042484,10.269561169752723,-8.446344191068842,32.999720363923686
1760959296.3385398,0.5143428259315314,0.16435231579712384,0.9656843145053782,-0.15204375916491705,9.370962970148971,-5.098780517078387,32.36050627145528
1760959296.3485847,1.0405091381378755,0.15621607554305816,0.9683866879532996,-0.15734300133966755,8.384086662810713,-1.2081924073286316,31.32353511158454
1760959296.358381,1.5206997304616008,0.1409100086728286,0.96695913364916,-0.15613023319752561,7.353565548265006,3.0158524031574374,30.016925541512745
1760959296.3686485,1.9442293433274194,0.11933891759534283,0.9601810891900752,-0.14645505205742435,6.320310011460743,7.331022714587001,28.57428825326151
1760959296.3787608,2.303496367403524,0.09282768499529173,0.9475089481325402,-0.1274244091427012,5.319262943647101,11.486140519691512,27.12121390747301
1760959296.3884165,2.594453186412326,0.06306635849308809,0.929240316873314,-0.0994766049539925,4.377856868844901,15.245533382812342,25.763827324618916
1760959296.3985407,2.8168645640655234,0.03201306842727455,0.9065685252384128,-0.06447428481245185,3.5151837199749036,18.411150882445806,24.580366569630034
1760959296.4086282,2.9743033212387586,0.0017558453082496864,0.8815059321480289,-0.025579516991385762,2.7417553796878473,20.84024465874627,23.61636892875458
1760959296.4184864,3.0738472011398676,-0.025660439502595635,0.8566674866393955,0.013099969131539352,2.059644468669613,22.457019205108743,22.88368251595917
1760959296.428424,3.1254690819238347,-0.04842525428361576,0.8349228839632908,0.04707069914403102,1.4628062480949537,23.257322243203287,22.3631944655946
1760959296.4384491,3.1411579733145603,-0.06514268236163469,0.818951287710149,0.07215261021893593,0.9375104683728133,23.30613101088913,22.010861349257848
1760959296.4485388,3.1338632667797155,-0.07496601199254256,0.8107707542278789,0.08519443188987215,0.4630372130870929,22.728305225440117,21.766340013700045
1760959296.4585004,3.1164032868069516,-0.0776577416514992,0.8113526224853141,0.08463350109388708,0.013032658071919875,21.693775075509944,21.563255719698873
1760959296.4684753,3.1005003752828886,-0.07356296717397633,0.8204349129919475,0.0707349183261196,-0.4419940307049345,20.398900070951132,21.339920696117737
1760959296.4785898,3.0960797556146,-0.06350746644271527,0.8365943325363828,0.04543968081808615,-0.9308020930876701,19.046053042196544,21.04915632960793
1760959296.488748,3.1108978398334255,-0.048652658582391935,0.8575499671863218,0.011890941643821502,-1.4765158914369128,17.823509345111717,20.66583477753937
1760959296.4984689,3.1504759617600593,-0.03034655574979139,0.8806085680691328,-0.026198598371440087,-2.0916268042038304,16.887511743253178,20.19092064232645
1760959296.5086071,3.2182481957323876,-0.009998952901031226,0.9031462820223486,-0.06516910191974853,-2.7741508803155024,16.348049304664954,19.65121071392463
1760959296.5183878,3.315809430114341,0.011010567936169433,0.9230379681881064,-0.1019072546467062,-3.506080241159582,16.2595191368019,19.0946055173722
1760959296.5284348,3.443167815785621,0.031399057737273854,0.9389711537442629,-0.1341534796985545,-4.254807981500317,16.617046196961468,18.581482499419447
1760959296.5383706,3.598946800596925,0.05003495768986573,0.9506089074510511,-0.16061449469567127,-4.977563722029092,17.358794522639094,18.173429047474876
1760959296.5483582,3.780528675016498,0.0659939253591334,0.9585919265572439,-0.18090679369230406,-5.62823705040117,18.374111790213213,17.92109932720973
1760959296.5584059,3.9841691487004125,0.07862167381506094,0.9643925521277882,-0.19537556099828618,-6.16544664290853,19.51684628173498,17.853177608607375
1760959296.5685656,4.205130934884475,0.08759983224682567,0.9700503465442679,-0.2048404942330483,-6.56045834663181,20.62270566393503,17.96830736649238
1760959296.5784438,4.437881116690576,0.09300140610895687,0.9778296632305922,-0.21031862957039008,-6.803613432804112,21.52911077652624,18.231387236750432
1760959296.5884366,4.676376496499155,0.09531699770637203,0.9898451884922882,-0.21276743520118768,-6.908250602924821,22.095645466881223,18.57490870149301
1760959296.5989218,4.914430760638975,0.09543320331066377,1.007703142003154,-0.21288140525616872,-6.911579990743619,22.222957276868204,18.905146746477687
1760959296.608552,5.146124852563967,0.09455018534756299,1.0322043402904928,-0.21096412045636484,-6.872475891108608,21.867904995407038,19.11219843900603
1760959296.6185248,5.366195637785369,0.09403600292794412,1.063149772241136,-0.20688662318796433,-6.866609154260891,21.052952527284326,19.082272280711415
1760959296.628372,5.570328622839708,0.09523144546629408,1.0992779430833066,-0.20013237878578988,-6.97967874264356,19.868297901917213,18.71036225876891
1760959296.6384428,5.755296718362599,0.09923747775816277,1.1383467193108763,-0.18991910218522232,-7.299677406962045,18.4659803121422,17.911505919084405
1760959296.648395,5.9189244949507005,0.1067283804449227,1.1773548201131754,-0.17537847648451949,-7.9091173511890265,17.046166804661528,16.629174732309572
1760959296.6584935,6.059899449091574,0.11783059009132046,1.212881422506628,-0.15576610436839108,-8.8779754192721,15.83685506204083,14.83988107525367
1760959296.6684659,6.177482722041833,0.13209313859003688,1.2415043608344765,-0.1306664675533871,-10.257863034860444,15.069151289588216,12.553692656439631
1760959296.6784701,6.271184608603596,0.14855617625362205,1.260239103776728,-0.10015463786958455,-12.077663003720867,14.950922829454292,9.81091954134322
1760959296.6884127,6.340465062706735,0.16590175445680458,1.2669307480946834,-0.06488252658516301,-14.340673497408895,15.641897220525683,6.6757042546985135
1760959296.698639,6.384501018530066,0.1826501074388714,1.2605378745711964,-0.02607294764132985,-17.023206971493398,17.233175879940376,3.227558718116905
1760959296.7084596,6.4020395976008055,0.1973543252543484,1.2412680941968466,0.014575863916575409,-20.074602960880814,19.73367759309845,-0.44794580747721896
1760959296.7187366,6.391338301148043,0.2087530865745394,1.210550784520026,0.05505654867528787,-23.418659797199872,23.065253539939807,-4.268094835964963
1760959296.728366,6.350184212387765,0.21586121379891457,1.1708564528556868,0.09326218173836605,-26.956484043103345,27.067175085322006,-8.160390874184879
1760959296.738668,6.27598221676045,0.2180001510052437,1.1253936852839586,0.12721019035773426,-30.57065186051861,31.50949533217839,-12.067387742583271
1760959296.748417,6.1659033029147565,0.21478620053219868,1.0777319921000237,0.15525501666018326,-34.13039646650406,36.113577300201655,-15.94834195853806
1760959296.758448,6.0170858444557656,0.2061019157868369,1.0314064921447685,0.17626604220804012,-37.49736564947972,40.57706204100771,-19.77746286205809
1760959296.7684333,5.826884877733017,0.1920772323460062,0.9895551248206722,0.18974421128605823,-40.53144639177512,44.599967790609696,-23.539076687444506
1760959296.77858,5.593165172381671,0.17309972905123988,0.9546259284733337,0.19584932996295343,-43.09629571088268,47.908670296724864,-27.22056144933666
1760959296.7886004,5.3146292830780855,0.14985384303777516,0.9281798371978256,0.19532461533397605,-45.06448761713685,50.27521728100611,-30.804340785550554
1760959296.7984955,4.9911589461808274,0.12336275350868885,0.9108062455718519,0.18933614061949616,-46.322428179757694,51.530560497107814,-34.2604482419427
1760959296.80893,4.624130591298001,0.09499165068000484,0.902159081624093,0.1792700547107847,-46.77528464006178,51.57152473862436,-37.54114228889784
1760959296.818533,4.216652052425093,0.06637934667744227,0.9011059177029476,0.1665305410029822,-46.35210692289026,50.36234521826068,-40.57876262234697
1760959296.8286622,3.7736650622036447,0.039290371745708326,0.9059641997262801,0.1523642622695131,-45.01112407716779,47.93214983107343,-43.28751096100445
1760959296.8385725,3.3018686476856844,0.015406318045345537,0.9147834682869513,0.13772402828202274,-42.74491961624106,44.36977146684131,-45.56921030751964
1760959296.8488414,2.8094400291625403,-0.003906808020785156,0.9256262282987343,0.12318403262066879,-39.58492278505995,39.816852484161274,-47.32246231393202
1760959296.858611,2.305558397486586,-0.017811094301904265,0.9368054283204461,0.10892259783699144,-35.60451226179969,34.45956439402529,-48.454075665231485
1760959296.8684366,1.7997682447195371,-0.026146975660130776,0.9470513228428724,0.09478409227274934,-30.920046820894576,28.518670777810204,-48.89124813714522
1760959296.878506,1.3012473517046703,-0.029488631916891925,0.9555984153760202,0.08041542841514865,-25.689239864567895,22.237343654787907,-48.59281337262077
1760959296.8887208,0.8180655815280425,-0.029086552452157112,0.9621961107870062,0.06545016858993945,-20.106405830759947,15.866256475270449,-47.55794813140653
1760959296.8986795,0.356530951374271,-0.026697217376316165,0.9670501265450121,0.0496967564002671,-14.394243464436249,9.646061790689581,-45.83105704152689
1760959296.908737,-0.07928441542724773,-0.024320418302598866,0.9706996859669433,0.03328676301469629,-8.792057530908853,3.7883016066240205,-43.50204348995901
1760959296.9187315,-0.48776678758253544,-0.02388515920592279,0.9738384204657776,0.01675373213141475,-3.54070642826633,-1.5431743118008145,-40.70177125529311
1760959296.9285238,-0.8696969082415792,-0.026938471285288226,0.9771014250549456,0.0010322604930471358,1.1348806264969118,-6.247409323994902,-37.59316830476793
1760959296.9386435,-1.2279107815145112,-0.034392112085247215,0.9808624390039232,-0.012620172543949267,5.044062133630488,-10.29500018564389,-34.359045075137324
1760959296.9486208,-1.566741861207559,-0.04637099922123629,0.985098835293222,-0.02277019630112138,8.047447512786784,-13.727501333416933,-31.188170690881282
1760959296.958616,-1.891337261536135,-0.06218950659231626,0.989371597214671,-0.028010381432450982,10.069796149004427,-16.646130491959337,-28.261337405118454
1760959296.9687572,-2.2069596952881816,-0.08046097198549203,0.9929301060706092,-0.02719197414723819,11.106425009509564,-19.19028476282081,-25.738986254912017
1760959296.9788964,-2.5183854291396868,-0.09932383025440375,0.9949069915071429,-0.019652093981164676,11.221649007998849,-21.50857517981915,-23.75153703975876
1760959296.9886374,-2.829487741670637,-0.1167479595589421,0.9945416305379997,-0.005389584656502622,10.539223489501564,-23.726971217904435,-22.393026908418754
1760959296.9983766,-3.1430601436482406,-0.1308706808303261,0.9913691542327797,0.014856841164501906,9.226327113462892,-25.91973486292601,-21.71817742481322
1760959297.0084858,-3.460889793984882,-0.14030498001060912,0.9853271666090434,0.039660636985524474,7.473879198232665,-28.088809109929766,-21.742672093853272
1760959297.0185213,-3.784044317663717,-0.1443645372416303,0.9767591189608382,0.06709091663911235,5.476530573024335,-30.15609930577986,-22.44622581291832
1760959297.0284727,-4.113291573657553,-0.14316394518560502,0.9663268590932208,0.09498827469107757,3.4153620134205953,-31.970812379808287,-23.77788799254223
1760959297.0386038,-4.449543315445707,-0.13757797594119828,0.9548722120346466,0.12126407197351763,1.4453840802733104,-33.331165114994576,-25.66288566834181
1760959297.0483994,-4.794212375428984,-0.12907438532371723,0.9432745125973412,0.14415178783234772,-0.31126450068253564,-34.01697492890741,-28.010191397379568
1760959297.0584185,-5.149401961813182,-0.11946047522698656,0.9323376732834397,0.16236270910246273,-1.7666681564074167,-33.827518697262725,-30.719939630334796
1760959297.0684547,-5.51789351122414,-0.1105966765696675,0.9227184945482683,0.17513357438310428,-2.8641899074741977,-32.618052164721774,-33.68986121920225
1760959297.0784204,-5.902947824874701,-0.1041291040828165,0.9148892041534433,0.1821848845061264,-3.5729282455715294,-30.328744836664065,-36.82008129232356
1760959297.0886202,-6.30796889400188,-0.1012812982849899,0.9091185860418107,0.18362523922966054,-3.8813870047795254,-27.001374717789417,-40.01590955397328
1760959297.0984545,-6.7360960425561265,-0.10272881912756346,0.9054595810218077,0.17983776911128818,-3.7918909569655903,-22.781489712213666,-43.18859544993736
1760959297.1085684,-7.189789957587635,-0.10856362026124512,0.9037425160093021,0.171375663190131,-3.316741830709641,-17.906303669084004,-46.25437824873304
1760959297.1187716,-7.670467427748098,-0.11834161304147384,0.903583376176769,0.15888308482164837,-2.4764748280507476,-12.68085967299391,-49.13248697922947
1760959297.1285295,-8.178224229196584,-0.1311977729771675,0.9044187940370064,0.1430497781132807,-1.2999759975923249,-7.446598914465463,-51.74297909195653
1760959297.138714,-8.711669733724827,-0.14600693948872248,0.9055726343477161,0.12460129654907892,0.17424501071399565,-2.5472011776046686,-54.00538807868296
1760959297.1486604,-9.267881859686767,-0.1615634565003788,0.9063477409093884,0.10431899215143604,1.896587663326606,1.7036244700741263,-55.8390192478843
1760959297.1589391,-9.842477021018741,-0.17675040798585942,0.9061270882395871,0.08307497685814731,3.80566330781547,5.048680449786332,-57.165364109082205
1760959297.1689544,-10.42977757994971,-0.19067202786009915,0.9044651759935384,0.06186127561055488,5.829092556839392,7.3058886815095265,-57.91256974600579
1760959297.178678,-11.023050917477226,-0.2027308187065557,0.9011524597723007,0.04179284771235745,7.886103077276881,8.378273241997992,-58.02136776799656
1760959297.1884978,-11.614791262831691,-0.21264138276149702,0.8962401608945265,0.02407113638093811,9.891760522710799,8.255924866890378,-57.4514977787738
1760959297.198473,-12.19701794434683,-0.22038395585001855,0.890018550452108,0.009905588461071183,11.762294647178905,7.0113268140901575,-56.187513779018744
1760959297.2085989,-12.76157039322481,-0.2261118350102275,0.8829495117126134,0.0004014177892475171,13.420833212877374,4.789658739990056,-54.24291720633656
1760959297.2184782,-13.300389419700538,-0.23003767706141684,0.875563987241206,-0.0035702581462302542,14.802927891946272,1.79560503708492,-51.66178094783239
1760959297.228584,-13.805784499303838,-0.23233102831543545,0.8683440294916096,-0.001499810657555627,15.861413052297817,-1.7219879348267242,-48.517382252177306
1760959297.2386382,-14.270695858873337,-0.23305877058917268,0.8616138802585755,0.006657052793454531,16.570213229727777,-5.4864524518383835,-44.907799896767074
1760959297.2484848,-14.688964685317522,-0.2321886341640779,0.8554637341640464,0.02041864718014618,16.926662065705955,-9.209754931859395,-40.94887962155525
1760959297.258487,-15.05562171542168,-0.22965618369760274,0.8497246643458359,0.038775022357985536,16.951839474176694,-12.608595725422301,-36.76535271422143
1760959297.2685342,-15.367193052611286,-0.22547541519185002,0.844004144712382,0.06025111949952212,16.68856289582845,-15.420135471098837,-32.48115215670109
1760959297.278805,-15.622004192237675,-0.21985960829520623,0.837780061696006,0.08303181147229652,16.197060546711647,-17.41756888877743,-28.210092017561827
1760959297.2889156,-15.820442482356295,-0.21331476048507342,0.8305415294844027,0.10513377544812584,15.548902048485811,-18.4255854800468,-24.04803974138532
1760959297.2985656,-15.965120035757893,-0.20667212753212588,0.8219600997579497,0.1245998301546446,14.820248112946434,-18.335185021434267,-20.067482351696267
1760959297.3085155,-16.060871069281063,-0.2010387321797679,0.8120706439447177,0.13968857163747045,14.085694318011953,-17.116592035899025,-16.31497538202349
1760959297.3184373,-16.114526572042468,-0.19766374646889925,0.8014317650136765,0.14903732674444353,13.41379644915012,-14.828421634387412,-12.811457119791609
1760959297.328468,-16.134436499129134,-0.19773964050579365,0.7912257310722122,0.15178500037481116,12.86480719044906,-11.620994524196218,-9.554943435507326
1760959297.3389223,-16.129750597011512,-0.2021737087810564,0.7832585797145779,0.14764751827740022,12.490433071115211,-7.731876315329684,-6.524820164137534
1760959297.3484964,-16.10951548915213,-0.2113739020887054,0.7798354643529455,0.13694210694172063,12.334797288039303,-3.4723488135573497,-3.686902702500797
1760959297.3587792,-16.081688570570748,-0.22509181396113717,0.7835081710394698,0.12056128208635924,12.435435131837634,0.7954149306721222,-0.9986174363127573
1760959297.368733,-16.052198352764684,-0.24235608960594182,0.7967144345938992,0.09990311707539846,12.82311581098594,4.689326886778087,1.5860470272967266
1760959297.378358,-16.02418691101481,-0.2615134948451547,0.8213495513457733,0.07676662550261576,13.519600279170016,7.843929101572544,4.1119228276907265
1760959297.3883817,-15.997549175358568,-0.2803758718480861,0.8583286870854503,0.05321828746256086,14.533085258367414,9.94870005945659,6.618371779139239
1760959297.3985891,-15.968839590063133,-0.2964531302331083,0.9072117464637118,0.03143207068897714,15.851916913842954,10.783523367856095,9.135336462824364
1760959297.4083772,-15.931558620903926,-0.3072384973535729,0.9659694912150927,0.013505043138371628,17.437963215523837,10.246527243518873,11.679859798232094
1760959297.4183714,-15.876773819416101,-0.31050566227541365,1.0309661204005696,0.0012538712811836395,19.2216024333542,8.370036436632356,14.25333507982039
1760959297.4283879,-15.793988638636504,-0.30458011104635224,1.0972140781606978,-0.0039980741134934186,21.10046890820222,5.3216889371931835,16.83986966175391
1760959297.4383626,-15.672156394684725,-0.2885555790187494,1.1589152465327128,-0.001628135780868069,22.943798729232306,1.389760957868306,19.406234358242095
1760959297.4483535,-15.500742691042191,-0.26243406726065993,1.210237689184256,0.008107000903779582,24.60339352383102,-3.045873147773644,21.903900553256637
1760959297.4584527,-15.270754422012343,-0.22717242135171925,1.2462006191734603,0.023958571966230302,25.930882680204682,-7.553395536936519,24.273576208622536
1760959297.4684746,-14.975666906478825,-0.1846271060482023,1.2634810853141178,0.0436899266494897,26.799194997981168,-11.693868627941214,26.452337204789885
1760959297.47839,-14.612190060439705,-0.1374065334338156,1.260949603801273,0.06424808855790416,27.124262373640885,-15.065287488555038,28.382805527489392
1760959297.4884133,-14.18082050965796,-0.08865796644310929,1.2398059935291954,0.08212320080966806,26.881697528501174,-17.340848857238953,30.022896532230163
1760959297.4983988,-13.686129193068021,-0.04181752335065206,1.2032989099478424,0.09385884488507651,26.1134174809853,-18.298305405153165,31.353820424505773
1760959297.5084455,-13.136734202190176,-0.00033515216695154744,1.156121013274681,0.09661589492078891,24.921322772105288,-17.839123943763866,32.38388106077723
1760959297.5184822,-12.544912625973723,0.032629463713180165,1.1036331722456338,0.08866151674502917,23.44863432924748,-15.997175344685006,33.14652922864155
1760959297.528544,-11.92582570480972,0.0545381588495335,1.0510782051477525,0.06966888778677763,21.853070879134403,-12.936753378563232,33.692820829343816
1760959297.5384219,-11.296380149051872,0.06380175880360724,1.0029157825267203,0.040763915149909236,20.27838699885429,-8.939429912416527,34.0801304759669
1760959297.548421,-10.673822618149503,0.0600404630281869,0.9623658737547783,0.004320267397772494,18.83106330711404,-4.379387538517509,34.359953239957335
1760959297.5585172,-10.074241899815371,0.04420182979476604,0.9312011041424553,-0.036439521892479475,17.567160913058075,0.3121114399747467,34.567617192940276
1760959297.5684464,-9.511201604308866,0.0184808058881626,0.909784498215764,-0.07794582907006525,16.491302068739188,4.690648359755455,34.71590997366119
1760959297.5784035,-8.994720505296012,-0.013968006562413718,0.8973112082396434,-0.1167889840620021,15.566519327091203,8.346413608946941,34.79342748980466
1760959297.5884917,-8.530754969821263,-0.049481303435225346,0.8921837996210625,-0.15014882894858342,14.731287192354507,10.949634090566143,34.76735375552979
1760959297.5985243,-8.121237036982219,-0.08441336094958679,0.8924344364021127,-0.17609040489492964,13.918974856832103,12.286944370172804,34.5896998900086
1760959297.608463,-7.764612531924968,-0.1156315047606604,0.8961085860576996,-0.19369873259183099,13.075276544334914,12.282873703585889,34.205815802642746
1760959297.618537,-7.456734118982219,-0.14088620670179264,0.9015465049890077,-0.20305419511390208,12.170459178640714,11.002873571639086,33.56405692482275
1760959297.6284642,-7.191912048336539,-0.15899682959172265,0.9075355419993457,-0.20507555072470554,11.204911590493262,8.637477929741378,32.62560676627112
1760959297.6384091,-6.9639155953517635,-0.169838879036417,0.9133423442060302,-0.20127605117881198,10.208022057038221,5.4705306707786505,31.373494682733558
1760959297.6486292,-6.766746654910511,-0.17415758793888458,0.9186545978928539,-0.1934854649194363,9.231617178849447,1.837123167248616,29.81981853329946
1760959297.6585126,-6.595066836303648,-0.17326078762845437,0.9234676234437361,-0.18358625094533734,8.339956332551905,-1.9216206170774406,28.01018020956115
1760959297.668984,-6.444242920475331,-0.16866324417572284,0.9279517381895386,-0.17329906230342992,7.598534285361322,-5.499734264084706,26.02446115009639
1760959297.6785023,-6.310067130888465,-0.1617606777013371,0.93233359372048,-0.1640363337218677,7.063737581160629,-8.657747762613461,23.973345236109093
1760959297.6884885,-6.18828349418972,-0.15359660496708985,0.9368138473638395,-0.1568269608055474,6.774880433928555,-11.24069964013916,21.99044015905809
1760959297.6984913,-6.074088141605078,-0.14475293477279627,0.9415268293597654,-0.15230261000583248,6.749476724810256,-13.182042987755834,20.220431579026204
1760959297.7084868,-5.961763422144657,-0.13536123220785032,0.9465340041284149,-0.15072857303068973,6.981889035866071,-14.495048227120687,18.804353706677176
1760959297.7185452,-5.844560800173854,-0.12520708926979532,0.9518359698754458,-0.1520593702033641,7.444840376221061,-15.254954081425845,17.863648247074593
1760959297.7285216,-5.714880924825952,-0.11388729060127073,0.9573857573642581,-0.15600089551736254,8.09284725940705,-15.575897052340988,17.485068819903137
1760959297.7386467,-5.56472938428272,-0.10097743596753347,0.9630887157052165,-0.1620664396752228,8.866575167812755,-15.586635539009713,17.708562636936577
1760959297.7485132,-5.386370445064306,-0.08617522350902228,0.9687833690452016,-0.16962242761956695,9.697401635070154,-15.408484039081818,18.51998856671904
1760959297.7586966,-5.173069464187267,-0.06939896345487617,0.9742123570293014,-0.17792846979214894,10.511894832036502,-15.137941288107996,19.849947661101346
1760959297.7686245,-4.91981002350923,-0.05083647757343417,0.9790043961779445,-0.1861815106595989,11.236243917190894,-14.83547137830819,21.579194499902275
1760959297.7784383,-4.623888320918128,-0.03095005465219996,0.9826870400278348,-0.19357266104876622,11.800788169563072,-14.520955314705192,23.550179462777443
1760959297.788453,-4.285315099508335,-0.01044653548194347,0.9847369111542171,-0.1993585580242296,12.144700725320398,-14.175554876625021,25.58337707569236
1760959297.7987869,-3.90698564822309,0.009779019377861997,0.9846605338737405,-0.20294065372213702,12.220690909213653,-13.749104038053867,27.496329378851254
1760959297.8084264,-3.4946053411431093,0.02871875770117393,0.9820916431027937,-0.2039386887745197,11.999403658962176,-13.171611763809192,29.122916730343327
1760959297.8184228,-3.0563792842417454,0.04533965225664871,0.9768867270746857,-0.2022403083084043,11.47306553713411,-12.367043244575704,30.330349886272796
1760959297.8284688,-2.6024917215656105,0.05867582635732081,0.969197565003187,-0.1980106390032342,10.657833589256784,-11.267379608778723,31.031741293534807
1760959297.8386278,-2.144417817555532,0.06791695097932778,0.9595015705493193,-0.19165649372110263,9.5942198430684,-9.825160813686105,31.19276937127962
1760959297.8484695,-1.6941272640486806,0.07248417268171564,0.948579045457294,-0.1837550000235047,8.344958864245175,-8.023208757670961,30.831800307081252
1760959297.8584142,-1.2632502101421585,0.07208786207272885,0.9374358719997574,-0.1749659411584696,6.989900697608787,-5.8807361297923615,30.013775089136974
1760959297.8684583,-0.8622763982727226,0.06676540166965304,0.9271775838556092,-0.16594712231834619,5.618012324356671,-3.4553645961405577,28.839062974289355
1760959297.8784409,-0.4998504393069723,0.056898330682022685,0.9188495559658848,-0.15728734425302662,4.317261040139523,-0.8407325775216725,27.429162569283207
1760959297.8885207,-0.18221698109674175,0.0432047635551892,0.9132714264352233,-0.1494662807126652,3.163827846499999,1.8404448925650652,25.911458117216448
1760959297.8984396,0.08713791635651212,0.02669906068210538,0.9109063123332393,-0.14284380905559058,2.2125220113308153,4.4476184036125295,24.40514291656614
1760959297.9084141,0.30761371257536974,0.008612881547744432,0.9118035011779871,-0.137672791846067,1.4902262782632918,6.837071148919138,23.009957722800152
1760959297.9183505,0.48137586538961424,-0.009718227613397896,0.9156295398129451,-0.13412313342373638,0.9936116357217948,8.878382456436256,21.798726616057486
1760959297.928411,0.6130051497459231,-0.026986557426827436,0.9217689475025554,-0.13230469131388345,0.6913980856431972,10.470448823612042,20.813998085372575
1760959297.9383817,0.7089626012620672,-0.04203978551544371,0.9294547633966613,-0.13228067648193054,0.5304877376357263,11.554609615069795,20.068545846803364
1760959297.9485233,0.776940437309479,-0.053983813592848214,0.937890645649879,-0.1340681739168933,0.44467694241468,12.122736129360938,19.549097701991993
1760959297.958373,0.825179168251497,-0.062247783959514594,0.9463415838297637,-0.13762704941750062,0.36443440508415875,12.21892408190275,19.22242827945035
1760959297.9684505,0.8618268920210753,-0.06660679235699474,0.9541867488143287,-0.14284228845143174,0.22631134817409299,11.934465590225868,19.042843054382708
1760959297.978531,0.8944019435497472,-0.06716491539323707,0.9609394387913525,-0.14950664567225533,-0.019193354064750836,11.396800181458357,18.960071057646264
1760959297.988619,0.9293984885397009,-0.0643062467993115,0.966245091235871,-0.15730969055734847,-0.40214340376584495,10.753959480622294,18.926647338855183
1760959297.9983845,0.9720492873714371,-0.0586249347689236,0.9698703277358018,-0.16583670038371512,-0.9305082217704537,10.156541168443304,18.90398261322435
1760959298.0085456,1.0262352411583948,-0.050845979995693014,0.9716946923483668,-0.1745781022769862,-1.5904428846443948,9.73946375060353,18.86648387289849
1760959298.0183926,1.094514802231626,-0.04174558357252025,0.9717121008095777,-0.1829485381200651,-2.349294553144899,9.605693471495643,18.803321579757554
1760959298.0285392,1.1782439172250445,-0.03207401195539234,0.970042156216618,-0.19031409285725107,-3.160849378338184,9.813841062335035,18.717745480050002
1760959298.0385344,1.277766918103315,-0.02247947196272346,0.9669456013275662,-0.19602622847401877,-3.972094800476171,10.371039602251285,18.62420479890196
1760959298.0486326,1.3926691899738064,-0.013433063272204502,0.9628363416478695,-0.1994616197349399,-4.730590816564127,11.231884772412291,18.54385974449192
1760959298.0585077,1.5220810065666126,-0.005162435871489859,0.9582844007867319,-0.2000686390167737,-5.391465901229039,12.303520234512487,18.499298547661237
1760959298.0683992,1.66500653597835,0.0023906024246890503,0.9540066402617335,-0.19742221560067744,-5.923116590922101,13.456276256832798,18.50935032549505
1760959298.0785434,1.820631972189623,0.009571624847590124,0.9508429301365917,-0.19128664839798287,-6.31089242090392,14.538698960579127,18.58480869829216
1760959298.0883844,1.988553966147473,0.016962978595220998,0.9497153705383308,-0.18168014473247612,-6.558358217310136,15.395381266766561,18.72567490063836
1760959298.098537,2.1688723586984766,0.02528076981678556,0.9515685678887335,-0.16892787029960654,-6.686103587039098,15.885726434428411,18.920220449053655
1760959298.1086411,2.3621128496722483,0.03523277488282985,0.9572903225866223,-0.15368560920146204,-6.728459817768961,15.901636249701227,19.14581620980714
1760959298.1184704,2.568981890255531,0.0473625983632102,0.9676143034006094,-0.13691616899229528,-6.728814796628582,15.382137518687587,19.3711664806633
1760959298.128441,2.7899976763062564,0.06191176553864796,0.983009471104434,-0.11980608461210282,-6.7344245089276535,14.323178683899588,19.559399891897936
1760959298.1386368,3.0250765621610682,0.07873093253483354,1.0035654579703706,-0.10362040248457625,-6.7916701543061535,12.781267068790282,19.671428458734457
1760959298.1485121,3.27317467351546,0.0972644053763247,1.028888956209517,-0.08950757070648702,-6.942580716137857,10.87026547400244,19.669069908785225
1760959298.158739,3.5320817921389276,0.1166182918232719,1.0580327207939417,-0.07828381652839389,-7.223113709425397,8.751470789294702,19.517589343721056
1760959298.1684742,3.798432242980441,0.13570257359549182,1.0894834318514361,-0.07024403678756078,-7.663176499092347,6.617964981302934,19.18749577114938
1760959298.178625,4.067939119963534,0.1534168547444779,1.1212325668092828,-0.0650560815121323,-8.287790488462724,4.675038133089229,18.655571616034422
1760959298.188593,4.335793911672207,0.16883768831974358,1.1509407072864397,-0.06178459507521063,-9.118401199423701,3.1190942440912437,17.90519570788281
1760959298.1985154,4.597131045912059,0.18136710850549304,1.1761809463003141,-0.059054065617779775,-10.173378964517372,2.1177348060472854,16.926064289736004
1760959298.208661,4.847450388329343,0.19081327704757958,1.1947216760267703,-0.05531418205320234,-11.467248611646012,1.793587031801751,15.713448903935708
1760959298.2185879,5.082912992853047,0.1973880419845157,1.2047968657447166,-0.04914087890491835,-13.008827923059187,2.213878465563106,14.267153660766372
1760959298.2285306,5.300460874195191,0.2016210575577,1.2053172805930652,-0.03950547887032504,-14.798884160318925,3.3868182083002893,12.590341915317172
1760959298.238562,5.49775113193313,0.20420770574880415,1.1959916071043568,-0.025962377912572974,-16.827990472804007,5.264697747078764,10.688405423426813
1760959298.2485523,5.672934656532254,0.2058256991871477,1.1773437859821978,-0.00872841721784895,-19.07506687449527,7.752534999189463,8.568045063704993
1760959298.2586048,5.824343454963977,0.2069645905227494,1.150629721671648,0.011351760485178157,-21.50679909861685,10.720327436662993,6.236696553655831
1760959298.2685142,5.950168551418111,0.20780712870072998,1.1176730292361425,0.032941347809172745,-24.0778748299414,14.016716084855164,3.702364263680092
1760959298.2789214,6.048206481144797,0.20818412417697754,1.0806523768989578,0.05442028707744263,-26.731808895872543,17.482070486302447,0.9738543111003345
1760959298.288486,6.115729758206777,0.20760470548550866,1.041877244550258,0.07413133293809097,-29.40205690601003,20.959532733170168,-1.9386434901696288
1760959298.298607,6.149505190694216,0.2053496436599875,1.0035833842225037,0.09062478331823441,-32.013161974789774,24.303232406122515,-5.022682131189052
1760959298.3086271,6.14595382851817,0.20060846742056182,0.9677678141901225,0.10286481376866488,-34.48185427325956,27.383550415104363,-8.262432987121768
1760959298.3188324,6.10142409463797,0.19263827384522306,0.936071362017452,0.11036458620694957,-36.71827451442263,30.089826024706504,-11.637324898460575
1760959298.3286517,6.012536861118443,0.18092020347199356,0.9097092111133193,0.11322587675782103,-38.627703702689864,32.33117512202565,-15.120452484047332
1760959298.338872,5.8765566421367375,0.1652884561720337,0.8894480760041222,0.11207395480539101,-40.11324742949701,34.03613160497489,-18.676801385322104
1760959298.3485096,5.69174511038237,0.14600872520482133,0.8756294239446522,0.10790014230217365,-41.079803475345955,35.151734626389164,-22.26143769352657
1760959298.3585362,5.457659857477992,0.12378950522963002,0.8682364249589086,0.10184827440969713,-41.439362143090875,35.64256428015215,-25.817947365140494
1760959298.3686168,5.175369826729868,0.09972068414742019,0.8669952623948808,0.09499674108613723,-41.117332012525814,35.49011433754118,-29.27756390812812
1760959298.3789358,4.847566831565589,0.0751473566314023,0.8714908532357653,0.08818607382951418,-40.05927732635143,34.69274489902554,-32.559537724383674
1760959298.388635,4.47855958795806,0.05149909097808485,0.8812686625462623,0.08192501148598644,-38.23731961640215,33.26623453792677,-35.57329265822256
1760959298.3987286,4.0741435279985865,0.03010197245917202,0.8958942998205279,0.07638578362631904,-35.65552794223802,31.244666952565787,-38.222722903040655
1760959298.408779,3.6413476709546986,0.012002074399163091,0.9149526933940918,0.0714800036643724,-32.3538097169529,28.68110825611114,-40.41262866850073
1760959298.4186728,3.188070446753555,-0.002172924980982363,0.9379852230357403,0.0669918900064047,-28.409986835250937,25.64732950848326,-42.05686273523074
1760959298.428757,2.7226294709424756,-0.012291537570340481,0.9643810381637865,0.06273554826870482,-23.939822115305915,22.231780147487736,-43.08736007572281
1760959298.4386246,2.2532632211657924,-0.018721442887080785,0.9932536606760656,0.05869911767660148,-19.09473729198336,18.535213887933708,-43.46292679301678
1760959298.4485452,1.7876322249928718,-0.022255218149213697,1.0233418938209091,0.05514169056988425,-14.056885952999496,14.663872279784266,-43.1765368145975
1760959298.4587507,1.3323718840746754,-0.023968698591447426,1.0529723681272487,0.05261843546245713,-9.031220378059631,10.720874392675515,-42.25996248619985
1760959298.4684656,0.8927466998275683,-0.02503276586744566,1.0801110959113318,0.05192385397362434,-4.2343216548352824,6.797201218561555,-40.78484363023949
1760959298.478668,0.472444242447992,-0.02650853204018012,1.1025169994217143,0.05395999042731108,0.11989906968960465,2.964100625344805,-38.8597452181839
1760959298.4885566,0.07352639628417475,-0.02916181072155177,1.1179931037254998,0.059552150655154915,3.83693765197661,-0.7312936588363587,-36.6233156061011
1760959298.4987986,-0.30347137443700556,-0.03333312646176088,1.1247092509269225,0.0692464845400586,6.759373205966877,-4.265813647212474,-34.23425575234851
1760959298.50864,-0.6593287136274747,-0.038893302676743007,1.121543607581776,0.08312967653914677,8.783147038673327,-7.635067278406219,-31.85932578360479
1760959298.5186517,-0.995873030095856,-0.04530188146495835,1.108366649957549,0.10070970602302198,9.869614515855305,-10.84368725731793,-29.660912985834376
1760959298.5285091,-1.315719794741408,-0.051765758918280565,1.0861859468816142,0.12088898759042052,10.050727180307154,-13.892515841555275,-27.785684820044537
1760959298.5385716,-1.6220764052314356,-0.05746991206064023,1.0570930382510366,0.14204900032905776,9.425655169341734,-16.76505762978551,-26.35557926378428
1760959298.5486488,-1.918643378061551,-0.06182843798267817,1.0239993730647161,0.16224853181886054,8.148693408665164,-19.415987101364827,-25.461929769482595
1760959298.558564,-2.2096140955100783,-0.0646930829266884,0.9902025397653949,0.17951350866674776,6.410052317348847,-21.764454192509454,-25.162965284520318
1760959298.5686457,-2.4997383409092597,-0.06646426338745913,0.958873236563174,0.19216539856244685,4.412651764836999,-23.694362625672152,-25.484362738079554
1760959298.5787067,-2.794386540556938,-0.06807424808474791,0.9325794131739368,0.19910956370192404,2.3488438089184633,-25.06275101787812,-26.42209216468479
1760959298.588539,-3.099543117658564,-0.0708449529632801,0.912949897482373,0.20000791196128184,0.38083045202163185,-25.716011580513822,-27.946595042167147
1760959298.5985653,-3.421673601699301,-0.0762527638586961,0.9005316597436727,0.1952998328953815,-1.3724562936464295,-25.512143871363502,-30.007400205591374
1760959298.6085725,-3.7674453497393623,-0.08565209451509621,0.8948400530761151,0.18608566046701755,-2.8406980337298293,-24.345850180836553,-32.53754247686756
1760959298.6185422,-4.143323515471848,-0.100015052140931,0.894561622109398,0.1739152397988766,-3.999951300721824,-22.17236327491683,-35.457485996908645
1760959298.6285717,-4.555098566224249,-0.11973666435620463,0.8978488461256815,0.16052749966265645,-4.86426547498636,-19.025723247081647,-38.6785373115867
1760959298.6385634,-5.007418118748083,-0.1445362028673009,0.9026425376216578,0.14758205071750533,-5.473345162263437,-15.027883939522543,-42.105862085894444
1760959298.6486218,-5.503389987327501,-0.1734618255723497,0.9069672392243375,0.13641958325061598,-5.878610053561659,-10.386418378517241,-45.64116734221763
1760959298.658642,-6.0443007784579965,-0.20498710091038705,0.9091633153634902,0.12788236984489307,-6.129716275428351,-5.380438685931456,-49.184964035733074
1760959298.6687121,-6.629467701692091,-0.23717950978918623,0.9080402623433401,0.12221751304698801,-6.2631506244525585,-0.33631910700944506,-52.63824109655723
1760959298.6786203,-7.256221967610524,-0.2679201708756469,0.9029530767150326,0.11907426008808737,-6.2941344804362735,4.403428403677296,-55.90347790734958
1760959298.688522,-7.920013815198334,-0.29515298383467886,0.893813997589834,0.11759392837161006,-6.212797029643728,8.513579495781048,-58.88518960163199
1760959298.6985402,-8.614627494598434,-0.31713551472833634,0.881055259388489,0.11657781666390245,-5.985244785782924,11.71703702312941,-61.49050629087269
1760959298.7086222,-9.332492652218162,-0.3326567774843928,0.8655561273868574,0.11470628995150865,-5.559619152926667,13.808791349930159,-63.63043937009201
1760959298.7185824,-10.065072732805644,-0.341186101448367,0.8485421208022472,0.11077367266553712,-4.876472387913433,14.670046710906098,-65.22234824110842
1760959298.728603,-10.803301773212095,-0.3429262121972229,0.8314595418873002,0.10390162239868579,-3.8819287877637874,14.271329406974557,-66.19371397806533
1760959298.7387776,-11.53803164880965,-0.33876002970622787,0.8158275371645997,0.09369911398321983,-2.5413666256510528,12.665288850150723,-66.48683126779419
1760959298.7486107,-12.26044686706998,-0.3300997580449429,0.8030744435126727,0.08034815462884694,-0.8510219359494519,9.971629233352479,-66.0636648410722
1760959298.7586448,-12.962407151799766,-0.3186646095101016,0.7943732505851022,0.06460731907699192,1.1548313352920117,6.357828634003379,-64.91001067085772
1760959298.7687814,-13.636689859112133,-0.30622589587622473,0.7904969762274113,0.04773640537814798,3.402631608070857,2.0196635018162326,-63.03823110298997
1760959298.7785,-14.277120866718935,-0.29436128126463224,0.7917129668951884,0.031353178762178226,5.7845505442101866,-2.8350971093466146,-60.48806050411226
1760959298.7887611,-14.878598377889476,-0.28425340696688595,0.7977263057664037,0.01723851036647377,8.169017432879123,-7.997900567245265,-57.32517664586168
1760959298.7984743,-15.437025443106364,-0.27655637278249406,0.8076745810137383,0.007111603000852638,10.415200160192288,-13.2652690969583,-53.63738427838623
1760959298.808546,-15.949173321671486,-0.27134201614370956,0.820176450758796,0.0024028281691016494,12.389470655665892,-18.440409368735722,-49.52843607857725
1760959298.8185103,-16.412500500263363,-0.26812884367814765,0.8334419217285748,0.004055233554803685,13.981707238612064,-23.33242722453876,-45.10978962944912
1760959298.8288279,-16.824953635989747,-0.2659893130694082,0.8454512796932602,0.01238348315787551,15.11930012345782,-27.7551667283106,-40.490962493370425
1760959298.8387134,-17.184778888240714,-0.2637245587453067,0.8541951839332509,0.027010234907379253,15.776969770200298,-31.52744516493976,-35.769536489638526
1760959298.8486702,-17.490374779248267,-0.26008844058179836,0.857948716564808,0.04688782588093203,15.981036403855745,-34.47597984355929,-31.022180372342273
1760959298.8585773,-17.74021789950434,-0.2540345874298938,0.8555412395342469,0.07040163409688677,15.807553447250934,-36.4417112847384,-26.298203756207837
1760959298.8686306,-17.93288679835759,-0.24495211402072556,0.8465853927004178,0.09554241651671172,15.374586527596605,-37.28954837242711,-21.617038072096186
1760959298.8785686,-18.067195466907705,-0.23285112926236767,0.8316357434344759,0.12012742274564114,14.829699469177083,-36.920812998372234,-16.97059207127376
1760959298.8885682,-18.1424271981506,-0.2184618016032391,0.8122546902090643,0.1420436083960675,14.334256283087225,-35.28693473994306,-12.330635645563168
1760959298.898571,-18.158636729961998,-0.2032219943602399,0.7909690850640473,0.1594830336612347,14.046379635297948,-32.40237518533906,-7.6603709233813255
1760959298.9087827,-18.11696969556153,-0.18914595896995035,0.7711067809067543,0.1711426578843707,14.10431553765893,-28.354461328598276,-2.9284494718476513
1760959298.9184995,-18.019938953582795,-0.17858589877980385,0.7565106506388339,0.17636646716320803,14.611635343759342,-23.307864815568347,1.8768409559119368
1760959298.928671,-17.87160001290042,-0.17391549583234245,0.7511409386217879,0.17521398693595397,15.625314209641344,-17.501938823693916,6.735569721004201
1760959298.938711,-17.6775819409734,-0.1771768617471025,0.7585938385881766,0.16844557369121232,17.14739574336508,-11.24001073259572,11.588352442224217
1760959298.9484637,-17.4449519405208,-0.18973772983361165,0.7815812274662389,0.15742336586200262,19.120762921565763,-4.870903082235049,16.334132963217304
1760959298.9584944,-17.181914671097992,-0.21200373250176868,0.8214310604873487,0.14393765203201989,21.429493160620762,1.2358278916577168,20.834199109718938
1760959298.968756,-16.897364984753835,-0.2432234600642189,0.8776792203596637,0.12997914773099556,23.904306032579246,6.718463364070078,24.922318719802387
1760959298.9785986,-16.600322468284627,-0.28141490322937546,0.9478298788239177,0.1174848416948154,26.333587005042606,11.252465555628492,28.420200995276954
1760959298.9886036,-16.299281309378458,-0.32343328798333454,1.027358345225379,0.10808762894207496,28.480263652363185,14.577482707210761,31.15688560673905
1760959298.9986804,-16.001516590275294,-0.3651923258239732,1.1100119562749315,0.10289960856722788,30.10431228977423,16.519293248277204,32.99013277652588
1760959299.0087638,-15.712403287612545,-0.4020402643342549,1.1884263394735162,0.10235611371118049,30.989809344617637,17.004682238680108,33.82744313332785
1760959299.0187583,-15.434825525898495,-0.42927412005695237,1.2550171803557735,0.10614001330297088,30.974256946256993,16.068090849089334,33.64402318010665
1760959299.028558,-15.168773008611856,-0.4427482293813715,1.3030394796937843,0.11319373791088698,29.97662012904971,13.849707038434069,32.494942933264355
1760959299.0387366,-14.911228035410154,-0.4395006046942742,1.3276408620259452,0.12181616831681472,28.019466089943183,10.585357787348526,30.5190762135999
1760959299.0486584,-14.656430005109748,-0.41829274437671266,1.3266914461523884,0.1298404131582203,25.240214894669364,6.588991788919171,27.933302685599042
1760959299.0585647,-14.396558895208193,-0.3799499635378111,1.30117715313632,0.1348943288962023,21.88718481998156,2.228635501225131,25.01681663605389
1760959299.068627,-14.122805667640266,-0.3274112292861059,1.2550225494701432,0.1347434968481614,18.298064564097984,-2.1033751795818536,22.086909072974247
1760959299.0788977,-13.826705612966366,-0.26544864629940496,1.194357712296001,0.12769288624787725,14.861560765184283,-6.024901732600254,19.468883546095746
1760959299.0885653,-13.501521854871715,-0.20008233995897096,1.1264047887852056,0.11298389035526925,11.966675516543168,-9.201365545058197,17.463624068713436
1760959299.0989258,-13.143412825070877,-0.1377775403797293,1.0582593349401734,0.09108995356568061,9.94736551863708,-11.382473866180158,16.316709376704264
1760959299.1089146,-12.752129064130575,-0.08455286281147734,0.9958419446248161,0.06380846386716478,9.032169629293119,-12.433150971270384,16.192829350467346
1760959299.118611,-12.331068403723458,-0.04514430898568327,0.9432153438882287,0.034077959142269264,9.308130296680156,-12.352781493791124,17.15860247082374
1760959299.1286356,-11.886654465036496,-0.02235791009045077,0.9023466487723318,0.005512784863408077,10.705971592657102,-11.277779444245882,19.17584045602538
1760959299.138531,-11.42715785108973,-0.016712431257628734,0.8732844639222597,-0.018273301207622016,13.009577473520215,-9.465050190064876,22.10604812220239
1760959299.1486213,-10.96121558292526,-0.026430623036769726,0.8546396989184682,-0.03441055189587373,15.888230295781709,-7.257428969013087,25.725599433865828
1760959299.158627,-10.49638404656106,-0.047786091698329,0.8442158341858295,-0.04140151596435121,18.945816743722734,-5.0356817504729054,29.749654604917602
1760959299.1687922,-10.038055426405904,-0.07575511172812677,0.839628508752825,-0.039468192091515274,21.778195856740325,-3.1643138462496347,33.86164776792602
1760959299.1785543,-9.588976434606547,-0.10486743331074125,0.8387833662805053,-0.030521131931847204,24.028827472582527,-1.9397410990976982,37.7444148276976
1760959299.188539,-9.149458304213274,-0.1301088956589963,0.8401408761066262,-0.01775459966009308,25.43377583185276,-1.5491312370556356,41.10903933851353
1760959299.1984127,-8.7181971354449,-0.14771036963936748,0.8427732601322773,-0.004974870413311353,25.849892692534578,-2.0464923248910334,43.71826873342268
1760959299.208477,-8.29347568963982,-0.15567243046482981,0.846280836165045,0.0041607006469262095,25.263503228989226,-3.3496865881126303,45.402603705047625
1760959299.218701,-7.874433856267202,-0.15393099490403012,0.850650572964529,0.00680636821685423,23.78042025437164,-5.2584782635460146,46.068517417911
1760959299.228652,-7.46209890113418,-0.14415492727759652,0.856109256443274,0.0013573293185538233,21.600946177513563,-7.49013393118978,45.699411827988804
1760959299.2387314,-7.0599452821214905,-0.12925116805607506,0.8629852922639879,-0.01240463872733478,18.985288976912262,-9.72619575665406,44.350668410909144
1760959299.2486472,-6.673869514758421,-0.11270636710168672,0.871578561423887,-0.03342238058401865,16.21543527279309,-11.662418074438056,42.140435438889725
1760959299.2584696,-6.31158296210822,-0.0979058483612441,0.8820446026188187,-0.05966058547917778,13.559165860347992,-13.053775725190771,39.23768527684653
1760959299.26865,-5.9815248003544355,-0.08754976076976499,0.8943094376582889,-0.08850776621784492,11.240815868068376,-13.747844966818906,35.84873598915093
1760959299.2785478,-5.69147121895542,-0.08324819804601372,0.9080324583082117,-0.11720826878724598,9.421797045079275,-13.70231016367008,32.20303968233942
1760959299.2886515,-5.447062505340868,-0.08533408041099086,0.9226247091272908,-0.14325945888617228,8.192055423084797,-12.985236063034565,28.538724881824095
1760959299.2985353,-5.250485231649616,-0.09289292227636893,0.9373152908946201,-0.16472140874115915,7.571828280083215,-11.75944847168035,25.088206639130625
1760959299.3089118,-5.099529953962158,-0.1039780681823262,0.9512497579363961,-0.18040538975882284,7.521591185490093,-10.254446556338854,22.064162182281446
1760959299.3186557,-4.987193223122422,-0.1159594599920733,0.9636043145707234,-0.1899327269277283,7.957175576437548,-8.730536569811747,19.646294672441318
1760959299.3287635,-4.901908914113422,-0.12594170215374229,0.9737022026965161,-0.1936797535510384,8.766787770630991,-7.440364889143363,17.969528286533414
1760959299.338762,-4.828392846307578,-0.13118454932880486,0.9811182779888113,-0.1926400020864783,9.827043212025512,-6.5928879621685414,17.11451390060827
1760959299.348889,-4.748991551824595,-0.129468518693566,0.9857554672693759,-0.18823884298473614,11.016003633986559,-6.324187495036221,17.101459778421223
1760959299.358596,-4.645362187211684,-0.1193671211680619,0.9878773085573289,-0.18213110030905724,12.222308063918286,-6.678519078785061,17.888233816642774
1760959299.3688922,-4.500281937083475,-0.1004073535447169,0.9880870251677228,-0.176003461445458,13.350490760429883,-7.601665415552427,19.373388623454815
1760959299.378874,-4.299384784686916,-0.07311546619099825,0.9872538383464926,-0.17139490994583362,14.3232273887063,-8.94716496940014,21.404289510743304
1760959299.3886728,-4.032641595638042,-0.03895463506122962,0.9863960947539065,-0.16954210256390856,15.081490086216887,-10.494449842614717,23.789954045938497
1760959299.398608,-3.6954310505321226,-0.00016788843735884634,0.9865342958438111,-0.171253123846257,15.583540541044528,-11.976529073178558,26.317611436231847
1760959299.408439,-3.289093604463343,0.04045302621586875,0.9885268852524137,-0.17681218309136176,15.803499974236525,-13.113748862832551,28.77143988708189
1760959299.4186904,-2.820917362747818,0.07984388006422183,0.9929025105063146,-0.18591906437724628,15.729981798804745,-13.64944229434842,30.95154066958844
1760959299.4287043,-2.303567004135965,0.11495552512968624,0.9997068968921415,-0.1976700561194391,15.364975761750628,-13.383015239024902,32.69106429455995
1760959299.438636,-1.7540234127507497,0.14302230950636421,1.0083886445091443,-0.2105906578908145,14.722888040139132,-12.196275684054417,33.86958756361553
1760959299.4488492,-1.1921438326425158,0.16179078331730107,1.0177521376422054,-0.222731893423246,13.829483042559765,-10.069635687557897,34.4213451837112
1760959299.4587183,-0.6389797565393487,0.16969763511435076,1.026004249514551,-0.23183871504560727,12.72050836645191,-7.086129548311988,34.337643440728364
1760959299.4684334,-0.1150068608082536,0.16599063650582238,1.03091418360803,-0.23559067432675396,11.439949331937063,-3.4228137186151875,33.66355462042612
1760959299.4786744,0.3615708081785984,0.1507890101206194,1.0300929757678285,-0.23190370049782663,10.038002339344605,0.6692027858198711,32.48965228446987
1760959299.4887366,0.7762858635476174,0.1250838220900784,1.0213796674624436,-0.21926826622600537,8.56887274149629,4.893338456531333,30.940022757916672
1760959299.4986377,1.1195089433070324,0.09068398258455705,1.0032937128746575,-0.19708307043659015,7.088410567158025,8.940839562159079,29.158066650574657
1760959299.5085957,1.3870943863612246,0.05011478812974009,0.9754804612449932,-0.16592647345924763,5.6515028535430885,12.524369288294903,27.291692895699967
1760959299.5186918,1.5805288710775054,0.006469925345073722,0.9390469460084109,-0.1276959876327318,4.309159792569659,15.407667739760946,25.479424452524206
1760959299.5285401,1.706590823482149,-0.036793041674096444,0.8966732427755368,-0.0855476723558408,3.1054016571103333,17.427986818480242,23.83871684956879
1760959299.5386539,1.7765680619940516,-0.07612728773431442,0.8524089655406952,-0.043591581755582205,2.0742722756985277,18.509318731005276,22.457473157846835
1760959299.5485773,1.8051122419907168,-0.10823867078042058,0.8111342029744703,-0.006350187976639868,1.2373913372583636,18.665745790605566,21.389343654573928
1760959299.5585768,1.808836839657177,-0.13045916592947485,0.7777627273542761,0.021945333360436876,0.6023494183570482,17.995328402487015,20.652963309517826
1760959299.5684624,1.804793341641476,-0.14108401604381177,0.7563580945813386,0.03808023048742898,0.1620919548649085,16.665847466952673,20.234869556030233
1760959299.5785718,1.8089843956292078,-0.13959099150385887,0.749386253830915,0.04042312748655472,-0.10459893686760822,14.894499779720684,20.095507881561954
1760959299.5885792,1.8350811226667292,-0.1266766326198649,0.7573084689402829,0.029175688591695503,-0.2313670349149794,12.924228847675282,20.177474925180743
1760959299.5987084,1.893488521010459,-0.10409431961986593,0.7786109718564553,0.006241698160119737,-0.2611894330367678,10.999573100930936,20.414939735283777
1760959299.6086464,1.9908441252574918,-0.07434115031110435,0.8102181508723302,-0.025218218878062252,-0.2420866825656756,9.34464519948644,20.743031751446885
1760959299.6186826,2.1299595043393356,-0.04027834507676236,0.8481301993819419,-0.061393905243999895,-0.2221212551184206,8.145229668512581,21.10596065934452
1760959299.6287088,2.310148442488752,-0.004767767559274222,0.8881075670953555,-0.0984354024104449,-0.24437621008360091,7.536205475078524,21.462811004973
1760959299.6387665,2.5278442624245123,0.029619503831563938,0.9262669929806543,-0.13295000284307676,-0.34261914306828317,7.594735329928849,21.790328055970146
1760959299.6490128,2.7773916858506746,0.06079672831887339,0.9595125242600641,-0.16232755302159688,-0.5382247860827633,8.339010262417979,22.082495389468356
1760959299.6586995,3.0518998884486597,0.08725519486060514,0.9857760653588158,-0.1848828851272498,-0.8387306288412051,9.731837384759778,22.347188910310894
1760959299.6687531,3.344056486863052,0.1080719347102744,1.0040797942763038,-0.19983934416087723,-1.2381902552899164,11.68802165718267,22.600588830862748
1760959299.6787195,3.6468218372597208,0.12285394678826998,1.0144570443913217,-0.20719875942487134,-1.7192920180379225,14.0843147565096,22.860294952237084
1760959299.688443,3.9539463940792823,0.13164455238683662,1.0177799349894692,-0.20755131789090012,-2.2570184752053915,16.77068257605928,23.138217050645657
1760959299.6986983,4.260280050754716,0.1348168570832533,1.0155424096066017,-0.20187509054563632,-2.82342157579521,19.58178933289105,23.434317255331926
1760959299.708634,4.561870039867404,0.13297558764322,1.0096385544510904,-0.19136195238798007,-3.3928960356106543,22.34791132919608,23.73217356995239
1760959299.7185574,4.855870313658335,0.12688210509606185,1.0021617928066153,-0.1772882882538769,-3.9471984819494796,24.90490731236361,23.99710886754809
1760959299.728468,5.140307086770736,0.11740905383575652,0.9952351604821897,-0.16093028669238638,-4.479434352011671,27.103243984416626,24.1772907265995
1760959299.7387476,5.413759534147829,0.10552214220490887,0.9908697267921954,-0.14350953903782948,-4.996343376770646,28.81627889024451,24.20778332522042
1760959299.7487082,5.675019764103123,0.0922785472815719,0.9908390236474937,-0.12614795085096836,-5.518457751293321,29.94800280664908,24.01707983622286
1760959299.7585196,5.922792780643762,0.07882653510897926,0.9965533509096289,-0.10981210218404397,-6.07806470620476,30.4402747676909,23.535237539832515
1760959299.7686427,6.155487692186771,0.06639056857093201,1.0089213648455684,-0.09523493080401142,-6.715323734184716,30.279293072369068,22.702457754622685
1760959299.7786174,6.371137433072292,0.05622998334613216,1.028199452908219,-0.08281553924925603,-7.473276647408767,29.500686107274735,21.4768604556874
1760959299.7885935,6.567464621385338,0.049565507459942065,1.0538502137945038,-0.07251555047506517,-8.392739221021033,28.192250493281612,19.84031839619023
1760959299.7984977,6.742083180515828,0.04747463278577231,1.0844528868703438,-0.06379146624120022,-9.508081138661174,26.493103129721153,17.801505854580803
1760959299.8085256,6.892789582656293,0.050763818720080685,1.1177197501887988,-0.05561757536076903,-10.84462861496924,24.58795759520469,15.395719129663217
1760959299.8184354,7.017865500307451,0.05983511837227008,1.1506607246484062,-0.046642582675026634,-12.417897002671946,22.695516738615577,12.681475036335497
1760959299.8287256,7.116304988303781,0.0745765662729629,1.1798996443151841,-0.035473994577496976,-14.234261235672305,21.050705064915935,9.734334723507331
1760959299.839003,7.187902639476385,0.09430974263700813,1.2020966596047231,-0.021021747986865524,-16.292268572168513,19.88164260307836,6.638774336380994
1760959299.8487046,7.233180338343884,0.11781466065739382,1.214400043133468,-0.0028000690580981553,-18.583761306644178,19.38368530215366,3.479166448808364
1760959299.8587437,7.253167870521469,0.1434274719885979,1.2148489909633162,0.018898991980471066,-21.094255179386167,19.69412905257621,0.3310015033493963
1760959299.8689654,7.249077555859519,0.1691875092570814,1.202665256847227,0.043003965938893,-23.80240391846276,20.871823912702144,-2.7466234152792874
1760959299.8788373,7.221927876888902,0.19300709332854157,1.1783910122994585,0.06783068749182379,-26.678672360501547,22.885628048725014,-5.71642140249991
1760959299.8887358,7.172179788460397,0.21284723000380842,1.1438496669682756,0.09137459457276807,-29.683469192901143,25.61427502170425,-8.565632479777538
1760959299.898656,7.099452547725468,0.22689422042627824,1.1019283816139822,0.111660896133754,-32.765020618494,28.85806814128377,-11.305644275284155
1760959299.908677,7.002381000162223,0.23373550991255293,1.056207643764385,0.12707847625107288,-35.85730360063065,32.36039346752355,-13.968335563393792
1760959299.9186187,6.878660298638833,0.23252450785692003,1.0104922895082091,0.1366343656148453,-38.87844198241272,35.835110607664156,-16.599235851592
1760959299.9285724,6.725296832734922,0.22311149067166486,0.9683213620460647,0.14008620237730166,-41.73006044932726,38.99507493295747,-19.247988109188555
1760959299.9386487,6.539049592549757,0.20611195620002848,0.9325409390778361,0.13793414417691283,-44.29813330584761,41.57753269648227,-21.95711011254474
1760959299.9485824,6.317010601911216,0.18288853110289963,0.9050113170018433,0.13128114228333862,-46.4558229783692,43.36357983855011,-24.75055719402127
1760959299.9589236,6.057243287729158,0.15543516823373843,0.8864929891476692,0.12159903157433051,-48.0686537628868,44.1907130329276,-27.62391515830798
1760959299.9686394,5.759380030843116,0.1261701208764109,0.8767209638901956,0.11045678461048326,-49.0021133325804,43.959142810886895,-30.5380446069966
1760959299.9785907,5.425078943382919,0.09766340905273928,0.8746383578345225,0.09926734253520737,-49.13146534970332,42.633527183991355,-33.41759783538361
1760959299.9885998,5.058255664027215,0.07233843891674555,0.8787256752741568,0.08909472724354504,-48.35323427249745,40.24192386851417,-36.15509237825556
1760959299.9986403,4.665035334434092,0.052190353351633384,0.8873439673485912,0.08054553022434532,-46.59750370334223,36.873165216468905,-38.620315319667334
1760959300.008697,4.253407501885865,0.0385563519265973,0.8990154487056133,0.07375445212511503,-43.83987817517459,32.672876014092786,-40.67396706348544
1760959300.0189133,3.8326070051723065,0.031961773296770024,0.9125902558860784,0.06846024307589275,-40.11172717769464,27.837408041723133,-42.18380967469851
1760959300.0285487,3.412282455831449,0.032056175896993847,0.9272819935414579,0.06415371471156253,-35.50717767812818,22.60442916222277,-43.04125263706134
1760959300.0384872,3.001547190655345,0.037647934815137174,0.9425866516776679,0.06026585197611833,-30.185292596546432,17.238997015274336,-43.17629558254229
1760959300.048742,2.608032220489846,0.04684132004602345,0.958122432035351,0.0563566296606319,-24.36606389164453,12.014695637696192,-42.5689884372395
1760959300.0586412,2.2370724848179466,0.05727149441782846,0.9734405917880811,0.05226679623806985,-18.31935257878745,7.19066325603401,-41.25596932427768
1760959300.0687037,1.891150663390744,0.06641685042522558,0.9878620685041224,0.04820422290783342,-12.346746117065793,2.9867790471333073,-39.33114956659081
1760959300.078744,1.5696911656462516,0.07194721756788819,1.0003920614237805,0.04474974452212059,-6.757405400759397,-0.4395170443373174,-36.94024461474894
1760959300.0886548,1.2692410021278897,0.07205035642520538,1.0097515687815608,0.04278087160436701,-1.8401910526324485,-3.0107435885106724,-34.26960318743897
1760959300.0986142,0.9840048851591361,0.06567757510744929,1.0145399024617112,0.043323081140656486,2.164532272687629,-4.737564297451303,-31.530581756794753
1760959300.1087344,0.7066375696194509,0.052663655702410196,1.0135095195801667,0.04734843553609435,5.089336773545033,-5.715240598725067,-28.941367768826673
1760959300.1185544,0.42915391612042825,0.033700341088015846,1.0058982738931104,0.05555260141537203,6.856433845887355,-6.107892986426206,-26.708483381295224
1760959300.1287048,0.14380414619947376,0.010169627558704762,0.9917303865829443,0.06815415644947187,7.483679170963603,-6.122312750762912,-25.01012756116491
1760959300.138559,-0.15622230862569467,-0.016131359611626348,0.9719830580831033,0.0847680449724427,7.07875259747441,-5.975055807147956,-23.98311195016494
1760959300.148673,-0.4763598863944895,-0.043321741932230075,0.9485410999366226,0.10439660302154236,5.822635251018595,-5.857965483425734,-23.714561207674873
1760959300.1586149,-0.8205326631079758,-0.0697609127323778,0.9239272510187599,0.1255512426101614,3.94558223375945,-5.907858366559897,-24.23891011052306
1760959300.1685348,-1.1912924596739334,-0.09430209239935834,0.9008723567922021,0.1464771243987439,1.7000477998567136,-6.185689803882045,-25.54010350066849
1760959300.1787765,-1.5901438158459775,-0.11642610880646123,0.8818405190166685,0.16542304310142614,-0.6649103782230497,-6.669059267179328,-27.558304675087886
1760959300.188539,-2.0179416261030982,-0.13623250514010996,0.8686300043886517,0.18089057064944028,-2.924220861385182,-7.259630835521984,-30.199861294313553
1760959300.1985462,-2.4752503823692367,-0.15429887602438885,0.8621351717181837,0.19180708201057742,-4.890436521863575,-7.804366610025803,-33.348838422068425
1760959300.2086833,-2.962582102878708,-0.17144986167997447,0.8622974046637503,0.19759143976153956,-6.420109061047677,-8.1269452061176,-36.8782257580145
1760959300.2189426,-3.480469797817921,-0.18849400460308532,0.8682190147772018,0.1981148022608678,-7.413924084924961,-8.063888539884411,-40.659074397317035
1760959300.2284608,-4.029373609787331,-0.20598698635007118,0.8783830167566186,0.1935909674656718,-7.812503370543826,-7.49912737700013,-44.56635460358159
1760959300.238994,-4.609451589189229,-0.22406835425427082,0.8909176349958641,0.18444585496984375,-7.590150471319615,-6.391133588974251,-48.4811568355525
1760959300.2486084,-5.220252802444,-0.24240118397820415,0.90385640308911,0.17120942022057484,-6.74864892140451,-4.788210443003801,-52.289782271821416
1760959300.2588513,-5.860403716933136,-0.26022283797963136,0.915360125865168,0.1544535044328183,-5.312582081408191,-2.829729756274327,-55.881058663685494
1760959300.268515,-6.527357199489015,-0.27649180030907666,0.9238820804509403,0.13477715510286328,-3.3267481717059217,-0.733559816087033,-59.14367497157577
1760959300.2788525,-7.217257060120285,-0.29009399412532366,0.9282737182514254,0.11282500243127529,-0.855396834956834,1.227870566651463,-61.96530812662153
1760959300.2886384,-7.9249433878106315,-0.30005804423564325,0.9278419236461799,0.08931835189422546,2.0175595154843857,2.7588677617184034,-64.23477684009768
1760959300.298854,-8.644092796733483,-0.3057290653954561,0.9223748693710128,0.06508170009271057,5.188433881118978,3.5743863118543,-65.84754146671317
1760959300.3088336,-9.367462870724813,-0.3068659815187265,0.9121496185920045,0.04105421874003652,8.534748897941846,3.431895907890403,-66.71387335819985
1760959300.3186169,-10.087197345315612,-0.30365070356571533,0.8979238656782202,0.01828132838498231,11.918029150007465,2.157336207919339,-66.76824217240123
1760959300.3290222,-10.795147218571374,-0.29661824754001664,0.8809024495346474,-0.0021155923796861067,15.188759429244202,-0.3373413213684393,-65.97809165583814
1760959300.3386471,-11.483169527480674,-0.28653023707417846,0.8626634845705556,-0.018991404075727386,18.193563368841584,-4.045860895026052,-64.35023646223118
1760959300.3486366,-12.14337740392731,-0.2742214134734453,0.8450335501867877,-0.031249224264791785,20.784418073056035,-8.867765290147931,-61.93355173848442
1760959300.3587186,-12.768330552695952,-0.2604513388533573,0.8299137570473704,-0.037928244271423904,22.829451942836165,-14.615208661468843,-58.81730225170372
1760959300.368935,-13.351172262232067,-0.24579146942792313,0.8190710546384135,-0.038301071710008114,24.224499630291955,-21.024362693475556,-55.125195948917245
1760959300.3786623,-13.88573445887232,-0.2305713507953924,0.8139172844962321,-0.031970156272595994,24.904160236758642,-27.769842376440245,-51.0058942373982
1760959300.3886912,-14.36664285657266,-0.21489699507715773,0.8153041221929678,-0.01894801313240145,24.85076980768825,-34.48130287966573,-46.62117835387751
1760959300.3985922,-14.78945674962664,-0.19873949601154597,0.8233677894096323,0.0002951353663611691,24.099605141160108,-40.7620201780796,-42.13324277631476
1760959300.4087539,-15.150870071289136,-0.1820746583057574,0.8374594840513528,0.02482776422048116,22.73887631568644,-46.209607707750216,-37.692664302959855
1760959300.4188154,-15.448982069254878,-0.1650398830057624,0.856187195736058,0.053300857093367376,20.90366837836288,-50.438974187171695,-33.42845622174543
1760959300.4288538,-15.683620612517636,-0.14806753234646353,0.8775692366307724,0.0840354726428587,18.763911573536603,-53.107228344228055,-29.4412510954603
1760959300.438529,-15.856673573810903,-0.13195617763196074,0.899270352756158,0.11514573554765503,16.50755945074161,-53.939576981566674,-25.800098570930857
1760959300.4486551,-15.972358880229896,-0.11785260191564972,0.9188737543286984,0.14468528214117188,14.32121073286888,-52.75449234217848,-22.542699833702923
1760959300.4586651,-16.037347740543808,-0.10713788862841579,0.9341430561556732,0.17080205281033056,12.371129230159932,-49.48572049236345,-19.678276332251002
1760959300.468743,-16.06065576417721,-0.10123653965590723,0.9432414063975266,0.19188465021513587,10.787711238247063,-44.198254320415124,-17.191871806189216
1760959300.4787533,-16.05323943467978,-0.10138959171716411,0.9448924336852391,0.2066842989492815,9.655800494466666,-37.09539988050711,-15.048839144123788
1760959300.4887238,-16.02728189695089,-0.1084427500557284,0.9384828692713295,0.21440041006967356,9.012015514359298,-28.5146585879751,-13.198572199481388
1760959300.4987752,-15.995216067937992,-0.12269588182764683,0.9241160129103829,0.214724861852531,8.848820600670681,-18.911315409080466,-11.577104345857924
1760959300.5087762,-15.968600065858208,-0.14384321046388046,0.9026270302584193,0.2078480583024415,9.123865111397178,-8.830168501539301,-10.108838521336768
1760959300.5187974,-15.9570081211625,-0.17100925897910965,0.8755667934760795,0.19443434091282155,9.772401536647166,1.132576155281331,-8.70819729434802
1760959300.5286806,-15.967108516132718,-0.20286101391302513,0.8451540695974501,0.17557314059780743,10.720398563232303,10.37391771716704,-7.282214757013348
1760959300.5398095,-16.002062457638832,-0.23776020397748746,0.8141892432279066,0.1527075883068812,11.896160860226313,18.331011512466315,-5.734960574839312
1760959300.5486598,-16.061310055590198,-0.27391731243284134,0.7859183322213928,0.12753846635885707,13.23872042935223,24.525975802893488,-3.9742329259181504
1760959300.5587108,-16.14073996895531,-0.3095207920914389,0.763835993156637,0.1019016228873633,14.701908703464985,28.604319023321366,-1.9203046364742822
1760959300.56875,-16.23318883363029,-0.34283294577859613,0.7514217647347259,0.07762238699951929,16.25380118993366,30.36348185115114,0.48417806021918136
1760959300.5786643,-16.32918893508285,-0.3722577284216292,0.7518133302966871,0.05635953297173511,17.87204568692775,29.768999381517066,3.2645839102643794
1760959300.5886345,-16.417870477989286,-0.3963910653855842,0.7674317692919582,0.03945979477702344,19.536302716281,26.95690875486294,6.40666258708991
1760959300.5987709,-16.48792232973731,-0.41406455051930324,0.7995872610088319,0.027847123974353405,21.219517888989856,22.22219743183374,9.852471383600573
1760959300.6086679,-16.52852143051985,-0.42439208114790894,0.8481120085845946,0.021966182013858526,22.879923340151517,15.99426525145008,13.500991578775674
1760959300.618702,-16.530155112609823,-0.42682401666521647,0.9110889401699483,0.021787483289164983,24.455496475294066,8.80142711019762,17.213861705767446
1760959300.6290054,-16.485277268116732,-0.4212019487077931,0.9847600733930221,0.026865625262726504,25.86216268644233,1.2272438548571136,20.825903425632895
1760959300.638664,-16.38875351933143,-0.4077941834346066,1.0636914674153481,0.03642774142595979,26.996507529946392,-6.138066573022554,24.159527548248622
1760959300.6486013,-16.238063758814505,-0.3872892157977822,1.1412338084607874,0.049462039978220934,27.743341638570424,-12.747470985091248,27.04175063357546
1760959300.6586888,-16.03325052148784,-0.36073775985096723,1.2102578636332275,0.06477855433800128,27.988116007364937,-18.143934778591895,29.322315989932594
1760959300.6686807,-15.776634189144898,-0.3294555650049398,1.2640794048548816,0.08102647144375937,27.633678949363002,-21.99924433229824,30.891178677838226
1760959300.6787658,-15.47235561123683,-0.2949146642743183,1.2974288215822087,0.09667499735697327,26.619950114728724,-24.139728926854545,31.693411548427267
1760959300.688876,-15.125838052237919,-0.258651221367398,1.3072766488278496,0.10999406390636968,24.94375767281513,-24.554855983690825,31.73954961067551
1760959300.6986437,-14.743268449450342,-0.22220572227426355,1.2933226875994628,0.11909306049900388,22.67472613549811,-23.387185566787398,31.109602811462555
1760959300.7087526,-14.331177104662148,-0.18709244579950304,1.2580185375141562,0.1220702641898049,19.962409622239328,-20.905571396187796,29.94944269069054
1760959300.7187185,-13.89615022551477,-0.15477601678603317,1.2061123378160676,0.1172848929279327,17.030514834820707,-17.46673597814156,28.4590174833242
1760959300.7287917,-13.444654925506548,-0.1266216396182828,1.1438313024481768,0.10370347728444912,14.15628346679235,-13.472304453738936,26.87290696141837
1760959300.7386007,-12.98291153463754,-0.10379258102387297,1.0778977217455423,0.0812230926168797,11.636480255239466,-9.328319030156882,25.435021113500103
1760959300.7485747,-12.516733462155493,-0.08709539810625737,1.0145844742854055,0.0508612562249848,9.74501493463289,-5.41223424940693,24.370489438637264
1760959300.7585487,-12.051278755991607,-0.07680685221623204,0.9589707215376877,0.01473260670849031,8.689914816161957,-2.0493444249830475,23.858592866015602
1760959300.768551,-11.590710199686738,-0.07253781771913373,0.9144879237482402,-0.024206536798723526,8.578283420151662,0.5021706203007277,24.010704694777925
1760959300.7785468,-11.137821422387482,-0.07318986277144338,0.8827765833340898,-0.06259613664522277,9.396651691888003,2.0599210249439666,24.856590178302174
1760959300.7886462,-10.693734000914423,-0.07704205776543219,0.8638190017177773,-0.09719141007735524,11.011006298834683,2.522129527582671,26.3411495030007
1760959300.7984965,-10.257787726372017,-0.0819752247637928,0.8562776103809823,-0.12534335527060986,13.186583871532886,1.8700931689555451,28.331953858265205
1760959300.8085842,-9.827722482762013,-0.08580508074674544,0.8579521070237335,-0.1453417310456598,15.623381005510751,0.16845561832053677,30.636073741172723
1760959300.818566,-9.40018833073874,-0.0866635940402478,0.8662683398566642,-0.15656854896166236,18.00034667492291,-2.4376864414111328,33.023238496949006
1760959300.8285952,-8.971538918729934,-0.08334914087251043,0.878722062560444,-0.15946281673628657,20.020096763320083,-5.730402795320367,35.251700213598454
1760959300.8388052,-8.538787844056033,-0.07556656072742965,0.8932163363234662,-0.15533653799782549,21.446754043683914,-9.432676688913906,37.09335063820551
1760959300.8486032,-8.100559068783918,-0.06399845884829337,0.9082512023967673,-0.1460994156941043,22.131618974273632,-13.228865276294231,38.35538288108583
1760959300.8586152,-7.657851770677292,-0.050185954317875765,0.9229509322156145,-0.13394805317346717,22.02408430539197,-16.79124035260235,38.89675782384589
1760959300.8685172,-7.214466951459464,-0.03624273772102571,0.9369489635263162,-0.12106437980554276,21.167930249544167,-19.8106047188195,38.638683784179975
1760959300.878568,-6.776997561189922,-0.024466371126501886,0.9501860344377618,-0.10935753944608212,19.685445354212433,-22.027690493344785,37.56909679951499
1760959300.8885882,-6.354350297554529,-0.01692966775885632,0.9626965041920923,-0.10027686098903234,17.753383993987327,-23.261174440548455,35.741647871514786
1760959300.898529,-5.956833146515258,-0.01512740384002408,0.9744481237541511,-0.094715555574626,15.575439011294442,-23.42806916068651,33.269949379030095
1760959300.908614,-5.594903448255073,-0.019729215892411167,0.9852667439813322,-0.09300955492188986,13.355722586390879,-22.553129087346466,30.317884329633735
1760959300.9187403,-5.2777255206813445,-0.030463989666731438,0.9948416603911172,-0.09501631086534244,11.27685791981174,-20.76555811385935,27.086759920803257
1760959300.9291084,-5.011729137202618,-0.04614215103000886,1.0027878381825428,-0.10024400397693033,9.484882391428991,-18.28330362151089,23.800075118498462
1760959300.938523,-4.799379592882737,-0.06480728898381126,1.0087384697114543,-0.10799821426656593,8.081539251944486,-15.387109909321893,20.686700805486957
1760959300.9485767,-4.638356890517651,-0.08399337448025854,1.0124446430547187,-0.11751833208418855,7.1230813985422525,-12.387899296146744,17.963353957680706
1760959300.958566,-4.521293092080288,-0.10104922918311823,1.0138600729117655,-0.1280844667002003,6.623786780419551,-9.591730502506046,15.817397101322435
1760959300.9685755,-4.436139730374739,-0.11348198290808251,1.0131873775101146,-0.13908415623833065,6.562147314171484,-7.2665460257048196,14.391201443359552
1760959300.978513,-4.367146280295732,-0.11927072247331798,1.0108651341503965,-0.1500358201297204,6.888035846521789,-5.61432758609382,13.769510450342324
1760959300.9886205,-4.2963441366121975,-0.11711179700603729,1.00748869599731,-0.16057219634729342,7.529792449474531,-4.751352384442067,13.971301577561634
1760959300.9989452,-4.205362183932778,-0.10657316512778235,1.0036787875674742,-0.17039189036315952,8.400798478613153,-4.698183914013763,14.947436988464515
1760959301.008605,-4.077356830373424,-0.08814895251211742,0.9999281184259644,-0.17919108464268188,9.40553641766774,-5.379987496925375,16.584866375186937
1760959301.0187144,-3.8988243858479263,-0.0632140654450643,0.9964606982210147,-0.1865909374411896,10.44531842472848,-6.636803138297414,18.71734389066859
1760959301.0286345,-3.6610785180259104,-0.03388497442121705,0.9931340872232081,-0.19207909213613522,11.423851493950192,-8.242543752078724,21.141685974414028
1760959301.0385852,-3.3612194124636994,-0.0028000322101237158,0.9894066549812391,-0.19498474139234628,12.252677649437489,-9.930713074626633,23.63773993893122
1760959301.0486221,-3.002488853123066,0.027158392037908465,0.9843823090292322,-0.19450396697191252,12.856366129690239,-11.424178627772156,25.989669696742645
1760959301.058687,-2.593985679660227,0.05316931457480972,0.9769348724798652,-0.189784674554298,13.17718781312143,-12.465846327229906,28.006014827273063
1760959301.0686183,-2.1497938412453776,0.0727710429374676,0.9659040149761091,-0.18006930766044318,13.178887658778914,-12.846855965341263,29.536234519997258
1760959301.078618,-1.68763716951005,0.08411780916527103,0.9503440836020306,-0.16488057903923026,12.849109520590282,-12.429068718754905,30.482016621242575
1760959301.0885193,-1.2272156153985307,0.08616688332611222,0.9297947668844193,-0.14422230085843585,12.200049998958116,-11.159239138286475,30.802391516113545
1760959301.0987177,-0.7883988089582996,0.07877606306931688,0.9045278187027904,-0.11875564632995043,11.267042653147803,-9.073333510426625,30.512519737351752
1760959301.1087406,-0.3894564807671006,0.06270242333953176,0.8757111695421649,-0.08990347964677149,10.104997835418779,-6.290793091541729,29.67681258557085
1760959301.1186302,-0.04549115817264195,0.039506548064331695,0.8454289259341905,-0.059835164068223166,8.782925409270238,-2.999850414903898,28.397701329072007
1760959301.1288085,0.23279098260803907,0.011378021020072024,0.8165107180604018,-0.031295259306670896,7.377097796837776,0.5639823164903706,26.801812159593684
1760959301.1388261,0.4398715996636945,-0.019096918704665542,0.792159630733131,-0.007265993847227213,5.963677126821183,4.143546114323141,25.025467985143504
1760959301.1486237,0.5757106568135599,-0.04920441560169422,0.7754219175574373,0.00950188266646558,4.611725909726505,7.4868849215639335,23.201289128114396
1760959301.1586995,0.6455137829500158,-0.07638403286092915,0.7686044556024659,0.016997560116198667,3.377404587588755,10.372499119694632,21.447232191438143
1760959301.1686282,0.6590122593571968,-0.09848648836731157,0.7727941720101872,0.014358575716168798,2.2999112969320556,12.63049501706324,19.858812902357982
1760959301.1790068,0.6293602156855572,-0.11396630026401422,0.7876283644080134,0.0020439823574812236,1.3994667335793463,14.157620191790294,18.504679384450338
1760959301.1888306,0.5718041616296965,-0.12198022247462206,0.8113839466150429,-0.018286304245702975,0.6774299151053692,14.924852950980622,17.425271737052356
1760959301.1987133,0.5022879645450824,-0.12239067859872696,0.8413360766498214,-0.044134238637477105,0.11839871869954446,14.977019904628742,16.634067246069648
1760959301.2086234,0.4361291201342235,-0.1156967346459676,0.8742575179742027,-0.07264378352379343,-0.3061057623332633,14.424768031347913,16.120841566997225
1760959301.2186277,0.3868660991082831,-0.10292070840308119,0.9069237600966757,-0.10106914255640347,-0.6329665708997299,13.430034809733515,15.856410244782312
1760959301.2287405,0.3653486821411098,-0.08547172013110312,0.9365290261040757,-0.1271402533374808,-0.902466356009657,12.186841016991032,15.79836777840118
1760959301.2386887,0.37912353816990846,-0.06499880892457822,0.9609662707597569,-0.14928104757357485,-1.1535493713683536,10.899663058345288,15.897337903952833
1760959301.248671,0.4321490476574974,-0.043240500559137994,0.9789622922130624,-0.16667469477335986,-1.4198313005072094,9.761760087095492,16.103173998903934
1760959301.2586095,0.5248502394777059,-0.021876001836989258,0.9900845597669076,-0.17919889147080462,-1.7266952510456914,8.935649884955513,16.37047085279933
1760959301.2691417,0.6544930551633525,-0.002385687071831468,0.9946512877528978,-0.187272877143698,-2.0896445272289568,8.537523527018346,16.662769195069863
1760959301.2786632,0.8158202797257708,0.01406753184726399,0.9935826983259238,-0.1916646004743729,-2.5139016421289195,8.626872812084516,16.95500121533492
1760959301.2889273,1.0018618690301084,0.026724465289166614,0.9882296385078186,-0.19330067968815517,-2.995090125511575,9.202075711887476,17.23400105191011
1760959301.2987628,1.2048222209314,0.03527785200342011,0.9802066530857262,-0.19310751745429047,-3.520750611873681,10.202186959312014,17.497202118216688
1760959301.3085923,1.4169553787941833,0.03988317143170035,0.971244297770675,-0.19189663703109913,-4.072429878437169,11.514705032808779,17.749885198227762
1760959301.318699,1.6313544212880107,0.04113439278000641,0.9630647509276472,-0.19029621512754083,-4.6281217270109725,12.988617209817342,18.001486616794597
1760959301.3287015,1.8425939118911427,0.040004986472440475,0.9572778969417861,-0.18872426267573753,-5.164906229273091,14.45156669912953,18.261522529318647
1760959301.3386557,2.047174178220572,0.037753434613914894,0.9552917467198656,-0.1873949990202762,-5.66168819053377,15.729569391040021,18.53566012068493
1760959301.3486278,2.243728324886447,0.035794835724707014,0.9582304584609143,-0.18634723494049124,-6.101930813216464,16.66737561022967,18.822399909707908
1760959301.3586226,2.432970223759526,0.03554508953187789,0.9668552798503329,-0.18548190811820123,-6.47621308396338,17.14737374862527,19.11073475910464
1760959301.3687158,2.6173836090251386,0.03824979616175235,0.9814893423786282,-0.18459604059369772,-6.784368931729979,17.10492399166862,19.37901405894911
1760959301.3786325,2.800677626530783,0.044815851940796764,1.0019559589614309,-0.18340316326220796,-7.036965039074111,16.538243993684745,19.595074369218732
1760959301.388648,2.9870626015978963,0.055669366886765194,1.027547392892642,-0.18153631568125322,-7.25596334716754,15.511464488416319,19.71753803755819
1760959301.3986108,3.18042979028888,0.07066676270987904,1.057040730599995,-0.1785385652101208,-7.474547500276756,14.150201680625992,19.698076029245243
1760959301.4085624,3.3835442355765672,0.0890830285553391,1.088768458561686,-0.17385452634825974,-7.736179662447066,12.629873444673484,19.4844028957134
1760959301.4187615,3.5973701694736078,0.10968938718816128,1.1207392074668685,-0.16684024648443446,-8.092916180218921,11.157897733226708,19.023796108270318
1760959301.4286397,3.8206347862915284,0.1309134832932317,1.1507946180666155,-0.15680585102121403,-8.602865622165417,9.951739760256057,18.266955778333486
1760959301.438685,4.0496988564643965,0.15105561598955708,1.1767834527410492,-0.14309630784717212,-9.326570815168683,9.215431701580759,17.172007811363695
1760959301.4485722,4.278752259802275,0.16852278839308588,1.1967340764794585,-0.12520283051310332,-10.322206625639765,9.11755634374419,15.708398367937297
1760959301.458629,4.50030206752849,0.1820406310397521,1.209010281032593,-0.10288451285814829,-11.639823295195242,9.773597027501909,13.86033511108025
1760959301.4685814,4.705877233531673,0.19080751094799764,1.2124405164747556,-0.07627216628028946,-13.315270913310185,11.234916423836317,11.629320319360298
1760959301.4786139,4.886840370535938,0.19456341324667845,1.2064139389092858,-0.04592781704640271,-15.364720743840019,13.485530120043068,9.035250093693676
1760959301.4885592,5.035179733218226,0.19356142848152047,1.1909372601438697,-0.012842825562267663,-17.780741825569326,16.446533186204014,6.115606107696625
1760959301.4986053,5.144161286910986,0.18845162880302735,1.166646853754953,0.021629174232943783,-20.53066892691904,19.986811014097857,2.9225006670301523
1760959301.5087428,5.208752573595757,0.18010777025661917,1.1347747049134724,0.055895340053192015,-23.557552269733037,23.937784782151425,-0.4822584093816484
1760959301.518593,5.225778390307926,0.16943820487320815,1.0970732632522027,0.08828383982723244,-26.783434723712038,28.109593400809825,-4.033435806874455
1760959301.5286856,5.193820477046136,0.1572217828851118,1.055707085256166,0.11721791334443486,-30.11424053053224,32.306358925532074,-7.668922334347202
1760959301.5386572,5.112918259950466,0.1440001817878185,1.013116202073683,0.1413804025445701,-33.44532309963397,36.33891237638013,-11.335345782106678
1760959301.5486073,4.984157461378322,0.1300438276153232,0.9718522901029667,0.15984690414581396,-36.66673293595036,40.03429225328566,-14.991601555519889
1760959301.5585976,4.8092445304350395,0.11539280940649509,0.9343898825016563,0.17216814440021783,-39.66747796842426,43.24213460037815,-18.609507228657698
1760959301.5688126,4.590157422210238,0.09995876899419942,0.9029223552274153,0.17838820780060713,-42.338403655957755,45.83853403753641,-22.171314817542598
1760959301.5786498,4.328939831294615,0.0836603265245776,0.8791622445583186,0.17899622193930556,-44.573766325445476,47.72804490426308,-25.66442882938409
1760959301.5886626,4.027671306398206,0.0665568047168336,0.864172085588582,0.17482219640388222,-46.27203077139263,48.844337013010325,-29.074259166362804
1760959301.598649,3.688605988908465,0.048945621184658915,0.8582533808398458,0.16689916980565764,-47.336777422784785,49.14981400865867,-32.37659001212353
1760959301.608637,3.314434936998694,0.03139702452720998,0.8609180748270876,0.15632033861581238,-47.67871781377803,48.63440011307423,-35.53107913927716
1760959301.6186516,2.908598338891941,0.014713883947619048,0.8709571487317949,0.14411753476584732,-47.21960231175363,47.31374175494985,-38.477431622894755
1760959301.6288047,2.4755605842364297,-0.00017842932460673057,0.8866023955913137,0.13117632429632745,-45.89830904451648,45.22717435373135,-41.13539747975875
1760959301.6385748,2.0209660136121417,-0.012390552127689964,0.905754916468873,0.11819057944136527,-43.67879109036053,42.43583827297249,-43.409104094174175
1760959301.6489344,1.5516149111799125,-0.02124295598130569,0.9262382666293334,0.10565305527926724,-40.55900460296849,39.02118511765794,-45.195488502448946
1760959301.6587746,1.0752333913369756,-0.026417429147731986,0.9460325887224533,0.09387760783144182,-36.57954556505398,35.08377657721135,-46.39587387124574
1760959301.6686437,0.6000503029079057,-0.028051960817908003,0.9634568023933289,0.08304773813196187,-31.830501467260135,30.741827443600382,-46.929151861098525
1760959301.678752,0.13423113634303302,-0.026756135826759668,0.9772821948862108,0.0732826581572273,-26.45495574418105,26.128553578822178,-46.74468520033878
1760959301.6887462,-0.3147531965001765,-0.02354049026228032,0.9867761731977813,0.0647080254657866,-20.64768424197749,21.38727678212077,-45.83298303673663
1760959301.6986198,-0.7407293730445808,-0.019669716980783725,0.9916861214401281,0.057516279137374046,-14.647924483612433,16.663602092788818,-44.232413885641215
1760959301.7086332,-1.1393024342212517,-0.016463251508980727,0.992179266516982,0.05200193845381952,-8.725746573834176,12.094844467104327,-42.03067646524371
1760959301.7186582,-1.5081370412570487,-0.015077438149052894,0.9887551373071379,0.048560744146896866,-3.1625005187840047,7.798009749580746,-39.360429538860885
1760959301.7285535,-1.8469966015724975,-0.016310124712367816,0.9821445267751882,0.04764810140158561,1.7730517380288422,3.858608328624527,-36.38935023246583
1760959301.7385886,-2.157544695369606,-0.02046768020817517,0.9732068035643185,0.049700684674476824,5.850203969372183,0.32299307888464035,-33.30582491748012
1760959301.7486005,-2.442960954373689,-0.027323743165436294,0.9628367866275961,0.055033817722400756,8.899892675469259,-2.803447420064912,-30.302257861571007
1760959301.758586,-2.7074591100265275,-0.036180850864808024,0.9518883497352114,0.0637345934819808,10.832803812878849,-5.551000678941289,-27.558381500209045
1760959301.7686703,-2.9558096101831595,-0.04602573238367882,0.9411126920564751,0.07557409413320014,11.649004465106557,-7.973548111733645,-25.22685554542558
1760959301.7787116,-3.192959124727977,-0.05575040287832026,0.9311041345254905,0.0899600260823724,11.437265959539417,-10.131572366926394,-23.422892077821995
1760959301.7887127,-3.4238053177928904,-0.06439674168396178,0.9222562998249387,0.10594445648838383,10.363751436277264,-12.073385375050126,-22.218805704253178
1760959301.7991226,-3.653136063183796,-0.0713755335001577,0.9147501374137255,0.12229242050333153,8.651438256650035,-13.818350930792846,-21.643508547562725
1760959301.8087392,-3.8856943322750412,-0.07661528996426505,0.9085965702584425,0.13760852365544432,6.553302949885618,-15.345748312124712,-21.68628123085397
1760959301.8186288,-4.126299908638863,-0.08061093983133787,0.9037251559705886,0.15051038741339287,4.323487788461201,-16.59199582533827,-22.303749884583933
1760959301.8287315,-4.379953822542923,-0.08436351291205614,0.9000729043257777,0.15982608010842256,2.190933486003528,-17.45738334355181,-23.428833939384525
1760959301.838714,-4.6518659874888275,-0.08922396387718311,0.8976277615800683,0.16477749440956455,0.3391597144228184,-17.821584353814814,-24.98039857410725
1760959301.8486292,-4.947370626447729,-0.09667162715582309,0.8964183250392299,0.1651044031512913,-1.1056683859253056,-17.565443695012856,-26.872391454364458
1760959301.8586276,-5.2717196077044495,-0.1080662049096855,0.8964725846445761,0.1610968931304334,-2.0779657211067915,-16.595249376840613,-29.0213738208041
1760959301.868768,-5.629766936841436,-0.12441179878745458,0.897770937672353,0.15353231443536233,-2.568253466727629,-14.865159501116176,-31.35160324354631
1760959301.8787465,-6.025576756746122,-0.1461658894956521,0.9002059405246148,0.14353845275689667,-2.6129476390233237,-12.39375165996192,-33.79719681274134
1760959301.8886786,-6.462001414214791,-0.1731183703171976,0.9035503042288702,0.13241509295831155,-2.2808297103517043,-9.271690575337573,-36.30137342524004
1760959301.8987024,-6.940285245414192,-0.20435698322978166,0.9074309166122027,0.12144403699726083,-1.6585953414229166,-5.659044419625221,-38.813286867596005
1760959301.9086742,-7.45975376233359,-0.23832658063819398,0.9113112794933329,0.11171221707231006,-0.8374251668887328,-1.7725480225713512,-41.28342248451036
1760959301.9188075,-8.01764544685883,-0.2729802822573386,0.9144944365890632,0.10396917129702572,0.09817682533832121,2.135166689365862,-43.658822234355284
1760959301.9288933,-8.609130242172931,-0.3060084201974349,0.9161629814400685,0.098537350903066,1.0787156702663325,5.80097097918322,-45.87943750236668
1760959301.9388113,-9.227531688814897,-0.3351154176887209,0.9154641336262574,0.09528768602390646,2.055126547947598,8.97713869806545,-47.8766602515622
1760959301.9486787,-9.864732588241953,-0.35830117080301144,0.9116308668486153,0.09368300953076979,3.001415778729994,11.453749717930394,-49.57459425546926
1760959301.9585786,-10.511709527745792,-0.3741004973441661,0.9041164738958222,0.09288167265351388,3.914640319274458,13.074562652658168,-50.89401173562229
1760959301.9686027,-11.159121623981326,-0.3817437110107616,0.8927157141944325,0.09188608161695008,4.812246622125008,13.744815983751833,-51.758358617703806
1760959301.9786537,-11.797876680469209,-0.3812179478538959,0.8776488340958903,0.0897159560673465,5.726810305833634,13.431067475541234,-52.10077245013338
1760959301.9885862,-12.419609227043122,-0.3732270431340216,0.8595919625585208,0.08558258922082025,6.698493397451577,12.154636773588296,-51.87093064848502
1760959301.9989376,-13.017024226004148,-0.35906494498513775,0.8396468460342129,0.0790384989025858,7.766018053756969,9.981177158483465,-51.04064397086125
1760959302.0086184,-13.58408402610125,-0.340430832529172,0.8192526617981569,0.07007828434876748,8.957435130311778,7.009182917668508,-49.60739934548106
1760959302.018793,-14.116040830731327,-0.3192192721595794,0.8000503205168102,0.059172627830813236,10.282207015678186,3.359835826863649,-47.595449339671134
1760959302.0286434,-14.609337745400104,-0.2973146763743357,0.7837137926569704,0.047227964640719475,11.725996824849657,-0.8303064075497302,-45.054427307291114
1760959302.038676,-15.061414258301467,-0.27640931090834997,0.7717641801017355,0.03547729715103161,13.249092296435528,-5.41337653424483,-42.05574818857568
1760959302.048773,-15.47045580605859,-0.257853815395985,0.7653829922548018,0.025319751796311983,14.788760128903013,-10.231606269366916,-38.68721490604549
1760959302.0588133,-15.83512454687658,-0.2425436805476884,0.7652438829136528,0.018134725281322286,16.265230141036934,-15.117306688421971,-35.046328071985506
1760959302.0686214,-16.154303908504303,-0.23084623152792183,0.771386852994091,0.015099067782467956,17.5905655237837,-19.89283064869342,-31.232845370937266
1760959302.078628,-16.426885993996162,-0.2225781143748336,0.7831620760906555,0.017032877700876817,18.679366723964925,-24.371697620338605,-27.341178253971712
1760959302.088688,-16.651628893678424,-0.21704767373278558,0.7992667995698368,0.024293075282287666,19.4600086917821,-28.361606096621845,-23.45323934904768
1760959302.098613,-16.827108432097976,-0.21317390658015767,0.817884727857826,0.03672615357660254,19.884910835648654,-31.669579751905335,-19.63237383119041
1760959302.108686,-16.95178313003981,-0.2096807554555772,0.836915247812393,0.05368285974781903,19.938266405412275,-34.10912366489759,-15.919052944928753
1760959302.1188123,-17.02418019733905,-0.20534541045694576,0.8542582968293287,0.0740875085833056,19.639836003983895,-35.50906319314668,-12.329057488878176
1760959302.1288824,-17.0431936270544,-0.19926032249324718,0.8681085210571301,0.09654498421127064,19.04392155720598,-35.72368683383872,-8.85481317893909
1760959302.138682,-17.008463742833076,-0.19105884313837493,0.8772130835505694,0.11946412017180767,18.233454084009914,-34.64382769351095,-5.470211882478128
1760959302.1486144,-16.92078378539499,-0.181057187056434,0.8810581840435668,0.14118056617352506,17.31008643405885,-32.208458410929495,-2.138629502107028
1760959302.1585906,-16.782459772982214,-0.1702797299051977,0.8799633512667766,0.16007329141149604,16.382021698308865,-28.416129401464836,1.1769251946380899
1760959302.1686928,-16.597544018281475,-0.16035686714557798,0.8750738122009318,0.17467942619197396,15.551763491735661,-23.335158176542933,4.50326061581595
1760959302.1787906,-16.371877176144853,-0.15330923525065368,0.8682490799705309,0.18381471003707606,14.905869307897355,-17.111030709603224,7.848054544654127
1760959302.1886935,-16.112907493857016,-0.15125277318146557,0.8618546650224186,0.18669849814679856,14.508115785327155,-9.969215407311994,11.194241684939678
1760959302.1987805,-15.829298763861892,-0.15607111197913154,0.858476508174302,0.18306687174516698,14.3964534764796,-2.211679702567259,14.498719499064515
1760959302.208734,-15.530376122226707,-0.1691037210573488,0.8605914288753636,0.17324363797451883,14.583119395883891,5.794091983165967,17.695371207612933
1760959302.2187145,-15.225481849163161,-0.19089269606442988,0.8702350474608623,0.15813743176930328,15.056663761034363,13.633892112096177,20.701501950468252
1760959302.228824,-14.92332102064783,-0.22102236799576327,0.8887075528953591,0.139150357915451,15.784591924029,20.87259888582041,23.42623019038705
1760959302.2387047,-14.631372309547709,-0.2580751704809265,0.916349912942298,0.11801308365326173,16.71571820175873,27.085099739268248,25.779300381120272
1760959302.248714,-14.35542294129359,-0.2997115959918093,0.9524146913292029,0.09658390990411198,17.781952778087938,31.889522408403604,27.679131717948152
1760959302.2588437,-14.099258820299866,-0.3428616979621149,0.99505082366363,0.07665143806884507,18.899906177644855,34.97936317748513,29.059493999216297
1760959302.2687595,-13.864507435495685,-0.38399744239859174,1.0414195821279528,0.05976640457586777,19.973243230037486,36.150919600360126,29.874768912854
1760959302.2787485,-13.65060451400039,-0.41944675861034886,1.0879526973424605,0.04711065541314653,20.89697768892745,35.32283820792701,30.104132628311547
1760959302.2887118,-13.454846174202956,-0.4457129006757572,1.1307448180507684,0.03939750645076001,21.564722957727405,32.54562444107882,29.755085750160447
1760959302.2987027,-13.272500216842033,-0.45977381294551717,1.1660399178772922,0.03679145290506663,21.879281079780426,28.00041808151091,28.86654254144133
1760959302.3087704,-13.096978867370789,-0.4593507098489106,1.19073579938992,0.038841086447992904,21.765977176112862,21.987781080320328,27.51124091828054
1760959302.3188396,-12.920108865955367,-0.44314535578608866,1.2028104545005496,0.04443860442775196,21.1870184729707,14.908180240653872,25.796694126596773
1760959302.328787,-12.732556638235392,-0.4110429066786025,1.2015819819976465,0.051842818696015064,20.154121241177105,7.235950804912166,23.86347535978467
1760959302.338814,-12.524461079671063,-0.3642592137532068,1.1877504434839858,0.05881129591115497,18.7360497135895,-0.5120721112305767,21.87953439038779
1760959302.3486972,-12.286286890605906,-0.3053883519869045,1.163223548750902,0.0628669059986849,17.057935838545713,-7.81272723175329,20.02967807118556
1760959302.358674,-12.009842719546198,-0.23829670083346113,1.1307792088217323,0.06167834357296253,15.29051419745707,-14.176890859784784,18.500333395349983
1760959302.3689573,-11.689331057396963,-0.16782813866769933,1.0936477951387091,0.05348477478632657,13.629554665483969,-19.192158747059374,17.461019078879982
1760959302.3787982,-11.32224267916937,-0.09932897673692495,1.0550971811193586,0.037466756874640086,12.268268124763544,-22.563892720330358,17.045119912598153
1760959302.3886151,-10.90990537643633,-0.03805341538192011,1.0180818803109104,0.013970674320513077,11.36755618633947,-24.1487749736778,17.33312135503726
1760959302.3986773,-10.457550240224155,0.011453261568562847,0.984989299004164,-0.015474402321342935,11.029955433384089,-23.97439610359811,18.341204152045684
1760959302.4087694,-9.973849875271956,0.04589020247725741,0.9574928405043786,-0.04836409812036816,11.282548658666444,-22.23968706079856,20.017133998924518
1760959302.418717,-9.469984519606616,0.06357185479349098,0.9365066990148331,-0.08161879317137787,12.072099914228932,-19.294006757670026,22.244034616176396
1760959302.4286122,-8.958381137924022,0.06458456254478076,0.9222285560601879,-0.11209964223550735,13.272947287125866,-15.59654568609316,24.85129209021219
1760959302.438671,-8.451328425823501,0.050716608525500854,0.9142505714113293,-0.13713427734696307,14.70568627665372,-11.661308732604919,27.630846323884725
1760959302.4487488,-7.959685105052185,0.025183793102670844,0.911714143656099,-0.15494390341333872,16.162994605752942,-7.995455033876206,30.356666206098375
1760959302.4586043,-7.491871458481392,-0.007803061019888255,0.9134809526790679,-0.16488828195110905,17.438221994267,-5.039747636802819,32.80523109694449
