timestamp,angle,linear_acceleration_x,linear_acceleration_y,linear_acceleration_z,angular_velocity_x,angular_velocity_y,angular_velocity_z
1760598092.9372518,-6.899836332127676,-0.08300148019526984,1.0211784510391824,-0.1433634646493913,-4.751635153884962,22.959438133755796,-10.925111826831625
1760598092.947268,-6.92677211508666,-0.0839478760611159,1.019528619603782,-0.1472600788951548,-5.008267166126353,21.279672588032746,-9.83114051694224
1760598092.9572558,-6.942825624623667,-0.08628128162503669,1.0157845239768337,-0.14802240603833727,-5.193721747606421,19.282559131414477,-8.72933322257383
1760598092.9672687,-6.950021457708756,-0.08949686013834177,1.0102380097860852,-0.14576327062741812,-5.310598421090546,17.00803108298473,-7.708162649066289
1760598092.977252,-6.950272468397012,-0.09292203226594416,1.00335409044671,-0.1407863151416955,-5.362948502319371,14.497303838696048,-6.8537342669193375
1760598092.987278,-6.9451547054672345,-0.09576547740574312,0.9957302141986778,-0.1335339700171484,-5.354770922262096,11.7913866129423,-6.241249639880916
1760598092.9972825,-6.935684870755292,-0.09717506346907809,0.988038791147929,-0.12452421973525414,-5.288408011810994,8.929885570525508,-5.927213874901136
1760598093.0072727,-6.922132024315583,-0.0963071236306311,0.980958252223158,-0.11428602887465787,-5.163177331709233,5.950382555680223,-5.94338638243785
1760598093.017267,-6.9039145211797,-0.09241248638604985,0.9751006963659136,-0.10330300055473672,-4.974546423280971,2.8886325747135313,-6.29327268055393
1760598093.027299,-6.8796378040088575,-0.08494001343364734,0.9709454536659508,-0.09197278886177651,-4.7140729957085465,-0.2203436977712356,-6.951595767658797
1760598093.037392,-6.847308859317114,-0.07364859324402066,0.9687873781698659,-0.08058656577028434,-4.370231977673504,-3.340451176423259,-7.866737547957306
1760598093.047318,-6.804724403501234,-0.058709904317863666,0.9687068662102646,-0.06932938658550633,-3.9301534872554384,-6.4324537217271285,-8.965715273287714
1760598093.0572863,-6.749987565672537,-0.040781124535097746,0.9705660484684482,-0.05829922741325883,-3.38220200161111,-9.452316838778259,-10.160957637790508
1760598093.067368,-6.682076068441252,-0.021029203169180978,0.9740325261129532,-0.04754004718276008,-2.7192247274829824,-12.350684308439927,-11.358015595668784
1760598093.0772638,-6.601370245491557,-0.001094075412455596,0.9786283296006723,-0.03708253785285197,-1.9421722190940132,-15.074100419725141,-12.463368034694433
1760598093.0872865,-6.510051281902491,0.017014776069850756,0.983797706739997,-0.026985357207258222,-1.063650509196935,-17.56833041671083,-13.391608311829929
1760598093.0972934,-6.41229441881256,0.031086744967386882,0.9889838714882095,-0.01736973876446186,-0.11084158370961635,-19.783747021723936,-14.07145750867711
1760598093.107289,-6.314203058936968,0.03893441618644141,0.9937033340682161,-0.008441437472486407,0.8728071113961859,-21.68226100664184,-14.45019138934964
1760598093.1172516,-6.223454350423127,0.03865630453315486,0.9976077485083287,-0.0004957509676699153,1.827620746194596,-23.24473575380896,-14.496173696754118
1760598093.1272492,-6.148655490564683,0.028910339932223236,1.0005270450549981,0.006096449949121613,2.6797105036723647,-24.477346284433153,-14.19927837235799
1760598093.1372287,-6.09844579281758,0.009159125588528482,1.0024921941289586,0.010921556181001628,3.344868112449975,-25.415078566297137,-13.569101779363107
1760598093.1472447,-6.080423941324772,-0.02016050705633404,1.003738602010195,0.013573307182633755,3.733923153290744,-26.12070869599258,-12.631059879145049
1760598093.157248,-6.100028459477176,-0.05759069024018871,1.0046907992331402,0.013718084360653162,3.7589717044370796,-26.678310439778773,-11.420747330796425
1760598093.1672401,-6.159540440778312,-0.10076109966203031,1.0059279322451191,0.011172762180068846,3.339942441925281,-27.181597906513304,-9.977260546918941
1760598093.1772492,-6.2573930780297475,-0.14665603395069882,1.0081294469982713,0.005989127034785414,2.41120161374778,-27.71893183649593,-8.33646397419061
1760598093.1872382,-6.387944296172205,-0.19200246562546838,1.0119993123551172,-0.001468162891960308,0.9281220248994501,-28.358096806412078,-6.525306523504809
1760598093.1972518,-6.541790999227707,-0.23370149574783716,1.0181643633443969,-0.010469891287379593,-1.1264616775679783,-29.13447367731227,-4.558209269300018
1760598093.207242,-6.706593824793655,-0.26920544165630905,1.027044125586122,-0.019916045105436996,-3.7362953772700327,-30.045700171014538,-2.4362590261632175
1760598093.2172456,-6.868276314172675,-0.29675796586233355,1.0387032439873045,-0.02838379702790112,-6.8471033186816666,-31.05440794105408,-0.14951965229616831
1760598093.2272596,-7.012396659393936,-0.31546162389760707,1.0527197815733849,-0.03422563656438921,-10.364582953349403,-32.09854998600301,2.317736024804469
1760598093.237286,-7.125478417318128,-0.3251925499307214,1.0681175577263204,-0.03570734135462917,-14.15630960054011,-33.10677810910554,4.979640888461255
1760598093.2474482,-7.196121162547821,-0.32641969010804944,1.0834043194395693,-0.031175925533331962,-18.058518051340922,-34.01489519381029,7.840535970061746
1760598093.2573347,-7.21577309090785,-0.31999484553516977,1.0967302085795874,-0.019247961886342473,-21.887987428710474,-34.779035123899085,10.887744415806234
1760598093.2673116,-7.179115069208986,-0.3069660483113679,1.1061458876763968,0.0009954161591649935,-25.458261803521463,-35.38209420907285,14.08721641610205
1760598093.2772748,-7.084065719702809,-0.288444055132914,1.1099117526492575,0.029827445166276247,-28.598416584721594,-35.8318880273388,17.38355857792471
1760598093.2873065,-6.931462531280482,-0.265530096373264,1.106797460182214,0.066735396918585,-31.17176627793835,-36.151977968753386,20.705045435937002
1760598093.2974033,-6.724502532009121,-0.23929596539707523,1.0963148577548714,0.11035044333150891,-33.09152272152988,-36.36826851541098,23.972969120149536
1760598093.307375,-6.468039356886383,-0.210795780387505,1.0788411771955795,0.15847456653322894,-34.330644912549985,-36.49557116768977,27.113487454753756
1760598093.317335,-6.167835152619376,-0.1810839970832785,1.055606365553569,0.2082222778446845,-34.92404252172465,-36.52807885852468,30.069347371923076
1760598093.3272629,-5.829858775981853,-0.15121811632066046,1.0285381184895084,0.25627867704305146,-34.962727060622136,-36.43636273082076,32.808726594971574
1760598093.3372576,-5.459707403783892,-0.12223518687431224,0.9999838531435493,0.2992527351849019,-34.58102499976485,-36.17167140898842,35.329008718041194
1760598093.347265,-5.062207093204864,-0.09510311783006538,0.9723582221568124,0.3340788244776623,-33.939128310943346,-35.67653561927261,37.65443306242786
1760598093.357244,-4.6412197455168975,-0.07065548746819122,0.9477870315245924,0.3583972685360819,-33.20382293283105,-34.899302919665864,39.82793312995489
1760598093.3672602,-4.199651963112887,-0.049520700407180325,0.9278215096565652,0.37083800933063493,-32.530178049358646,-33.80941827837954,41.89876561200916
1760598093.377273,-3.739630415565255,-0.0320562914773089,0.9132765876020047,0.3711517700324587,-32.046371400376415,-32.41010709142609,43.90846848249988
1760598093.3874164,-3.262784777554067,-0.018300248739393513,0.9042113455875697,0.3601766063326954,-31.842861354146617,-30.7455946063108,45.87807963688495
1760598093.3972664,-2.7705678662449147,-0.007952692144335428,0.9000348817816295,0.3396725527830453,-31.96613591259469,-28.900986400105978,47.79930550264604
1760598093.4072607,-2.2645445002483644,-0.00039938329728474533,0.8996983223748946,0.31208030490880473,-32.4166107466794,-26.994260645823463,49.63150728486214
1760598093.4172564,-1.7465936060385228,0.005219504642893598,0.9019249923649385,0.2802537384729675,-33.15005235070218,-25.16128770016713,51.305170530826615
1760598093.4272602,-1.218987980107627,0.009905668340087187,0.9054320879696136,0.24719014744596757,-34.0820420173929,-23.536138279246575,52.73122853562085
1760598093.4372578,-0.6843383714042388,0.014688396165129335,0.9091058377374641,0.2157588356232131,-35.095189403899816,-22.22984218635609,53.8145216345187
1760598093.447312,-0.14541049235386028,0.02052936317633494,0.9121067536248639,0.1884302087833554,-36.04884488732162,-21.31096336744971,54.469014856065314
1760598093.4572606,0.3951551665749894,0.02826677654732457,0.9138998644055382,0.1670336076343928,-36.79096531505157,-20.790876420001354,54.63223545552899
1760598093.467286,0.9351706990431752,0.038599434061973595,0.9142226924997109,0.1525948450375,-37.171672788688674,-20.615754737314177,54.27665688172411
1760598093.4772637,1.4732090071303694,0.05209151209287591,0.9130161035663289,0.1452959643756269,-37.05786673200264,-20.66636351191358,53.41631690876401
1760598093.4872732,2.0088188877871755,0.06916792664089458,0.9103470309786952,0.14456266209819205,-36.3478229476258,-20.76593564700603,52.10770730510091
1760598093.4972773,2.542579613609079,0.09007403938730613,0.906348464519295,0.14924569210862682,-34.98406762299656,-20.695565227403097,50.44483945316593
1760598093.5072823,3.075953445883424,0.11479486230701583,0.9011930105803955,0.15784317743274606,-32.96235297961925,-20.21553584993338,48.54929037996184
1760598093.5173273,3.6109393960924696,0.14296034731971838,0.8951020030204889,0.16871451287482828,-30.334746239481323,-19.089951036661812,46.556830361360035
1760598093.527284,4.1495860536002365,0.17378568711729642,0.8883744566505952,0.18025481302096705,-27.205786625393642,-17.11134272059866,44.602769361744244
1760598093.5373223,4.693467076326744,0.2060906155707167,0.8814078198902942,0.19101976178627772,-23.722053587408283,-14.121940743222142,42.80830242125693
1760598093.547291,5.243240354267647,0.23840976646446677,0.8746864762568485,0.19980502596739644,-20.05679693201406,-10.0290607602099,41.269799343994045
1760598093.5572731,5.798391069661076,0.2691673576523714,0.8687334819768159,0.2056904769647829,-16.392048801963625,-4.813386004545236,40.052205509755524
1760598093.5672414,6.357207234801322,0.296866741349241,0.864040714643071,0.2080618313922325,-12.90070791575983,1.46965393347394,39.18673791296857
1760598093.5773299,6.91697497466764,0.32024783303942816,0.860999236446378,0.20662306653736381,-9.7306455642921,8.694146810807835,38.67224864123304
1760598093.5872784,7.474331322172522,0.3383852307848219,0.8598465928630123,0.20140884931825545,-6.992290158937424,16.671955261003866,38.47925283579816
1760598093.5972443,8.025685051546654,0.35072147492761574,0.8606393898390223,0.19279596000276808,-4.750669257285885,25.163550232543855,38.5556598535467
1760598093.6072724,8.567611489402104,0.35704354048464354,0.86325225034225,0.18150164475637187,-3.022556189699416,33.890490628764006,38.83346721390538
1760598093.6172352,9.097142714852575,0.35741727943149243,0.8673983826795362,0.1685518819451951,-1.779035054761496,42.54897556780508,39.23584073620306
1760598093.6272726,9.611906785679155,0.35210009260275454,0.872663208476316,0.15520639287090796,-0.9532923370807055,50.824018745954916,39.68404213701956
1760598093.637275,10.11011176779718,0.34145845017203824,0.8785424247250192,0.14283874250520467,-0.4527131297284711,58.40385187268048,40.103668813089605
1760598093.647263,10.59041079940046,0.3259183952849215,0.8844793678372063,0.1327848808351431,-0.17355393881379244,64.994261671578,40.42974765613872
1760598093.6572526,11.051711339970918,0.305967281161251,0.8899009994786361,0.12618432116241726,-0.015888063506768826,70.33259465766287,40.610385921578136
1760598093.6672654,11.492999323564339,0.28220465167499614,0.8942536425653953,0.12384037533313337,0.10356741721052445,74.20100283643788,40.60886931434216
1760598093.6772442,11.91323867211789,0.2554183467433066,0.897037202493677,0.12612405696764975,0.24268943766177162,76.43821294646993,40.40426621660467
1760598093.6872587,12.3113841649499,0.22665018631013273,0.8978338119190783,0.13294316573371884,0.43035886287279124,76.94887360108136,39.990731045536926
1760598093.6972542,12.686517631138162,0.19722032802951725,0.8963285323978005,0.14378719997156544,0.6681258952318018,75.7095004942392,39.37578581548328
1760598093.7072587,13.03808935087701,0.1686949654863647,0.8923231463925718,0.15783971212121212,0.9362289477513932,72.77020338203279,38.5778812043464
1760598093.7172604,13.366221936179075,0.1427966570676058,0.8857432579507796,0.17413328150390206,1.2022851630122398,68.25171336415517,37.62349598652496
1760598093.7272651,13.672015603176483,0.12126630147785857,0.8766368420661682,0.19171350648415267,1.4305318391298807,62.337710938922626,36.54397127950709
1760598093.7372901,13.957785000481532,0.10569475596231635,0.8651660475978634,0.20977495244267438,1.5896267899605734,55.262975788655396,35.372262787986934
1760598093.7474535,14.227161283521745,0.09735123427730234,0.851601210076285,0.22773544495776976,1.6578598281900938,47.298281336712904,34.13982669450838
1760598093.75724,14.485008908809462,0.09703964638121503,0.8363277718333413,0.2452284928669427,1.625851241018129,38.73319866778804,32.87383491722574
1760598093.7672768,14.737132191259617,0.10500823145814682,0.8198692036858228,0.2620165345115177,1.4976791244702807,29.858142208388216,31.594786947960735
1760598093.7772565,14.989779170260874,0.12092395330344333,0.8029159685026416,0.27785680984125066,1.2914035292056862,20.947145536769014,30.314440044878474
1760598093.7872655,15.248987519139233,0.1439093304098491,0.7863400505165902,0.2923746997595155,1.0393158474649518,12.24295985085651,29.033970960787936
1760598093.797267,15.519855491652624,0.17263292366794247,0.7711738236819214,0.30499796483736835,0.7875004860976527,3.9460481952326623,27.74247098653975
1760598093.8072543,15.80585244083323,0.2054443502506443,0.7585417529418245,0.3149771020144653,0.5939364748560924,-3.7911569754434487,26.4161813586542
1760598093.8172607,16.108296712718793,0.2405431864481738,0.7495473156916515,0.32148220743385775,0.5245690743232209,-10.86386655827447,25.01913235802748
1760598093.8272538,16.426113026688878,0.27616447660985055,0.7451294545972408,0.3237447731819314,0.6474241122681038,-17.208452528005388,23.505875717899222
1760598093.837538,16.755933084848955,0.31075463815649906,0.7459112664539767,0.3212067006789836,1.0255933165532056,-22.791091564482638,21.826664873265905
1760598093.8472686,17.092529233595748,0.3431060987422906,0.752068190224863,0.3136432274564342,1.7104052527237992,-27.59384145372579,19.934745260352063
1760598093.857286,17.429490058270115,0.3724218818529785,0.7632418318038606,0.3012374426170969,2.7360767844122686,-31.60103199526331,17.79458041190357
1760598093.8672645,17.75998610200598,0.39829565396395056,0.7785181072912217,0.28459825121804516,4.116676440510536,-34.788740827176134,15.389233425407152
1760598093.8773274,18.077459382010804,0.420616967077558,0.796477681947015,0.2647264835169671,5.845618521305515,-37.119409567112655,12.725079343238425
1760598093.8873842,18.3761092738789,0.4394359353825567,0.8153168249446333,0.24294097827680627,7.897421625133122,-38.54254265167307,9.832611917790626
1760598093.897349,18.651120567039086,0.4548335572942691,0.833029006581651,0.2207763165820467,10.231207286118275,-39.00118940473985,6.763085021804506
1760598093.9074547,18.89865500509406,0.46683784267338274,0.8476308033053257,0.19985901667098135,12.795343203172147,-38.44286693678655,3.5817017709795245
1760598093.9172616,19.11567983254373,0.47540619909396314,0.8574098405994282,0.18176470453033955,15.532667268747412,-36.83297562716996,0.35872336669322613
1760598093.9272623,19.299725424832708,0.4804701706645323,0.8611687457440295,0.16785951928292495,18.385809102090292,-34.16857233440552,-2.8399013480972655
1760598093.9372683,19.448652582214628,0.4820186112421473,0.8584377686032124,0.15913548279391418,21.30224622108099,-30.490408891856802,-5.960936797126669
1760598093.9472914,19.56048047881277,0.4801858493898158,0.8496291195584861,0.15605828807377808,24.238872359854934,-25.891265421027708,-8.970234968433154
1760598093.9573197,19.633292312423517,0.47531395311999497,0.8361077787669842,0.1584520432641852,27.165944127805943,-20.518794590287655,-11.85649875495756
1760598093.967287,19.66520807459759,0.46796975905785715,0.8201570870892688,0.16544628380970175,30.070223698213187,-14.571447797416981,-14.632276209701905
1760598093.9773083,19.65439834674463,0.4589115381378732,0.8048236988917965,0.17550649396956877,32.956913967976696,-8.286731215734115,-17.332311493706882
1760598093.9873705,19.599111360554136,0.4490109726683255,0.7936362570905856,0.18656153779555987,35.84964825304872,-1.9221136371590675,-20.009473519326505
1760598093.9973454,19.49769623818231,0.43914097559843995,0.7902066679497947,0.1962291586288304,38.78751854517026,4.269734437467233,-22.728447683516926
1760598094.007271,19.348622417000023,0.43003940638278004,0.7977441542969943,0.2021227486740753,41.8181330986,10.068335687474828,-25.557369367374726
1760598094.017374,19.15050906768691,0.42215601374642675,0.8185406292612097,0.2022005406617164,44.98615035134539,15.311374835046,-28.557753715327394
1760598094.0273256,18.90218132535669,0.4154908928870063,0.8535131148680075,0.19509970253000142,48.317647646472366,19.914739271486752,-31.773459530609827
1760598094.0374427,18.602762915165393,0.4094421171347455,0.9018963835833289,0.1803934278852705,51.80191839589467,23.882434434591836,-35.219892546059256
1760598094.047272,18.25180416741549,0.40269492797557166,0.9611541594760824,0.15872335490373357,55.37363017743809,27.303296287119963,-38.87501842933491
1760598094.0573227,17.84943617802797,0.3931957195350153,1.0271327743411591,0.13178287262430605,58.89938782451263,30.333247242317046,-42.6738697398762
1760598094.06736,17.39653660004969,0.3782547773930905,1.094442966923553,0.10214483207464035,62.17320153109486,33.164101499339395,-46.50802705844084
1760598094.077278,16.894889432658477,0.35481212308598176,1.1570314395524413,0.07293744905420668,64.92476982608605,35.98236987360391,-50.23102682368103
1760598094.087273,16.34732140569926,0.3198807297582529,1.208881934285719,0.04738515802406317,66.8426491490152,38.9239837261841,-53.669817001099844
1760598094.097375,15.75780204611876,0.2711467596088941,1.2447589123820728,0.02825865207788832,67.61140827875184,42.03306021748724,-56.64130626460598
1760598094.1072838,15.131500492686543,0.20765383455299105,1.260883726273106,0.01732252861098789,66.95833262696287,45.23406524022872,-58.97190081127787
1760598094.1173055,14.474793417264388,0.13043294231040656,1.2554287730715052,0.014909636934332116,64.70216119258919,48.326000246219294,-60.51704274091879
1760598094.1274493,13.795208690859834,0.042882116586618925,1.2287416511695648,0.019749078652868273,60.79475971037109,51.00381202890634,-61.17763155310005
1760598094.1373088,13.101267898125856,-0.04931111212195926,1.1832669194438685,0.029112999135181263,55.34720592169801,52.90626548085066,-60.911140939586026
1760598094.1474843,12.402168331240189,-0.1388337309352254,1.1231967096987976,0.03926061824949255,48.63450080724268,53.68245754921892,-59.73699153813947
1760598094.157268,11.707243713358055,-0.21795116955940716,1.053927158647009,0.04609354098396639,41.077246525264975,53.06341002780847,-57.73739496830851
1760598094.1673028,11.025183352764467,-0.2799897260659104,0.9814149185826787,0.04590418364695878,33.2027722503021,50.92303718328684,-55.05534323801772
1760598094.1772969,10.363073749510214,-0.3206902473233046,0.9115247764685013,0.036084544507431586,25.59118718567259,47.31502882042866,-51.89023977952117
1760598094.1873004,9.72543021317059,-0.33903322578706196,0.8494479712572631,0.015662156838716593,18.813410097894852,42.477750380030805,-48.48962758754037
1760598094.1973014,9.113464870707606,-0.3372979982653569,0.7992557478183487,-0.01444767761944234,13.368705985446606,36.806081777382246,-45.134184836660424
1760598094.2072856,8.524845773354764,-0.32036262061227644,0.7636312366683026,-0.05153719236514505,9.629044617478511,30.795408652633956,-42.1139326019714
1760598094.2172594,7.9541135884658045,-0.2944767412215602,0.7437927532082387,-0.09154849531268287,7.796905028700034,24.967863936050883,-39.696418974462055
1760598094.2273784,7.393750483824186,-0.26587039215342784,0.7395875707952739,-0.12979092698861847,7.882007162899839,19.794100588181852,-38.09118458292913
1760598094.2372794,6.835696420850883,-0.2395668691896338,0.7497080391729465,-0.16179491509522625,9.700661588372139,15.624990452500823,-37.41737098958318
1760598094.2473402,6.272960516619696,-0.21866342819857137,0.7719718795830194,-0.18412199725510928,12.898769947851626,12.646100328564122,-37.68181060451937
1760598094.2572773,5.700943577476202,-0.2041766811734952,0.8036161396720534,-0.19495503542620202,16.99610820156185,10.863274647712831,-38.77319073502462
1760598094.267296,5.118185220931511,-0.19538107246465275,0.841570545143717,-0.19434829918992438,21.44602658675271,10.120772011012114,-40.4745013943022
1760598094.277266,4.5264277635446915,-0.19045215150306571,0.8826923155157869,-0.18410431779752934,25.702022445920814,10.145966860719835,-42.491962474317184
1760598094.2873673,3.930070285624998,-0.1871900829131864,0.9239583534500272,-0.16733230061794377,29.281519683260132,10.6089813483085,-44.49513687543073
1760598094.2975297,3.3352073788557997,-0.18363727645586703,0.96262069435279,-0.14780757319326335,31.81789282915135,11.183408798183937,-46.16094155368388
1760598094.3073673,2.7484906684617667,-0.17848291059764054,0.9963339803711271,-0.1292801284463107,33.09410088700295,11.595797480979131,-47.214200406222886
1760598094.3173335,2.176034998664456,-0.1712278852986936,1.0232588213750795,-0.11487054344983705,33.05464464199935,11.655922239995713,-47.45896966337365
1760598094.3272784,1.6225406459650722,-0.16214473786194422,1.042137381676505,-0.10665218297059664,31.796099285801134,11.26560160832203,-46.797314218189406
1760598094.337316,1.0907377095251656,-0.15210029649560217,1.0523339118383004,-0.10546499111999036,29.539486645695515,10.409176436334374,-45.23466799093632
1760598094.3473008,0.5811935824613099,-0.14231152928387134,1.0538348122503998,-0.11095232849029421,26.589891710030958,9.132266063285302,-42.872846114008105
1760598094.357292,0.09246897207942714,-0.1340858016906137,1.0472073437797789,-0.12177158988741586,23.289911678382882,7.516417446400225,-39.89304247478134
1760598094.3672967,-0.3784350730507158,-0.12857651286586647,1.0335210168851139,-0.1359115373094595,19.973715552777207,5.656072911501773,-36.53180686008295
1760598094.3772657,-0.8354295497739685,-0.12657846892013605,1.0142405040960751,-0.15105226917491932,16.927715925211352,3.6417839304930077,-33.053199216701714
1760598094.387294,-1.282603109799381,-0.12838893807800653,0.9911025585887178,-0.16491596606281933,14.362320935660538,1.550802709482377,-29.7202478341724
1760598094.397265,-1.7235248322288008,-0.13375577560327248,0.9659899005965025,-0.1755689659727676,12.397282369915912,-0.5560783370648865,-26.768646437528655
1760598094.4072683,-2.160700247425964,-0.14191864880986058,0.9408116830323632,-0.18164653825193977,11.061100125245515,-2.6338495799183663,-24.38534032686852
1760598094.41726,-2.5952681706269876,-0.15172961839455107,0.9173947291678595,-0.18248233485618962,10.303016026198435,-4.65144381098148,-22.69415691217669
1760598094.427254,-3.026976436302951,-0.16182223156891923,0.8973851687891506,-0.1781357969020234,10.014520731781726,-6.590869148446276,-21.749786118386567
1760598094.4372709,-3.4544105686103985,-0.17078864271585573,0.8821583819882929,-0.16932282241073585,10.056185240178934,-8.44839955524668,-21.5402156706906
1760598094.4472775,-3.875389775525618,-0.17732740100927044,0.8727364393868481,-0.15726696179199462,10.285166368713936,-10.23764255822122,-21.99640476070388
1760598094.4573274,-4.287415352645784,-0.18034267039190938,0.8697156091066661,-0.14349832427415637,10.579004274978299,-11.99315217588708,-23.00689445395533
1760598094.4672706,-4.688071049781005,-0.17900110334556776,0.8732108804911721,-0.12963320842681214,10.85229698335173,-13.772532622714142,-24.43451179495395
1760598094.477293,-5.0753208390418765,-0.1727703210509942,0.8828281744759681,-0.11716849704575592,11.064339097119406,-15.654914235758161,-26.132442802069082
1760598094.487282,-5.447698196600696,-0.16146283925185775,0.8976757979060977,-0.1073208739863196,11.217557986283007,-17.734331160435374,-27.957606985823492
1760598094.4972887,-5.804409811706683,-0.14529454268181835,0.9164234781262073,-0.10093144773777767,11.348195924227113,-20.10771542091036,-29.780181694417678
1760598094.5072796,-6.145381613860427,-0.12494932912204773,0.9374107939091826,-0.09844219277239102,11.511830017558633,-22.858594190220487,-31.489011571751906
1760598094.5172873,-6.471266069344727,-0.10163055298827466,0.9587993418237101,-0.09993457837127609,11.766822296076517,-26.0387702982017,-32.993323020226306
1760598094.5272684,-6.783417671469715,-0.07707622429995445,0.9787567372736349,-0.10520679038257592,12.158693148678093,-29.65103240258825,-34.22159227097485
1760598094.537285,-7.083832646715786,-0.05351495636878433,0.9956566648130457,-0.11385925906942071,12.707878804217787,-33.636159069252365,-35.118594312287684
1760598094.5472908,-7.3750394424792125,-0.033542784408342095,1.0082774608620286,-0.12536426619685834,13.402520485871346,-37.86710174569903,-35.6416222680971
1760598094.5572753,-7.659920648468662,-0.019910443539741203,1.0159799018540825,-0.13911356964721142,14.196939997406885,-42.152289817546226,-35.75668577012262
1760598094.5672708,-7.941448203392966,-0.01522695625467868,1.018840248009718,-0.15445433030814373,15.015416159597756,-46.24865876532181,-35.43526749852175
1760598094.5772657,-8.222323315860526,-0.021604095217993006,1.0177090145016214,-0.17072069062411932,15.76000091586909,-49.883507752190376,-34.65200180093658
1760598094.5872653,-8.504529699692798,-0.04028579976966558,1.014166974024043,-0.18725184361686842,16.32058739369565,-52.782865888515865,-33.38344577000516
1760598094.59729,-8.788832632429603,-0.0713284417066661,1.0103629343565468,-0.20338489089558098,16.585292172099603,-54.70284908579057,-31.60792715966486
1760598094.6072803,-9.074283752025158,-0.11341426599827385,1.0087393774494742,-0.21842925796506502,16.449375817624407,-55.45972434374451,-29.306286820635954
1760598094.6172707,-9.3578141445433,-0.16387297415531996,1.0116745296010092,-0.23164206773002594,15.821415867192886,-54.95433509905654,-26.463236093258164
1760598094.6272886,-9.634005845758985,-0.21894508124365225,1.0210891938962532,-0.24221255785524426,14.626327972773957,-53.187319458722584,-23.069052810115775
1760598094.6373167,-9.895117942845921,-0.2742582470010664,1.0380821264382085,-0.2492466061135402,12.805955359028788,-50.26298634080697,-19.121390077530076
1760598094.6472974,-10.13140883295931,-0.325431792190095,1.062663314257886,-0.2517471367141433,10.318854159080193,-46.38139056444347,-14.62697646524903
1760598094.657309,-10.331747652683624,-0.3686948885137963,1.0936436044402142,-0.24861176081774308,7.14107972160283,-41.81970987340511,-9.602923319694705
1760598094.6672895,-10.484453690444086,-0.40140152038441607,1.1287132315480648,-0.23868797994462765,3.269031658484527,-36.905322310415265,-4.077307356895328
1760598094.6773188,-10.578250839256256,-0.4223438512872746,1.1647106705114145,-0.2209172461667768,-1.2759468552971944,-31.98400174787159,1.9112103058394165
1760598094.6872642,-10.60318746184597,-0.4318036088962685,1.1980531859250594,-0.19456497473710424,-6.442803499227658,-27.387357699168977,8.31465247738479
1760598094.697283,-10.551368751426605,-0.43133550313536645,1.2252686428171669,-0.15949164505930868,-12.147979216121609,-23.403852111110655,15.077327006702602
1760598094.7072735,-10.41738974156331,-0.4233334841797316,1.243534981257873,-0.11638995862226625,-18.276341449881993,-20.25714745524898,22.13681794390676
1760598094.7172773,-10.198431109261655,-0.41047318834751817,1.2511141136530364,-0.0669102185382433,-24.68666127467627,-18.09405638620392,29.423467411368776
1760598094.7272666,-9.8940579583541,-0.39514574560867327,1.247579630769019,-0.01362342097357616,-31.2213816690593,-16.982265270351668,36.85807199230543
1760598094.7372923,-9.505817945715949,-0.37899927471251116,1.2337855696163624,0.040185619637664385,-37.71947415348598,-16.916009731402724,44.34846480390617
1760598094.7472878,-9.036758775125623,-0.36268213339189503,1.2115897598958771,0.09086516121202669,-44.03039243272596,-17.826788216372734,51.786409109812496
1760598094.7572832,-8.49097849914749,-0.3458359765702001,1.1834061674747796,0.1348308780216834,-50.02657731227421,-19.596360785751116,59.046394384231036
1760598094.7672675,-7.873293813479526,-0.3273291390187285,1.151699653100435,0.1690230430734075,-55.61182210364146,-22.070336024803545,65.98747057400216
1760598094.7772706,-7.1890715532326945,-0.3056706327350233,1.1185477674230186,0.19131513389658072,-60.72331619764548,-25.07178761890763,72.45847895508612
1760598094.7872696,-6.444225028952007,-0.27951156326704524,1.0853746087005003,0.20080812582864283,-65.32653447168975,-28.414858102388582,78.30631902268924
1760598094.7972817,-5.645336059180093,-0.24812242596943135,1.052906606681242,0.19797188180111477,-69.40418353668775,-31.91803098795218,83.38641122928514
1760598094.807408,-4.799832656637204,-0.21173350212351297,1.0213186471421853,0.18462784407676053,-72.94243281110302,-35.416097722520824,87.57419589624087
1760598094.817458,-3.9161381550317076,-0.1716511483463935,0.9904718242711126,0.16377578011807728,-75.91857620845013,-38.76945941626719,90.77624240946744
1760598094.8272688,-3.003711470142662,-0.13011529511874464,0.9601357155508108,0.13925790222894438,-78.29347639391176,-41.869617615802106,92.93942966273245
1760598094.8372684,-2.0729146918445327,-0.08992370480956173,0.9301353155204464,0.11526977488254753,-80.01019011771241,-44.64030002977213,94.05690857138394
1760598094.8472743,-1.1346682263137233,-0.05389644113982853,0.9004191585856127,0.0957813574427032,-80.99834081193752,-47.03425355760517,94.17016263951223
1760598094.85728,-0.19988678229079554,-0.024286204267747597,0.8710739132243683,0.08397865888481258,-81.18287458015264,-49.02626687002999,93.36713445444704
1760598094.867341,0.7212653742513507,-0.002258716871909399,0.8423091004505051,0.08183641150690098,-80.49560212760122,-50.6035946949507,91.77677969747897
1760598094.877304,1.6202091497505386,0.012434829809786946,0.8144219322763829,0.08989324650714854,-78.88784166382206,-51.755536305585004,89.56050986580966
1760598094.8872583,2.490738409192629,0.021501735673398716,0.7877478891237873,0.10725172679774553,-76.34229292685251,-52.464168661751884,86.90095861326077
1760598094.897266,3.3296001150553622,0.02783295408182821,0.7626111103012757,0.13178286337806572,-72.88206865151197,-52.698042482563864,83.98854466271204
1760598094.9073017,4.136719532663805,0.03494743853028664,0.7392928531314769,0.16048579246509234,-68.5748381585073,-52.41015302705666,81.00654585760712
1760598094.9172952,4.914980483075657,0.046268835071848625,0.7180274437985852,0.18993969026513566,-63.53065909675445,-51.540795842541485,78.115884295055
1760598094.9272926,5.669561954056131,0.06440102291050606,0.699024951550511,0.21678080869436459,-57.89341904846936,-50.02501221914092,75.44139075576362
1760598094.9372725,6.406932320584043,0.09057759458108267,0.6825154976008355,0.23813833931239228,-51.827408681225045,-47.80332998049013,73.06162627188436
1760598094.9473078,7.133681304196791,0.12441761856544072,0.6688044646886182,0.2519706731195378,-45.50164484017661,-44.83367872671414,71.00410951404082
1760598094.9572906,7.855405423667978,0.1640386814997865,0.6583175382452228,0.25726044727976116,-39.074786139485674,-41.101960907298015,69.2470151746016
1760598094.967266,8.575846364368301,0.2064838122886233,0.6516073558337231,0.25405097525508485,-32.68299068761918,-36.628952362304524,67.7272637442737
1760598094.9772882,9.296419708009575,0.2483419712228629,0.6492979036067531,0.2433345559759336,-26.432206366661593,-31.472033028208955,66.35367966311874
1760598094.9872756,10.016182091982305,0.2864063256964129,0.6519602088327624,0.2268291849662857,-20.395472887133824,-25.721518150447313,65.02285453023751
1760598094.9972837,10.732190819841515,0.31822594793219133,0.6599394838431444,0.20669722649175876,-14.615032117219046,-19.492608520672302,63.6348202476523
1760598095.0072944,11.440131446299434,0.34245134309552444,0.6731804947842441,0.18526197415486165,-9.10839677470406,-12.91475556373241,62.10578677755266
1760598095.0173008,12.135041904810747,0.3589313408902411,0.6911082437298701,0.16476605298815294,-3.876966508030303,-6.120462019904414,60.375977256376274
1760598095.027283,12.811957062136699,0.368571363404581,0.7126029582613383,0.14719629743285778,1.0846500836393698,0.7645421713735157,58.411771092475504
1760598095.0373616,13.46633554323727,0.3730031207390665,0.7360729388867959,0.1341808965955219,5.78059541502485,7.628005349608208,56.20264207639902
1760598095.047335,14.094198554181405,0.37414290339561146,0.7596028457027479,0.12694956584090428,10.208695649059306,14.373384264627521,53.75444704850623
1760598095.0575404,14.691988743462561,0.3737304513223934,0.781150110365051,0.12633656457386475,14.359270602240699,20.916960318341513,51.081240179159494
1760598095.0673573,15.256228593149087,0.37294141017111787,0.7987661983243066,0.132800920031256,18.217602498695356,27.180192813767476,48.19785588943796
1760598095.077308,15.78311027968502,0.3721521238791984,0.8108185725979004,0.14644154598169273,21.76870812857787,33.07870927517673,45.11506985453822
1760598095.0872936,16.268173848808786,0.37090665651277904,0.8161835451880268,0.16699834883766138,25.00224088772669,38.510274139485254,41.838383090172016
1760598095.0974956,16.706222188717305,0.36809547998328834,0.8143780054925421,0.19384713935790374,27.915109860500987,43.344748349515875,38.37061271406269
1760598095.1073256,17.0915778636792,0.3623088330268138,0.8056049762566473,0.22600314302732977,30.51001455580352,47.41913179473306,34.717697554983985
1760598095.117293,17.4187128312107,0.35228547209813516,0.7907036994665271,0.2621410207149699,32.78969865564837,50.539942884584235,30.89648313714387
1760598095.1273243,17.68319036378733,0.33735311011811897,0.7710142997480444,0.3006318737297614,34.74879184196911,52.49358796014089,26.942721429448895
1760598095.1372926,17.88276939209339,0.31775971156769406,0.7481826119322845,0.339601863493362,36.366397869325105,53.0637459464262,22.91716986569423
1760598095.1472926,18.018456117368228,0.2948220709127561,0.7239372489000702,0.37702360930346424,37.6022908109368,52.0538006663234,18.907648129328006
1760598095.157284,18.095261309333686,0.2708576752034889,0.6998698108633847,0.41084146059525584,38.39824434229688,49.311974018131174,15.025312674664795
1760598095.1673064,18.12244286618106,0.24890796737750756,0.6772485880291715,0.4391055364946757,38.684784989570296,44.75663526952037,11.394241878662735
1760598095.1772935,18.113086619846918,0.23230211944391088,0.6569040213929987,0.46007408232674896,38.39296808410958,38.39908848139007,8.134633214437763
1760598095.1872888,18.082998797411683,0.22414442202120724,0.6392349096384242,0.4722622393878067,37.4702901098815,30.36109182841781,5.341367510118997
1760598095.197283,18.04902313733373,0.22682251123226413,0.6243743742335851,0.47445414352153625,35.899235025857735,20.88464091329106,3.061136411193026
1760598095.207267,18.027009003642764,0.24161944060429977,0.6125057051033727,0.4657180246875386,33.7162091582155,10.332262492854108,1.2723972570366915
1760598095.2172885,18.029712674415908,0.2684797321231976,0.6042493891080717,0.44545469528432696,31.027922180552576,-0.8228656485497544,-0.12725750192759197
1760598095.227282,18.064916344268653,0.30594803083703687,0.6009985742546474,0.4134839892579553,28.021788398613836,-12.01651584085428,-1.3224127559280732
1760598095.2373219,18.134019952703277,0.35127826619548613,0.6050842382315972,0.37015140266273133,24.966817495125284,-22.621412263008057,-2.567607665759964
1760598095.247298,18.23131124883075,0.40069534589646105,0.6196904187880593,0.3164248641545764,22.201948841467317,-31.981855347879087,-4.161705681924406
1760598095.2573223,18.34404709861277,0.4497725575731643,0.6484917391417196,0.2539496823799321,20.110077462808125,-39.4530313760858,-6.411452819160231
1760598095.2672913,18.45338056657288,0.4938674375037554,0.6950382232827094,0.18503918431537178,19.078198733153442,-44.44304941711155,-9.588932372406633
1760598095.2774796,18.536050635377713,0.5285470556628084,0.7619619247648383,0.1125949987225329,19.446928998265275,-46.45577122993019,-13.889079907004946
1760598095.2872877,18.566634893712653,0.5499404553497741,0.8501234271826352,0.039964792950424134,21.455532140083847,-45.13242780865641,-19.393981190035507
1760598095.2972867,18.520077438961994,0.5549814034311278,0.9578498222462158,-0.029248736556533202,25.19066877159806,-40.289696637503155,-26.05010524433756
1760598095.3073041,18.374166496250258,0.5415378443251314,1.0804334513643576,-0.09141385243688174,30.547730351325768,-31.951374481287083,-33.66284428584206
1760598095.3172936,18.11165643075963,0.5084521987111975,1.2100551042890402,-0.14312018525532988,37.21270422851132,-20.370259888235136,-41.90998425272558
1760598095.3272893,17.721799548019074,0.4555315383918126,1.3362579096032496,-0.18144808931198417,44.67040767201682,-6.036676029573762,-50.37256295522733
1760598095.3373263,17.20115711649877,0.3835295259934934,1.4470204746778668,-0.20425516832490975,52.24209399924719,10.32954720029399,-58.5786606372943
1760598095.3473394,16.55367539678021,0.2941571064294172,1.5303586581635273,-0.21047475986376432,59.15206154400447,27.8059177287086,-66.05358546036501
1760598095.357306,15.790119946710805,0.19014654093926076,1.5762407611620357,-0.20040606395926042,64.61879568562443,45.31422577639652,-72.36897668673035
1760598095.367327,14.92703997709969,0.07536653840343564,1.5784661812371794,-0.17594760989560368,67.96109772357146,61.68799429405074,-77.18366981198683
1760598095.377332,13.985465603541599,-0.04506443025554533,1.536078255000013,-0.14069047612224062,68.70409668219547,75.7596787216256,-80.2709563808484
1760598095.387322,12.989511956340719,-0.1647885200633844,1.4539066734648265,-0.09976419586932407,66.6658387974167,86.46431093639833,-81.53027646288388
1760598095.3973083,11.964981916350679,-0.27650774692074465,1.3420005516860807,-0.05934691113344192,62.00489061698786,92.95158560565928,-80.9856216546265
1760598095.407295,10.937963330119542,-0.37268454296247516,1.2140036042693618,-0.025833425105019476,55.214752752166646,94.69228598918687,-78.77587214785956
1760598095.4172843,9.93336912322712,-0.4465843275405952,1.0848372125007957,-0.00478385615078591,47.06125810232781,91.55991910100265,-75.14185153243312
1760598095.4273293,8.973412182532899,-0.4933942249389005,0.9682557846294092,0.00010996178105330576,38.4716504067083,83.86769134026355,-70.41120646285783
1760598095.437314,8.076123594244153,-0.5110531933511765,0.8748379301801088,-0.012231210134829404,30.394920071431077,72.34675986833327,-64.97808954941945
1760598095.447334,7.254139709025895,-0.5005157847229188,0.8107969227918237,-0.04002917122025159,23.65921353719627,58.06358113779938,-59.27331398539453
1760598095.4573169,6.514019523455508,-0.46539504977035207,0.77772820007183,-0.07898732729838841,18.85248024795026,42.288428023761625,-53.72344919911032
1760598095.467291,5.856271036295625,-0.41116019164089523,0.7731656693410248,-0.12314549921091415,16.247399909733414,26.338611083282448,-48.702876662133235
1760598095.4774587,5.276091212317634,-0.34418566717378785,0.7916651596635403,-0.16604068129327385,15.782504207246815,11.424903161844478,-44.48809218469778
1760598095.4873421,4.764636833589932,-0.27092148627662305,0.8260951450486139,-0.20188499122441497,17.10019233480151,-1.4728163980363804,-41.22549577626677
1760598095.4975467,4.310525446626577,-0.19732329063705245,0.8688690407605513,-0.2264934813556735,19.63119480825829,-11.683245845099583,-38.92123641778741
1760598095.5073125,3.9012572987388663,-0.12853502065850148,0.9129521973139629,-0.2377979986714752,22.7063252386903,-18.86898949327932,-37.45558708920002
1760598095.5173416,3.524334145321024,-0.06873484246467877,0.9525734161020757,-0.2359097298804315,25.67225960053105,-23.005258229762585,-36.617679218941625
1760598095.527716,3.1679786621137938,-0.02105615794550818,0.9836379068116251,-0.22279422175982655,27.989676664822824,-24.32565970435912,-36.15185890473711
1760598095.5376022,2.821479113057696,0.012458700790602446,1.00387197032432,-0.20168425839539933,29.298558135487806,-23.251805924492594,-35.8055258602781
1760598095.5472977,2.475268228438175,0.03087413659154191,1.0127409134817582,-0.17638235127858792,29.444330876965093,-20.321685688758556,-35.36963261371281
1760598095.5574682,2.1208837227922803,0.03433436976025671,1.0111862645427698,-0.1505992360042487,28.467049737238476,-16.1267433297411,-34.70590909449981
1760598095.5672972,1.750953885641767,0.023986823830591048,1.0012360182870288,-0.12743986993082493,26.5620494974999,-11.261674240771846,-33.7582503627313
1760598095.5773828,1.359313442246469,0.0018575791423317471,0.9855520591482289,-0.10909488689246095,24.023737600393655,-6.28628151640575,-32.54882554646013
1760598095.5873256,0.9412911886442533,-0.0293156817009684,0.9669840714668977,-0.09674196030002262,21.184672273685905,-1.6965417679731207,-31.161912101418284
1760598095.5974822,0.4941329170049567,-0.06629079127592714,0.9481913870005385,-0.09062229514735264,18.36043920875624,2.097826871359259,-29.72001327006182
1760598095.607291,0.017450654423343877,-0.10556857621974962,0.9313729776369817,-0.09023587634663122,15.80787413213135,4.790533774030323,-28.35738982551704
1760598095.617301,-0.48644988929810173,-0.14367362606183312,0.9181186032920327,-0.09459226028498842,13.700609606041555,6.190214806830775,-27.195760748029535
1760598095.6272974,-1.0124965500295116,-0.17744305195676802,0.9093705130648917,-0.10245831756873869,12.122394284217513,6.224816251012955,-26.325770792213287
1760598095.6372776,-1.5530995793488733,-0.20428113277543516,0.905470616681085,-0.11255776812824059,11.075658198024398,4.937320818302282,-25.796201143755354
1760598095.6472898,-2.0987018600703364,-0.22233633602159633,0.9062625612641787,-0.12369691652213116,10.500757264714832,2.4720777636775866,-25.611225535497457
1760598095.6573813,-2.638538293912825,-0.23057417145671427,0.9112187958237391,-0.13481347053751908,10.300436652666413,-0.9475823701850162,-25.73466267233951
1760598095.6673129,-3.1614785233613003,-0.22874563058197606,0.9195672781263857,-0.14496607402096298,10.364291180921466,-5.048175282734911,-26.099338142373522
1760598095.6773353,-3.656832705808627,-0.21727386604880494,0.9303998065447777,-0.15329568730622176,10.5891213660147,-9.537771075291136,-26.61933367490731
1760598095.6873136,-4.115031148901578,-0.1970936414045587,0.942752540068899,-0.15899236065561845,10.892691641133004,-14.136394906843202,-27.202949444359195
1760598095.697325,-4.528129664306772,-0.16947940166170966,0.9556571997941464,-0.1612923858684505,11.22008576472117,-18.601097631661144,-27.764506959896842
1760598095.7073064,-4.890133837834863,-0.13589358646345734,0.9681675348323463,-0.15951592557512428,11.543300635332496,-22.742573743047906,-28.23357989313438
1760598095.7172997,-5.1971719899188225,-0.09788046170144755,0.9793698422408137,-0.1531414255407954,11.855725417907863,-26.43166543231644,-28.5607944072422
1760598095.7273018,-5.447573115193015,-0.057021746241288196,0.9883891046112072,-0.14190545095716015,12.163655390510062,-29.595833076271504,-28.719932590457628
1760598095.7373621,-5.641916049770501,-0.014957008342934846,0.9944036068470369,-0.12591292117363104,12.477052395506147,-32.20735610516748,-28.70662597365052
1760598095.7473345,-5.7831047819744885,0.026545285533939082,0.9966799144131694,-0.10573730388923157,12.801517057069061,-34.26638100020374,-28.53434679408066
1760598095.7573695,-5.876492311532105,0.06549770256055257,0.9946357677507048,-0.0824833077702244,13.13297951998418,-35.782768473877745,-28.228622327727024
1760598095.7673047,-5.930028344128876,0.09962915869412382,0.9879297867695953,-0.0577836420397035,13.455957513730441,-36.76083651574182,-27.820414365641444
1760598095.7773511,-5.9543560970910345,0.1263936414392394,0.9765643707096809,-0.033711721191830135,13.745394389554033,-37.19042674755531,-27.33949819728533
1760598095.7873023,-5.962743920722706,0.14309250110253452,0.9609764617094596,-0.012609679949344157,13.971242013100772,-37.04630971375074,-26.808531212227013
1760598095.797303,-5.97072184664604,0.14712852570760723,0.9420878517568297,0.003150394651710903,14.104332214924622,-36.29607668209903,-26.23835527234856
1760598095.8072844,-5.99531440732547,0.1363728780113908,0.9212969339619891,0.011434891663798233,14.121796872692803,-34.9147328832795,-25.62491817206404
1760598095.8172936,-6.053825054753788,0.10958234146526402,0.9004119404571764,0.010593471511827117,14.010362853850713,-32.902654479351,-24.948023570957478
1760598095.827297,-6.162225816169108,0.06677283424472592,0.8815388862930662,-0.0003704722766292585,13.766319059306097,-30.302815153275244,-24.171946272098925
1760598095.8372958,-6.333315731236872,0.00945146772047309,0.8669368315823897,-0.021723498984866595,13.391810881632345,-27.21339187307724,-23.247801001477914
1760598095.8472986,-6.574903581317711,-0.05936422380204702,0.8588439333606914,-0.05299917199141754,12.888110214234231,-23.792831344349807,-22.117432884771894
1760598095.857383,-6.8883177796851935,-0.13536488673134014,0.8592738850955938,-0.09302805897866015,12.247309406280618,-20.255830850140672,-20.718500162527775
1760598095.8673232,-7.267532540089827,-0.2133792256573739,0.8697908656757615,-0.13997048150352578,11.444329572039548,-16.860132584276286,-18.990327446029386
1760598095.8773448,-7.699122523739505,-0.2879456775687429,0.891286440922638,-0.19134668028258411,10.431198500875146,-13.885344525011247,-16.88000260629686
1760598095.8873062,-8.163132706480633,-0.35393259321318804,0.9237922063157825,-0.24408146467423517,9.135251522441004,-11.606095283002093,-14.348077595076672
1760598095.8973076,-8.634802312282831,-0.4071119352092483,0.9663598872726961,-0.29459195819374495,7.462264589886153,-10.262669535336329,-11.373154788973682
1760598095.9074066,-9.086936920322259,-0.4446054183676853,1.017030084730053,-0.33894556745998533,5.304626672901211,-10.032791341263112,-7.954661379856146
1760598095.917311,-9.492602967652243,-0.46514397063729074,1.0729022836699655,-0.37310286017166383,2.55366945884918,-11.00832220644324,-4.113295563469122
1760598095.9272985,-9.827748206430996,-0.46910963202673,1.1303148662227742,-0.3932412889426332,-0.8855653827505052,-13.180232442298303,0.11101919553656561
1760598095.9373126,-10.07335481401487,-0.45836159361884266,1.1851359284912368,-0.3961348943214911,-5.079306972982453,-16.434287208188014,4.663378405345871
1760598095.9472995,-10.21681814236621,-0.4358787437029082,1.2331458673883844,-0.37954548460217635,-10.051972673074717,-20.558584091966566,9.479602624754822
1760598095.9574208,-10.252395762804838,-0.40527501192041865,1.270465268850675,-0.3425665155031021,-15.77683275466264,-25.262581474358086,14.492363366336589
1760598095.9673042,-10.180747215870607,-0.37026042417986776,1.293960449100179,-0.28585761264306403,-22.171662966035488,-30.20573386534196,19.636623513681144
1760598095.9773,-10.007737541062205,-0.3341295817821781,1.3015566369325395,-0.21171938107874785,-29.10005134670537,-35.03241831277937,24.853516325569466
1760598095.9873133,-9.742774574881823,-0.2993565768200941,1.2924080765253503,-0.1239833089592643,-36.37853116461189,-39.408641666599685,30.092245502665083
1760598095.997307,-9.396982158085919,-0.26735678160498955,1.2669081401746385,-0.0277228328733611,-43.789234735586795,-43.055333478902476,35.310096107014374
1760598096.0073023,-8.981488238250545,-0.23844284089929896,1.2265592867187416,0.07118018925290011,-51.09717805519838,-45.773237663940066,40.4710200276629
1760598096.0173128,-8.506046326898202,-0.21196488008534178,1.1737514913262408,0.16656083769962687,-58.07053851700487,-47.455795978318896,45.54341144109331
1760598096.0272975,-7.97813050612104,-0.18659677430385005,1.1115105036763855,0.25252905727930886,-64.5014260774152,-48.08883299182002,50.497589198999535
1760598096.0373335,-7.402565111053024,-0.1607163784644725,1.043268818566905,0.3240039618395641,-70.22383129159576,-47.73869448744371,55.30316831195611
1760598096.0475035,-6.781680443390729,-0.13282124624686267,0.9726818969626901,0.3771743675359449,-75.12504085364846,-46.53288840195315,59.926109700207526
1760598096.0573034,-6.115927172581005,-0.10191497260141281,0.9034702892164234,0.4098395171649338,-79.14746027793198,-44.638354396604846,64.32517454678818
1760598096.0673487,-5.404831696166458,-0.0677956276709986,0.839240517430626,0.4215889374712593,-82.27988083411195,-42.24174998931555,68.44804799751238
1760598096.0773053,-4.648132343589734,-0.031186568282527034,0.7832490538947272,0.4137920344752714,-84.54026525335922,-39.53399384019784,72.22825498785635
1760598096.0873044,-3.846908032663331,0.006323890701167113,0.7381202587025162,0.3893899922780194,-85.95471118713904,-36.69900350756357,75.5844828708756
1760598096.0973375,-3.004506086831169,0.04252970810430469,0.7055755117183494,0.35251729063319226,-86.53819138507325,-33.90524568862273,78.42364323918639
1760598096.1073081,-2.127099669277733,0.07499997531270286,0.686244916592735,0.3080189861439387,-86.28187490581222,-31.298562641809305,80.64814331221051
1760598096.1173186,-1.2237557546009856,0.10154964932921873,0.6796100741336499,0.2609475253672475,-85.14999315206852,-28.995206053411184,82.16684774951767
1760598096.1273525,-0.3059662781913993,0.1207060316740053,0.6840846915109409,0.21610444712679674,-83.08698354770421,-27.074617139416745,82.90838443489785
1760598096.137348,0.613316214362648,0.1320824215063417,0.6972090234868381,0.17765354425243843,-80.03345377039007,-25.57212538715407,82.8348428459757
1760598096.1475902,1.5209986678491738,0.13657226566924752,0.7159335014513252,0.14880150207820367,-75.94777386525746,-24.472419038278677,81.95352482827133
1760598096.157338,2.405296655150383,0.1362976318747296,0.7369775980394178,0.13154026830518709,-70.82908535711569,-23.705310961196474,80.32429821201332
1760598096.1673036,3.257043500862109,0.13429326397253635,0.7572355715179999,0.1264723179790232,-64.73710240976011,-23.1458260492897,78.06040752945243
1760598096.1773102,4.070614095715575,0.13397227011860283,0.7741641699603246,0.13276675126420603,-57.80408655547349,-22.620715663257663,75.32142636942429
1760598096.187309,4.844299398199224,0.13847799613877712,0.7860711510055285,0.14828678570994322,-50.23503205250054,-21.92285358540248,72.29836690834546
1760598096.1973531,5.5800782151417865,0.15005997652916156,0.7922493688066006,0.1698884597116012,-42.29390603648717,-20.833416793811683,69.19255621823915
1760598096.207329,6.282845838631136,0.16961353395350312,0.7929474114088972,0.19384803118870372,-34.27686434223122,-19.14951439025706,66.19136544905663
1760598096.2173226,6.95925500482355,0.19649101805249825,0.7892041886421793,0.21635322678116545,-26.476985990430904,-16.712684129243858,63.444864160132745
1760598096.2273426,7.6163873400229685,0.22862995484658497,0.7825911420390068,0.23398808776949614,-19.147848039769606,-13.432392607896077,61.04767204572536
1760598096.2373254,8.260491056128737,0.2629642863038176,0.7749081267924065,0.2441450228515032,-12.473933299900562,-9.299121406234697,59.02951079536703
1760598096.2473288,8.895990599732174,0.29601582317361924,0.7678777062257844,0.24530982366977333,-6.554113838486617,-4.383870346895255,57.356276271588406
1760598096.2573328,9.52490521416088,0.3245270895155839,0.7628823273834496,0.2371849752194111,-1.401020576557152,1.1757643013705494,55.941242115754186
1760598096.2673423,10.14672414615666,0.3460020463555966,0.760785141277684,0.2206409808601386,3.0448096823390047,7.199497032619069,54.663879114239215
1760598096.2773287,10.758698810850763,0.3590597021433112,0.7618607248132451,0.19751352925014254,6.8904053224031285,13.492569806703834,53.39232734614672
1760598096.28736,11.356445568747919,0.36355827463741536,0.7658373805325377,0.17029204278952265,10.261679227389264,19.871959117590283,52.005151083475944
1760598096.2973557,11.934716404554862,0.36049560440629896,0.7720276103237026,0.14176148555696377,13.276881063733846,26.185179531540935,50.40863565676264
1760598096.3079443,12.488189162714692,0.3517275521953023,0.7795068805632419,0.11465654425826174,16.027038179778966,32.31832541898677,48.547233592436854
1760598096.3173664,13.012150122408654,0.339572224263308,0.7872970329707528,0.09137049461088849,18.565997497985364,38.19256259976238,46.40640195499392
1760598096.3273432,13.50298336659255,0.3263838849391728,0.7945198477688227,0.07374177757991401,20.910237664896858,43.75087413797009,44.00860945399925
1760598096.3373284,13.958433488576764,0.31417994890021617,0.8005030804059876,0.06292850149474864,23.046435035057147,48.93899828090731,41.404427665915854
1760598096.3473294,14.377656991756663,0.30438386839096065,0.804836296004189,0.059378727226508596,24.943287654494366,53.68568993616126,38.66115379666016
1760598096.3573532,14.761111258125455,0.297712811145148,0.8073814810902734,0.06290635179944028,26.56374557765691,57.887324795623634,35.85131679157995
1760598096.3673334,15.110343168196481,0.29420454741120144,0.808246114044503,0.07287124872767477,27.874695102686676,61.400437559030884,33.0428619313082
1760598096.377319,15.42773478115394,0.29335267179171703,0.8077285098405196,0.08842896819359392,28.85286987741663,64.04358863484732,30.29205498455713
1760598096.3873184,15.716247951722817,0.2943071531897311,0.8062473814968825,0.10877801799220418,29.487342541219938,65.60793929314299,27.639445906281548
1760598096.3973143,15.97919181533808,0.2960981097627336,0.8042683891709665,0.1333202776219053,29.779517246442904,65.8747987526197,25.10875658216347
1760598096.407312,16.22002305083539,0.2978496129047806,0.8022395183254986,0.16167331581637515,29.74117975119189,64.63806533083415,22.708333502757853
1760598096.4172943,16.44218020185612,0.29895845686840716,0.8005425548564987,0.19352527529110752,29.390809046802485,61.72921545951584,20.434681908768788
1760598096.4273002,16.648947981252284,0.29921650063357086,0.7994585387554289,0.22838514403251428,28.748680858616336,57.04192754557453,18.277374990709323
1760598096.437312,16.843343915247186,0.2988605126323864,0.7991370060734629,0.2653231768076481,27.832016995417565,50.55291917841918,16.224298221721874
1760598096.4473095,17.028018998054392,0.29854637459012945,0.7995609755297328,0.3027963844511075,26.6518730380974,42.33572199524645,14.265968836065644
1760598096.4573083,17.20516764507758,0.29926063033204225,0.8005125224706147,0.33862188112543773,25.213292808916503,32.565169269517085,12.397809111749154
1760598096.4673007,17.37644906274766,0.3021922158680332,0.8015586818716991,0.37011928041443276,23.51960563984678,21.51211706618487,10.61977698048828
1760598096.4773154,17.542928632301013,0.30858753616390777,0.8020830995219922,0.3944016721372817,21.58082903538021,9.529859968882807,8.933449639654887
1760598096.4873226,17.705050223371977,0.31960709177016405,0.8013790993113198,0.40875591966020486,19.42513601244326,-2.9647722250118163,7.337233698871727
1760598096.4973178,17.862645996371924,0.3361957079114873,0.7988003204820672,0.41103002824643015,17.111383080143547,-15.512046207402564,5.820703025160433
1760598096.5073578,18.014978672543293,0.35897177346950704,0.7939497381459527,0.3999510913803504,14.739930559669496,-27.62854453202839,4.359182887178096
1760598096.517394,18.160795743869993,0.3881352358095901,0.7868834867151705,0.375325431741028,12.458667091183909,-38.823064714551236,2.9096793388161326
1760598096.5273676,18.29836325526482,0.42339240865742384,0.7783048022411676,0.3381030405267802,10.461555723179856,-48.60895622274762,1.4090978270613144
1760598096.5373235,18.425445245799082,0.46389725416865474,0.7697157939976301,0.2903095436658811,8.97826858638092,-56.51444563045062,-0.22460914514230598
1760598096.5473063,18.53920458034527,0.5082100495916616,0.7634825792879962,0.2348630491821299,8.255321355859925,-62.093878479259715,-2.0881257569430662
1760598096.5574992,18.63601993142303,0.5542754932431919,0.7627630611034979,0.17530471494246103,8.53093823340549,-64.9430523298183,-4.285464919971852
1760598096.56731,18.711240758892835,0.5994270934033312,0.7712540747143415,0.11547852460204305,10.006988382170608,-64.72061691957086,-6.918253202144189
1760598096.5773408,18.758932950009633,0.6404322584214011,0.792737447990638,0.059193473299036126,12.82145452256391,-61.175324478895156,-10.074591129633314
1760598096.5873492,18.771692487246792,0.6735951241403628,0.8304413845744076,0.009893372905040868,17.02435653123258,-54.176650096342755,-13.817794410620275
1760598096.5973337,18.740611852224042,0.6949265350912505,0.8862815881844228,-0.029644259287030576,22.55944116492239,-43.74477985505977,-18.176459939635933
1760598096.6073687,18.655467510462195,0.7003791686289094,0.9600992525198258,-0.057554176850244776,29.253524244503737,-30.07549286018932,-23.1371854147239
1760598096.6173146,18.505159553881256,0.6861415891618932,1.0490579863517808,-0.07304370090932577,36.81498681229022,-13.55589415510556,-28.64088340323909
1760598096.6273003,18.278388323680705,0.6489873328515606,1.147381239392772,-0.07644332006305313,44.8424592457262,5.232034404083235,-34.58301521749341
1760598096.6373122,17.96451296934428,0.5866720282149159,1.2465883811830116,-0.06914263682278585,52.8443362276508,25.5218387906614,-40.81742957663639
1760598096.6473212,17.554514018235096,0.49835780364354254,1.3363125210465228,-0.05342996046298923,60.269581435659845,46.38752714969661,-47.16310860349448
1760598096.657346,17.041977517178175,0.385027345441185,1.4056641544117734,-0.032269653707135956,66.54996989593978,66.78272695094115,-53.41307189604153
1760598096.6673224,16.424025696057964,0.24983599621259356,1.444966195111128,-0.009052290251180088,71.15277616153429,85.59332661132962,-59.34474662149574
1760598096.6773162,15.702127875106276,0.09833421176878725,1.4475591383682715,0.012659080855484136,73.64052363750511,101.70273949763786,-64.73108647825252
1760598096.6873243,14.882724741136006,-0.06153135934867437,1.411289805079283,0.029379951916912367,73.73117957741232,114.06857746051682,-69.35178258843494
1760598096.6973407,13.977582722304067,-0.21975259740628347,1.3392874720246106,0.03796348991049768,71.34926788291747,121.80819607601812,-73.00442743746068
1760598096.7073243,13.003767406521312,-0.365035312718081,1.2397386551605212,0.035891856005609506,66.6570593015707,124.28782749431136,-75.51646835636807
1760598096.717313,11.983107252979416,-0.4860381453910768,1.1246122417682722,0.02161440471069231,60.0562243883019,121.20617542947129,-76.75946083733065
1760598096.7273214,10.941045746398416,-0.5729333716639737,1.0075974875705527,-0.005101282216732005,52.1545002713689,112.65959452770102,-76.66638061200418
1760598096.7373364,9.904876033761887,-0.6189659492203539,0.9017622558156404,-0.04290690209570881,43.69851135839434,99.17408217570986,-75.25017265223926
1760598096.7473128,8.901502982307093,-0.6216058259379927,0.8174990690748594,-0.08883196142345075,35.48118566586118,81.69104823408392,-72.61843099678794
1760598096.7574713,7.955029141360294,-0.5829806906500997,0.7611899381713196,-0.1385542284417137,28.23799319571685,61.499997844502914,-68.9772644318035
1760598096.7673306,7.08454957806013,-0.5094967041724585,0.7347743970273903,-0.18697581602736402,22.549020020593137,40.12087747749789,-64.61864364709639
1760598096.7773137,6.302527817898093,-0.41078369964709166,0.7361572246654565,-0.22899761677287056,18.763442090250546,19.14941714713615,-59.88984000681401
1760598096.7873404,5.614012860707361,-0.29824371258278054,0.7602151816240413,-0.2603251103579584,16.959640416318518,0.08751276914155691,-55.14932855702815
1760598096.7974896,5.016782173380801,-0.1835130765753972,0.8000838072471923,-0.2781336580347814,16.948298044430725,-15.814858754527528,-50.71829285293023
1760598096.8073556,4.502312600202939,-0.07709652931396802,0.8484219972909749,-0.2814590300595264,18.317840584901614,-27.68103300265946,-46.83858828284404
1760598096.8173149,4.057340512156569,0.012657648429930283,0.8984369277266853,-0.27124350582073836,20.513036169005094,-35.074377400248906,-43.64615814017509
1760598096.8273306,3.6657023202604515,0.08016146569340575,0.9445650018196036,-0.2500478804948976,22.930938284152894,-38.00360742010501,-41.16455142815827
1760598096.837474,3.3101495819852786,0.1227609446839688,0.9828070502976415,-0.22151613523798822,25.015779544266795,-36.87217606119644,-39.31816674278572
1760598096.8473778,2.9738947990994435,0.14052408823797366,1.010782565494367,-0.18972623548009826,26.336401643289708,-32.38697665921302,-37.96066702979634
1760598096.8573368,2.641742167444856,0.13573045167181264,1.0275914846609056,-0.1585630269285094,26.63514080316089,-25.446497530354293,-36.91152696657781
1760598096.8673809,2.300767873496515,0.11218406227581577,1.0335632338554595,-0.13121613793796608,25.843828724385045,-17.028027769317948,-35.9930867490179
1760598096.8773777,1.9406141559215078,0.07448921991256854,1.0299507604780893,-0.1098592164601606,24.068922204739533,-8.08882896682499,-35.0615084810621
1760598096.887422,1.5535297843910543,0.027418034302595394,1.0186088130890238,-0.09552411089977153,21.55256932364176,0.5103311778209574,-34.02713145031294
1760598096.8974094,1.134311060637184,-0.02454405072001704,1.0016871496898414,-0.0881508110160625,18.619178729497307,8.057012418427613,-32.86231192565122
1760598096.9073677,0.6802663723820361,-0.07745060195868403,0.9813673284259329,-0.0867732761529895,15.617785724707213,14.01635309611731,-31.597352043565166
1760598096.9173663,0.19125475320295682,-0.1279782797710852,0.9596686380056093,-0.08979503976946478,12.86946891805494,18.041877895813744,-30.307103646803476
1760598096.9273784,-0.3302375318395558,-0.17340944827150193,0.9383388545000734,-0.09531301454065126,10.626739443142212,19.972191064274472,-29.09199079579035
1760598096.937392,-0.8790838841185219,-0.21158101420868458,0.9188290441941849,-0.10145277472768821,9.04884999130249,19.816946947854415,-28.057461430392966
1760598096.9473658,-1.4476864251475252,-0.24084372322932227,0.9023338254390512,-0.10667754129810457,8.193995208431893,17.7343050482434,-27.29537648490595
1760598096.9573998,-2.0264072233210464,-0.2600438031503074,0.8898655474294057,-0.11003091629571642,8.02683917445659,14.001316302668055,-26.869840053107723
1760598096.9673352,-2.604264584372854,-0.26851402701085214,0.8823263610754858,-0.11127860090596885,8.437913767596317,8.97863988109401,-26.80879457772781
1760598096.9773421,-3.1698153529692337,-0.26605392827554614,0.8805461635628065,-0.1109290859594762,9.270264914273099,3.0715768833954327,-27.101621218931303
1760598096.9873953,-3.7120898233688524,-0.2528878990912102,0.8852645892062997,-0.11013278832476592,10.348343851813485,-3.3096987741435018,-27.70213828133806
1760598096.99738,-4.221436217084949,-0.229605962657762,0.8970491254407728,-0.11047720830312133,11.504553293912222,-9.787040057394917,-28.535805640220428
1760598097.0075617,-4.69016451894613,-0.1971048091336352,0.9161572118609467,-0.11370900854090152,12.599918463599087,-16.044345661847842,-29.509604503765956
1760598097.0173326,-5.11293761177927,-0.15654993050598243,0.9423659750464725,-0.12142182869007144,13.536784109598912,-21.84706437408992,-30.522969674794066
1760598097.0273602,-5.4869186844415765,-0.10937269525313562,0.9748068463115029,-0.1347520606621172,14.262953581504824,-27.048778744904624,-31.478299173030155
1760598097.0373175,-5.811729503142787,-0.05730254810836014,1.0118512725982385,-0.15412515961570653,14.768058827250472,-31.584410458023044,-32.28988431327331
1760598097.0473313,-6.089294985419213,-0.0024198094413108912,1.0510954253468745,-0.1790931647531698,15.074012924845135,-35.451863667340646,-32.89048007578351
1760598097.0573344,-6.32364579163185,0.052795759363459205,1.0894835906560247,-0.20829952990976192,15.22204063299643,-38.68602162505966,-33.23509691305132
1760598097.0673168,-6.520728851177484,0.10544918373923858,1.123589618378553,-0.2395979299252123,15.258978710878214,-41.330467784500314,-33.301933335660465
1760598097.0773587,-6.688243098762257,0.15227506497250484,1.1500423916413187,-0.2703321921124839,15.225322204101413,-43.41275252703808,-33.09069352827036
1760598097.0873458,-6.835479659254713,0.18976716049705025,1.1660372444425628,-0.2977492179944878,15.146910940926793,-44.92829567069671,-32.61882113086524
1760598097.0975726,-6.973109147089499,0.21440819169285574,1.1698323222842408,-0.3194686964882896,15.031252285084818,-45.8361873145135,-31.91636687173128
1760598097.1074688,-7.112835377599382,0.22299794811370086,1.161111093463672,-0.3338945964900289,14.868398959816714,-46.06760138167548,-31.02023351494909
1760598097.1175086,-7.2668377736374214,0.21305322334009863,1.141121641678671,-0.34046078140360003,14.63530748276385,-45.54486957356177,-29.96839862098757
1760598097.1273327,-7.446959406777968,0.18322692699751447,1.112570698116297,-0.33966896879916825,14.301957282742876,-44.207103231536195,-28.794479600176036
1760598097.1373627,-7.663656457090974,0.1336720603030059,1.079311085972902,-0.33295225456852817,13.837324467261109,-42.037029448617574,-27.522813508523853
1760598097.147631,-7.924792939834751,0.06626628472218259,1.0458811261531331,-0.3224182860085281,13.213556808280092,-39.08357427755286,-26.164186881583046
1760598097.157447,-8.23442779217922,-0.015376676010416493,1.0169482109263117,-0.31050187725286343,12.407337206976662,-35.47556362820974,-24.712468509389794
1760598097.1673582,-8.591788096487724,-0.1061470208318957,0.996711579122575,-0.2995491995484178,11.398346522511545,-31.42343272799608,-23.142564047665772
1760598097.177395,-8.990638657872825,-0.19991566023122945,0.988336926707103,-0.291385413061388,10.165694255244187,-27.20771154290265,-21.4101891587163
1760598097.1873536,-9.419229383955024,-0.2901816264127851,0.9935056224607891,-0.2869494698746606,8.68383600844747,-23.15501526969882,-19.453848920989003
1760598097.1974373,-9.860921209069161,-0.37079067666225846,1.0121507128270666,-0.28608225417941296,6.919597393311664,-19.60410847407829,-17.19909285367122
1760598097.2073793,-10.295469328187005,-0.43661685606623224,1.0424271977111315,-0.28752579576927556,4.831472377874753,-16.86616285210943,-14.564663587327013
1760598097.217337,-10.700806566887191,-0.4841098520883962,1.0809348836139017,-0.28914402994289284,2.3715743810387617,-15.184459644121533,-11.469744083726184
1760598097.2273467,-11.055055987080305,-0.5116338573840165,1.1231801320257262,-0.2883239892428468,-0.5102031524088075,-14.699365879387337,-7.841328108626395
1760598097.2373624,-11.338446086151729,-0.5195528563371026,1.1642250794022335,-0.28247593418626094,-3.860831649566099,-15.424248285278864,-3.6208825898925454
1760598097.2474265,-11.534826730236336,-0.5100506138843673,1.1994305673868981,-0.2695323093290457,-7.718751412103565,-17.236890645084053,1.2301511486435406
1760598097.2573497,-11.632584051620752,-0.48671012244976114,1.2251638893822716,-0.24834930761093457,-12.109274793727156,-19.888955979762393,6.7260742704642285
1760598097.2673483,-11.624892641868074,-0.4539142950931542,1.2393336689252892,-0.21893596262351395,-17.04104650570401,-23.03336602298708,12.85371993905283
1760598097.277332,-11.509376468385888,-0.41616180292087546,1.2416438593384176,-0.18246879006138716,-22.503282039485413,-26.26658521823649,19.570239438003753
1760598097.2873385,-11.287342445272921,-0.37741185642221,1.2335201483206548,-0.1410904090146606,-28.46328660909548,-29.180154150416385,26.80203926841774
1760598097.2973454,-10.962792685337105,-0.3405724002254846,1.217733296351237,-0.09753200154034326,-34.86395634986782,-31.41390692409722,34.4451996693102
1760598097.3073251,-10.541419461200334,-0.30722271248014155,1.1978039007955164,-0.054634607581623126,-41.62147273309215,-32.70261816053604,42.367689361365045
1760598097.3173187,-10.029751705322505,-0.2776142215635918,1.1773108785954178,-0.01486734834768797,-48.62393763001319,-32.908709627881514,50.41351562285661
1760598097.327377,-9.434564132116638,-0.2509317000553094,1.1592390281629104,0.020052941146703623,-55.73190681813198,-32.036098545474,58.40872293490962
1760598097.337373,-8.76259097725196,-0.22573781577344143,1.1454884820379108,0.04935316851337645,-62.78144836580232,-30.223752459698275,66.16894723391081
1760598097.347335,-8.020518652750377,-0.20048565201587681,1.136630377550512,0.07316542344477556,-69.58961318804397,-27.72108339817332,73.50808064273812
1760598097.3573794,-7.215178066818994,-0.17397816275253752,1.131935704250544,0.09228775458610639,-75.96150656821023,-24.850072741297527,80.2475201553911
1760598097.3675375,-6.353827245022598,-0.14567964695422644,1.129646133083325,0.107843129917554,-81.6979248425984,-21.960533566778324,86.22542106039508
1760598097.377378,-5.444410643921825,-0.11582790472579081,1.1274132462835051,0.1209651558075919,-86.60286685517374,-19.385215092386265,91.30530688989668
1760598097.3873694,-4.495698761507192,-0.08533992981056822,1.122806728528878,0.13260336019026522,-90.49087461328931,-17.40073766524604,95.38336831001716
1760598097.397426,-3.517243163143963,-0.05554193609908096,1.1137803881438086,0.14346089383033714,-93.19471704258159,-16.198800846090396,98.39392141285289
1760598097.4073572,-2.519121696144292,-0.02778719276740388,1.0990002011513669,0.15401401333517414,-94.5741393703368,-15.869968534536202,100.3127589160154
1760598097.41736,-1.5114916005375794,-0.0030506757121118336,1.077987598471571,0.16455466404160127,-94.52609180057217,-16.400062537036526,101.15833567138156
1760598097.4273975,-0.5040097020118965,0.018398730645393213,1.0510871021407906,0.17522629247086682,-92.99596992098074,-17.677398174670973,100.99074222076717
1760598097.4373636,0.49478626294435907,0.03715574257119327,1.0192983853827522,0.18604833243658916,-89.9882496502764,-19.508189375744163,99.90827146917782
1760598097.4473205,1.4780190182551,0.054604262971489625,0.9840226540995153,0.19693040531262518,-85.57408819298523,-21.637438894389625,98.04123352272772
1760598097.4573538,2.440818166388213,0.07260509369539685,0.946781926566381,0.20767425518772623,-79.8933836633317,-23.773186771703152,95.5427096931799
1760598097.467362,3.380380851850028,0.09301258988797119,0.9089757946691469,0.21796587907007334,-73.14942591199733,-25.612619253663595,92.57632738208274
1760598097.4773934,4.295711792261514,0.11715151305384547,0.8717289237129221,0.22737316131427557,-65.59551018513275,-26.868725530791146,89.30192834322675
1760598097.4873917,5.187081124467909,0.14540861563800764,0.8358528260051431,0.23537087371151155,-57.51457443052749,-27.295712229468347,85.86097312474597
1760598097.4974144,6.055308233504733,0.17706148424948773,0.8019102653206335,0.24140440002715577,-49.19463454029586,-26.710597329207904,82.36422606396312
1760598097.5073643,6.901024496365153,0.2103941533336117,0.7703430927030646,0.24498242217699828,-40.90387973372694,-25.00804887455086,78.88426768592355
1760598097.517346,7.724073347146354,0.24306318099906513,0.7416115021051435,0.24577231909828565,-32.86934381407274,-22.16616967200065,75.45452541348249
1760598097.5273821,8.52316911724733,0.2726069010070579,0.7162956517118211,0.24367007137979554,-25.26221902777505,-18.242500477969667,72.07500829483016
1760598097.5373619,9.295867235107847,0.2969565944299906,0.6951255633033676,0.23882832263666076,-18.191561585837984,-13.361436140750849,68.72326284913748
1760598097.5473566,10.038820084281372,0.31482181379343793,0.6789270992636991,0.23164328159401,-11.706686170161095,-7.695843322020008,65.36779732831029
1760598097.5573885,10.748230294280702,0.32587364928348816,0.6684966253995531,0.2227129101267219,-5.807124835552713,-1.4464953873406043,61.980769816968355
1760598097.567399,11.420381667731082,0.3307132426049114,0.664439285857282,0.2127801747787002,-0.45777518451877586,5.17712039700404,58.5471942906653
1760598097.577361,12.05212797686955,0.3306629549949138,0.6670163693724617,0.2026702825834544,4.394011857147828,11.971849321730023,55.06903113523658
1760598097.5873575,12.64124404494648,0.3274447002431125,0.6760394623366073,0.193228618982228,8.802884170758027,18.75016255644695,51.56388635852091
1760598097.5973651,13.186583434713192,0.32281856366397677,0.690829022677539,0.18526910541719155,12.814335416651145,25.34334823093988,48.05931030495632
1760598097.6073534,13.68803418337859,0.31825197981538894,0.7102377857314995,0.17954443779658896,16.459409123549154,31.59942921778082,44.58463550954251
1760598097.617373,14.146308599509105,0.3146781804182101,0.7327336957949516,0.1767438333840659,19.75500921188246,37.37758298371098,41.1627421316784
1760598097.627373,14.562635727487654,0.31238271182031185,0.7565381575427667,0.17751123141087857,22.708083845855775,42.54135757047277,37.80398599251709
1760598097.6373436,14.938439746089982,0.31103106340157355,0.779813555275174,0.18246352132569132,25.32107248572225,46.952946709260324,34.503848513129135
1760598097.6473608,15.275083380117662,0.3098239093566026,0.800883787409623,0.19218238083714698,27.595945105802134,50.47026645814319,31.244901835082914
1760598097.6573434,15.573735415520082,0.30774384783985137,0.8184538755334396,0.20716002003948655,29.53506813316565,52.947724652350296,28.002670066888243
1760598097.6673696,15.835390737834343,0.30384184546772786,0.8317773855117072,0.2276961724258237,31.1388704526081,54.24057458812151,24.75410133384627
1760598097.6773524,16.061035931968515,0.29750532781115846,0.8407187482880089,0.25376292140109175,32.40206385917684,54.21193224998982,21.48680689629273
1760598097.6873732,16.251919979126406,0.2886557427136746,0.8456833787299428,0.28486687073790856,33.31085956537548,52.74133609526402,18.207087406434777
1760598097.6973608,16.409864831317382,0.2778419332775444,0.8474335481067581,0.31993879820251964,33.84284332386638,49.73414258330142,14.945051313195304
1760598097.7073736,16.537539722619066,0.26622048623981687,0.8468474850581492,0.35727244467154345,33.96980096146512,45.13150146707922,11.755703031907025
1760598097.7173624,16.638627189174628,0.255434640327391,0.8446938823684792,0.3945295881751834,33.6629305550146,38.920639957477256,8.715561386989915
1760598097.72738,16.717826373129604,0.2474145672165365,0.8414821160523904,0.4288317034589546,32.899756750695055,31.14482606454024,5.915040730329381
1760598097.7373645,16.780668758028348,0.24412896650188232,0.8374200239915514,0.45695356960524647,31.672185254029948,21.912141225709973,3.4474299232121335
1760598097.7473595,16.833160844033603,0.247326489033916,0.8324784561484083,0.47561121433183945,29.995088699572182,11.402296178152012,1.395782889795237
1760598097.757355,16.88130950289971,0.2583117321108694,0.8265353851676183,0.48180960686356217,27.914549452446433,-0.1290011072629579,-0.1806953488010004
1760598097.76837,16.930612206267057,0.2777938729197937,0.8195599683582687,0.47320192307471526,25.51454663782787,-12.34845421497597,-1.2591720856998492
1760598097.7792368,16.98558906813557,0.3058222344446713,0.811800694279868,0.44841239198032107,22.920663184526095,-24.846747805277673,-1.8632038300414937
1760598097.7880414,17.049397112594484,0.3417941052692452,0.8039529320699847,0.40727993037260796,20.29951149646927,-37.143886420929526,-2.069053104124331
1760598097.7978415,17.12352320512662,0.38450493026426485,0.797286423928668,0.35098581997166645,17.853159671368424,-48.69920573731734,-2.0072890947099715
1760598097.8073683,17.20752893024687,0.43221523255227795,0.7937090169959093,0.28203816108764607,15.808771006130481,-58.927145450797006,-1.8588228829368996
1760598097.8173616,17.298827175503366,0.48272070045629323,0.7957370789478192,0.20410280476550177,14.404533918050731,-67.21974807692678,-1.8448016168736678
1760598097.82737,17.392494584865915,0.5334198617287242,0.8063428108154245,0.12169443300402236,13.873263234705735,-72.9763274192776,-2.210298398208652
1760598097.837359,17.481150683166096,0.5813769515223635,0.8286551211797932,0.039765889304178716,14.42462559339441,-75.63987383873821,-3.2025417180614144
1760598097.8473675,17.55495391625645,0.6233804740773385,0.8655034242481796,-0.0367494601090535,16.22614328659653,-74.73863940693691,-5.045435126428695
1760598097.8573768,17.60177212654703,0.6560026120562719,0.9188165048325839,-0.10338309937118714,19.382680952325117,-69.93015466975304,-7.913104675292049
1760598097.867359,17.60757626648388,0.6756708903936647,0.9889301692412791,-0.15651258154272504,23.914642217998956,-61.04392647482658,-11.905923201163242
1760598097.8773599,17.557080024476925,0.6787710955719322,1.073919658349956,-0.19364269027946024,29.736639513200664,-48.11854024266792,-17.032648256111568
1760598097.8873549,17.43460899959992,0.6618083548037056,1.1691347386928526,-0.21357002343502446,36.640277701944406,-31.42902810463831,-23.20177169497265
1760598097.8973525,17.225142133328873,0.6216570250625955,1.2671391724380838,-0.21643106936191744,44.28598897930863,-11.501106920470207,-30.223884552754644
1760598097.9076853,16.915438106704546,0.5559211143231233,1.3582141177440363,-0.20364472926887917,52.20900052957724,10.890105479810845,-37.825078530137276
1760598097.9174013,16.49514814614789,0.46339917221299054,1.4314756597225693,-0.17776588104119967,59.84339084099326,34.7385104858446,-45.669633169013025
1760598097.9273508,15.957823426123884,0.3446066316851549,1.4765033366267855,-0.14226603815885852,66.56584719757896,58.84393937694663,-53.388924902129546
1760598097.9373744,15.30174285193504,0.20227160061767152,1.4852188558730295,-0.1012504983701484,71.75731001859671,81.86892674310631,-60.612800236762794
1760598097.9473927,14.530506451673787,0.04169943131298254,1.453634938582105,-0.05911872653718523,74.87662582399756,102.41633043078681,-66.99952523124477
1760598097.957481,13.65335236189723,-0.12910984679300094,1.383047210880602,-0.020189659975917026,75.53645795240553,119.12719689997105,-72.26085192081652
1760598097.9673715,12.685154724346697,-0.2997190809571871,1.2802971887090433,0.01166291677848243,73.56899232841828,130.79493689694553,-76.1798638476997
1760598097.9773436,11.646046492141307,-0.45800394188465704,1.1569186648371539,0.03332082599727395,69.0683733743639,136.48693082684224,-78.62111740197362
1760598097.9873455,10.560600584807696,-0.5914277186674377,1.0272765324086177,0.04266878651187418,62.399091524592286,135.65928498976368,-79.53467611554919
1760598097.9973524,9.456521759360673,-0.6887004556793908,0.9061145746883414,0.038797229260080654,54.164805478675625,128.2465424771932,-78.95672111048489
1760598098.0073526,8.36286971603702,-0.7414954677555801,0.8061054145363433,0.022157914878951496,45.13930140281951,114.70771667589432,-77.00840320404953
1760598098.0173588,7.307944060505313,-0.7458108488414681,0.7359661892702835,-0.005382181405384433,36.16870582915931,96.01426080559415,-73.89185256342616
1760598098.027343,6.317076242942888,-0.702638426637439,0.6995024541746598,-0.04066642537625177,28.05992878966811,73.57421512300455,-69.87982788477197
1760598098.0374486,5.41064259035502,-0.6178011875183126,0.6956663628286396,-0.07959602987899489,21.47343547814682,49.09798697045717,-65.29550022576126
1760598098.0473359,4.6026005799472784,-0.5010456688133128,0.7194592372520013,-0.11767352011661902,16.838374346188427,24.42238294423767,-60.48177816194745
1760598098.057346,3.8997551207685652,-0.36463572677789646,0.7633418987704781,-0.15065452696261436,14.304777336476027,1.3179266597801587,-55.76388835944913
1760598098.0673728,3.301814436746187,-0.2217476754634604,0.8187693499368407,-0.1751819990030019,13.741081280479023,-18.691890985664667,-51.412317506659804
1760598098.0773733,2.802146009000227,-0.08493203900860005,0.8775292957631176,-0.189265115688002,14.77635557983991,-34.4728617224689,-47.61403845308963
1760598098.087378,2.3890352971374,0.035166174933715835,0.932694797775526,-0.19249152803224484,16.87743185512156,-45.364709973896645,-44.457982823929086
1760598098.0973673,2.047202192022743,0.13070551335070235,0.9791447139600961,-0.1859316924755697,19.44441888527428,-51.20039378281547,-41.93705059689959
1760598098.1073792,1.7593372954225122,0.19709555509954504,1.0137130960409886,-0.17178311592203677,21.905826259838868,-52.26471469372483,-39.96507935274295
1760598098.117455,1.5074686500856809,0.23298296531380241,1.0350769581934582,-0.1528678514865363,23.796866593435027,-49.2069326699485,-38.404296610411286
1760598098.127362,1.274047460915748,0.23983946587485158,1.0434878799244438,-0.13211337016517444,24.810078597658695,-42.92733430537651,-37.0973302133277
1760598098.1374252,1.0427345104149293,0.2212880623038037,1.0404229821769304,-0.11212060802114057,24.814238252061777,-34.45771928779822,-35.89779713789795
1760598098.147355,0.7989541986135852,0.18234048805250141,1.0282015608363726,-0.09487683430881369,23.843830634251216,-24.851731733346174,-34.694521925334115
1760598098.157359,0.5303318334529961,0.12869804081404088,1.0095992065608521,-0.0816265709266336,22.06596530866643,-15.094881420972886,-33.426166560491524
1760598098.1675086,0.22712278173315711,0.06620238741370228,0.9874903159947513,-0.07288103536680927,19.73402954734465,-6.038097778123527,-32.085088263296115
1760598098.1774828,-0.11731744402181583,0.0004490229660164523,0.9645514437655442,-0.06852701168117989,17.13765254803826,1.6457066890783811,-30.71121792437599
1760598098.1873558,-0.5060594035921773,-0.06347342694976149,0.9430516510370643,-0.06798978612191355,14.557161863132412,7.484774974542113,-29.37836295104909
1760598098.1973677,-0.9382345589288384,-0.12116851914025241,0.9247401897175149,-0.07041074098225543,12.228292670153953,11.214485398104918,-28.176329003457013
1760598098.207374,-1.4089201748927915,-0.16907726259912337,0.9108227715389117,-0.07481335058301061,10.32010218843628,12.768857507687995,-27.192469065634505
1760598098.2173843,-1.9093855342393569,-0.20459171588926628,0.9020031108613076,-0.08024415014884319,8.926401201796857,12.25970706761552,-26.49575761699716
1760598098.2273996,-2.427736494490243,-0.22612446951658452,0.8985603848708142,-0.08588233573906119,8.068963833217797,9.945336933983016,-26.12552782930142
1760598098.2374089,-2.949908808296744,-0.23311613313475954,0.9004348906744133,-0.09111330673082142,7.7095261054644055,6.19090368403965,-26.085940580187515
1760598098.2473695,-3.4608892371737086,-0.22597022709918677,0.907300394801321,-0.09556260818648339,7.767100938129097,1.4233117389446919,-26.34630033826218
1760598098.2573893,-3.946002147917647,-0.20591740802565667,0.9186101080506899,-0.09909080504158557,8.137230626385238,-3.9155652626978403,-26.846557183635415
1760598098.2674196,-4.3920941218244565,-0.17482421133405351,0.9336129570274022,-0.10175520677319946,8.710256821907626,-9.412723714296243,-27.506715543476712
1760598098.2773774,-4.788481590562348,-0.1349742128098074,0.9513469356917289,-0.10374790934430726,9.386365034037714,-14.720068028822013,-28.2384139168907
1760598098.287373,-5.127589200234274,-0.08885872842571053,0.9706248669003786,-0.10532058331480607,10.085962496378258,-19.57842658556381,-28.95671446245255
1760598098.2974637,-5.405279186275812,-0.03901412886175313,0.9900328725706226,-0.10670599152555113,10.754790268787803,-23.826901964911226,-29.590216294687075
1760598098.3073683,-5.62092945817041,0.012069404833103564,1.0079623552985708,-0.10804613031051344,11.363958573966292,-27.39715641222097,-30.087977716217814
1760598098.3173735,-5.777344160419819,0.061963908893094596,1.0226921718793909,-0.10933907913118439,11.905744737652183,-30.29470244348582,-30.422318539476606
1760598098.3273556,-5.880573214820629,0.10826346394941569,1.0325289789519818,-0.11042149308419465,12.386450116691508,-32.57146044579183,-30.587260803961964
1760598098.3374658,-5.939685208608102,0.14852481838939452,1.0360012828389853,-0.11100673720968089,12.817844548954614,-34.29528276551314,-30.593050762301253
1760598098.347386,-5.966493044479512,0.1802354975688127,1.032087624772991,-0.11078979767879225,13.208720566036131,-35.52249032748463,-30.457802142134078
1760598098.3574622,-5.9751852595010595,0.20085615637599066,1.0204425833262025,-0.10960192444216166,13.557843812856602,-36.27860828599966,-30.197733458473557
1760598098.3673618,-5.981780290139915,0.20797130440286135,1.001570988496609,-0.10756129944871147,13.84915889353087,-36.550571239763876,-29.8176736891921
1760598098.3774347,-6.003312874584493,0.19955364073115844,0.9769020690992778,-0.10515087713943023,14.049573496103646,-36.29114975925575,-29.30344910222533
1760598098.3875513,-6.056695027858564,0.1743069805746812,0.9487369008831239,-0.10318136009680907,14.109144920470637,-35.433891737622105,-28.617462337752116
1760598098.3973677,-6.157266282235095,0.13201774836436855,0.9200729034200263,-0.10264860075928978,13.963194799725967,-33.9150549697954,-27.698303549670932
1760598098.4073756,-6.317138672080883,0.07383150010188043,0.8943301537135864,-0.10453228368038747,13.535828197087612,-31.698075984483353,-26.464681297122272
1760598098.4173756,-6.543525127683464,0.0023813930055289947,0.8750115050209872,-0.10959001703984528,12.744429519574664,-28.796007185562303,-24.823403282966687
1760598098.4273574,-6.837296510678459,-0.07827930421704364,0.865330011613765,-0.11818968460650535,11.504831587226978,-25.28787096505033,-22.680620065305703
1760598098.437395,-7.192033096988251,-0.16295825942291295,0.8678382621568572,-0.13020615372040156,9.7369783610392,-21.325837954324022,-19.955087573086146
1760598098.4473875,-7.593815344762124,-0.24580499460251684,0.884094172386626,-0.14499011351733657,7.371034525427463,-17.13139428622617,-16.5918159067376
1760598098.4573753,-8.021929031159209,-0.3209462946926892,0.9143963467803738,-0.1614012390600518,4.353978782399264,-12.980145213136375,-12.574179016455776
1760598098.4673846,-8.45053515655812,-0.38319913389564186,0.9576209341134438,-0.1778914171767148,0.6566181004236213,-9.176557078941764,-7.932431046682915
1760598098.4773705,-8.851181300690149,-0.4287551974488737,1.0111917257198133,-0.19262734133857987,-3.7194191245073793,-6.021630059242735,-2.7467303293503336
1760598098.4873812,-9.195837497428933,-0.45571160824842716,1.0712140928769571,-0.2036489768139567,-8.735729801913058,-3.7779349178674297,2.8566617006515185
1760598098.4973927,-9.459980735804033,-0.4643262124873663,1.1327950461726584,-0.20906270710079697,-14.313754889304834,-2.637249087413057,8.716334625414458
1760598098.5073814,-9.625192442466131,-0.456918044944774,1.190547791010358,-0.20725963518915827,-20.33565800880334,-2.695886199913848,14.652861326549342
1760598098.5175412,-9.68081242090267,-0.43741235587455474,1.2392375339455197,-0.19713201029098185,-26.65075881592697,-3.9417221437973393,20.48979721152746
1760598098.5273938,-9.624393309510209,-0.4106149332839011,1.2744774056504975,-0.1782461616027032,-33.08783362864022,-6.255150041963442,26.075183460741364
1760598098.5373578,-9.460952512287681,-0.38135728756798404,1.2933495036370806,-0.15093291365414813,-39.472159766122445,-9.42405771284704,31.29976013449954
1760598098.5475345,-9.201245322423055,-0.35367273957685286,1.2948227756068895,-0.11627745840243972,-45.64464199662335,-13.170661246483025,36.10853910890272
1760598098.557372,-8.85943418819469,-0.330155013570842,1.2798717308470562,-0.07601796224725216,-51.47921826211547,-17.185972922765806,40.5036698057578
1760598098.5673542,-8.450591105664408,-0.31162272954046405,1.2512607285536066,-0.03238326281194221,-56.89444480634384,-21.166344276701338,44.538226718275176
1760598098.5773737,-7.9884512527415605,-0.2971603316362082,1.2130314240072242,0.012092529032186983,-61.855973012342965,-24.84641024362261,48.30209509094167
1760598098.5874145,-7.483752271601532,-0.2845254950839278,1.1697957440675715,0.05475100852281431,-66.36855072491734,-28.02396014275885,51.90222579485873
1760598098.5973947,-6.943363321668009,-0.2708206081260053,1.1259770170123191,0.0929832802288899,-70.4587629100682,-30.57428458310327,55.4402246781046
1760598098.6073585,-6.370253795802697,-0.25325806828224867,1.0851485363796,0.12441649005966028,-74.15210673174845,-32.45363635192725,58.99068622210268
1760598098.617384,-5.764202324181998,-0.2298384084086062,1.0495911422258613,0.14713389313156408,-77.4494067586984,-33.69303028391123,62.58382565416807
1760598098.6273623,-5.1230313604157,-0.19980435162553045,1.0201376426714293,0.15992564461085423,-80.30782625121319,-34.38447798302663,66.195532992748
1760598098.6373508,-4.444089425671668,-0.16380068313244547,0.9963072378426918,0.16253450552667778,-82.63103169895722,-34.662002024247336,69.74676866618448
1760598098.6473558,-3.7256944969077845,-0.12373180590949893,0.9766738437529451,0.15583252080696003,-84.27154829749652,-34.67971771839051,73.11243866830469
1760598098.6574008,-2.9682890956944243,-0.08235970393278298,0.9593700610426598,0.1418501932086455,-85.04605694761638,-34.58920798064275,76.13809167233545
1760598098.667341,-2.1751268092601745,-0.042727285034839614,0.9426076221597374,0.12359484381926475,-84.76169336016925,-34.51837062129063,78.66153123739186
1760598098.6774032,-1.352397618782623,-0.007523340890326508,0.9250964330124554,0.10465158611244622,-83.24898786600541,-34.55373596647916,80.53593526546477
1760598098.687378,-0.5087935127536731,0.021481506243390017,0.9062723979725941,0.08863396535557551,-80.39551215634864,-34.727918385509795,81.65116546184656
1760598098.697354,0.3453936646828885,0.04380911719236392,0.8863002166329716,0.07859576806140432,-76.17388456863792,-35.013507203606956,81.950376837475
1760598098.7073758,1.1994718944395961,0.06037438760969059,0.8658861703328015,0.07652016990032316,-70.6586311058559,-35.32435606849398,81.4396455274442
1760598098.7173958,2.0436192962783664,0.07328172645750229,0.8459899279115013,0.08299139275721411,-64.02837388867994,-35.52476658263191,80.18909298088576
1760598098.7273579,2.869977204392616,0.08535083810230357,0.8275384871280959,0.09712932320388018,-56.552462108008775,-35.44634296711867,78.32494044799023
1760598098.737364,3.6733485181202714,0.09946803845585975,0.811214183258151,0.11680935773540504,-48.56383393208231,-34.91126298994648,76.01313034921851
1760598098.747358,4.451369009275042,0.11790777668342813,0.7973380447008608,0.13911147636594584,-40.42215064379438,-33.75938793267063,73.43657117782143
1760598098.7573957,5.204139645961043,0.14178547428865765,0.7858370141762582,0.16088758821233315,-32.472902779532276,-31.875239473731188,70.76947385048109
1760598098.7673683,5.93342862650245,0.17077447891166445,0.7762798755097505,0.17932427116409977,-25.00904334887291,-29.20995788413733,68.15319759075713
1760598098.7773683,6.64164046651747,0.2031524365691135,0.7679738048507585,0.1923960193590266,-18.241419334018488,-25.793581017900664,65.67805015138399
1760598098.7873633,7.330787541295847,0.2361583139772624,0.7601129560980365,0.19913675460444938,-12.282740193209479,-21.734583067425262,63.374426871814755
1760598098.7973654,8.00168271133509,0.2665658823095791,0.7519602910410609,0.19969820121360976,-7.147348387762207,-17.20618170055262,61.214749749047435
1760598098.8074148,8.653507987218193,0.2913319142288773,0.7430314156762674,0.19520639799280956,-2.766163131128867,-12.421726464419725,59.12536786759676
1760598098.8173797,9.28382160783917,0.30816979905344655,0.7332417143312894,0.1874629280976461,0.9865907614892051,-7.603832578509331,57.00550077820346
1760598098.8273747,9.88896817619772,0.3159326902003315,0.7229795094292872,0.1785585613974948,4.260349219163148,-2.953286358496367,54.748987606509054
1760598098.8373723,10.464776219484671,0.31475021196722686,0.7130801318259015,0.17047374910742136,7.19537099857722,1.3762326855095144,52.26435041404788
1760598098.8474352,11.007380015784388,0.30592638648618425,0.7046978756755321,0.164736596975253,9.896353455588558,5.292926693145522,49.489478729069205
1760598098.8573854,11.51399326146945,0.2916557781060779,0.6990989302448856,0.16219671592773988,12.417276907109686,8.76884114971226,46.398823017994346
1760598098.8673701,11.983487248156507,0.27464084243787645,0.6974193048739068,0.16295265177398108,14.759778615746013,11.829457822216519,43.00290933759807
1760598098.8773637,12.416674659838884,0.2576933890896819,0.7004405096196524,0.16644239957796475,16.884389281007252,14.533794619103624,39.34173399634442
1760598098.8873744,12.816258107804257,0.24338170152921862,0.7084305614100401,0.17167383823610072,18.731163953707615,16.94945702634473,35.474710932261274
1760598098.8973773,13.186458562858839,0.2337552873559259,0.7210818255222571,0.17753977892711775,20.24425926336718,19.12756293209186,31.470113791401044
1760598098.9073813,13.532386591834141,0.23015592332595808,0.737555587294675,0.18314010236123926,21.39430553895115,21.081944796201377,27.396459468931305
1760598098.917398,13.859257431517662,0.233114164910142,0.7566202944737987,0.18803353123953906,22.1931053379133,22.77584131255171,23.317295721936556
1760598098.927416,14.171579729552104,0.2423333916363944,0.7768490356508487,0.192366838077353,22.697055494626248,24.117782026782486,19.289722387435965
1760598098.9374008,14.472463622238651,0.2567706383196174,0.7968258956216833,0.19686438909399784,22.99841224515265,24.9667907457849,15.36597955700753
1760598098.947372,14.763186287191765,0.2748231989131883,0.8153072720277141,0.2026853421313629,23.20660441211574,25.145603480448365,11.596739434515095
1760598098.957468,15.043110869752576,0.29461261136285777,0.8313021783674157,0.21116520190632673,23.424319847780005,24.459650876870537,8.034415316878247
1760598098.967383,15.309978741693538,0.314325199801806,0.8440741686519544,0.22346936654478866,23.724010668635508,22.719365654766243,4.7348992865463675
1760598098.9773808,15.560506445157563,0.3325387964821998,0.8531034702590142,0.24021649959790692,24.12961820645595,19.763754142976964,1.7566478713803841
1760598098.9873838,15.791148895485293,0.34845966942071843,0.8580537217190053,0.2611670697481878,24.606642376942414,15.483552868691358,-0.843197038058958
1760598098.9973829,15.998861980917992,0.3620175878234214,0.8587653100841427,0.28507673098263714,25.062161389209063,9.842321964081052,-3.0151763897072836
1760598099.0073628,16.181713433739805,0.3738072661041928,0.8552730691609369,0.3097664084612015,25.355233964763308,2.89363009821767,-4.72528008674768
1760598099.0173724,16.339238243159144,0.3849023752531371,0.8478360962488656,0.33239259005236477,25.316979477677,-5.207646362942379,-5.962677110576831
1760598099.0273728,16.47249649489997,0.39659225038820395,0.8369676987894984,0.34985426548178783,24.778370365578127,-14.20177609541081,-6.745953138284243
1760598099.0373638,16.583851443018663,0.41009925744843995,0.8234570754061136,0.3592568122932625,23.602496038577733,-23.729794771425034,-7.1266867300866705
1760598099.0473824,16.67653079517818,0.4263291248852962,0.8083800432450928,0.3583558101147846,21.71696795600498,-33.348854340859994,-7.189699939878318
1760598099.0574272,16.754056211774767,0.44569132786520294,0.7931028428273086,0.34591547685756047,19.1414507401219,-42.5566312759945,-7.049891828297443
1760598099.0673833,16.819625398260833,0.4680075157193862,0.7792855072139562,0.32193287039667434,16.005286429129377,-50.82278899192561,-6.846050591880274
1760598099.0773942,16.87551815521249,0.49250978020578406,0.7688841343679732,0.2876981900551874,12.551069222628708,-57.62440660500196,-6.732329911094602
1760598099.0873806,16.922584818632306,0.5179208444791641,0.7641363122792378,0.24568289328352722,9.121878301606984,-62.481703304788255,-6.868138113783111
1760598099.0974498,16.959867624253285,0.5426018285441307,0.767499724763076,0.19926982957682396,6.1324122882002285,-64.99038761599704,-7.407096450949077
1760598099.1073723,16.984398485191246,0.5647438237726414,0.781509530937386,0.1523608687156545,4.026921859799762,-64.84754249721553,-8.485614135408106
1760598099.1173801,16.99120425646773,0.5825662956336769,0.8085292911172015,0.1089149122933288,3.228951442794489,-61.86900810053149,-10.211629312312468
1760598099.1273863,16.973530740696052,0.5944755554583868,0.850392007219685,0.07247950004331008,4.089000911105597,-55.9975024084442,-12.654220977542723
1760598099.1374,16.92327129751755,0.5991391999117655,0.9079583310811741,0.04577953602622558,6.836226698777323,-47.30199910133991,-15.835055645941225
1760598099.1473868,16.83155783634777,0.5954520838282893,0.9806520568173954,0.030416914053682863,11.53956527073905,-35.9700508598205,-19.72287384379065
1760598099.1573958,16.689444979886385,0.5824033485753497,1.0660611441893224,0.0267164099691841,18.082645844262117,-22.29571317988327,-24.232288279943173
1760598099.1673853,16.488598604821323,0.5588918332510926,1.1597093431054761,0.03372721070759407,26.155801561162043,-6.66629936610197,-29.227911538354874
1760598099.1773856,16.22189616540301,0.5235657721921858,1.2551047604750856,0.04936375254445573,35.26742952242944,10.448853853311123,-34.53419002830129
1760598099.187396,15.883864665594073,0.4747728416438425,1.344150856469834,0.0706591687675873,44.775862998415825,28.505259947051563,-39.95035136442787
1760598099.1973863,15.470922601919968,0.4106940992629179,1.4179523286906568,0.09411088394652006,53.94154001543385,46.88512912165082,-45.268750738542884
1760598099.2073786,14.981445706000736,0.32970191553688616,1.4679620195203054,0.11609931934035364,61.99706343389825,64.8961006929086,-50.293890121199624
1760598099.2173853,14.415728128904053,0.23093569560381558,1.4873151596238152,0.13333869742587565,68.22950615321882,81.77197607503514,-54.858769890277266
1760598099.2273793,13.775944750939493,0.11503320584678083,1.4721161250258499,0.14328068113278944,72.06558914037332,96.68341307387698,-58.83528500353583
1760598099.2374218,13.066220792679045,-0.015118455380296447,1.4224048686491197,0.14436659615370448,73.14746185536669,108.7674838327211,-62.13638209397954
1760598099.247403,12.292868970570646,-0.15383619469138585,1.342546507709815,0.13604922385827806,71.38616310039151,117.18266692930747,-64.70985012308381
1760598099.2574358,11.464762144063519,-0.2925802942462383,1.2408691194945767,0.11859475206997014,66.98220314466279,121.18990061465878,-66.52661271022232
1760598099.267449,10.59369613524162,-0.42061483804605954,1.1285309699724129,0.09278535226922315,60.4077980647621,120.25192933300075,-67.56904139690815
1760598099.2773857,9.694514332679441,-0.5264283889264723,1.0178040820443173,0.05968929654691966,52.351831344752966,114.13479541070656,-67.82540622777533
1760598099.2873828,8.784767982249386,-0.5996599333642972,0.9201399098288923,0.020604619661476642,43.63489125623256,102.98992263615713,-67.29403041159432
1760598099.2974048,7.883795510316742,-0.6330310607618562,0.8444513633996892,-0.022842618931694758,35.10640861826235,87.39514941740266,-65.99573857101285
1760598099.3075955,7.011284795303728,-0.623740720398325,0.7959740067116604,-0.06856547563437579,27.53850007084425,68.33901186175497,-63.98835083883052
1760598099.3173797,6.185555607034181,-0.5739623614638447,0.775894184061061,-0.11398844237824385,21.53162220018031,47.1432819715792,-61.375139294471005
1760598099.3274033,5.421891018537769,-0.4903851362384824,0.781723201963524,-0.15620756996614452,17.44570367259898,25.331552497738684,-58.30148071413781
1760598099.3374116,4.73122595847654,-0.38301061530972247,0.8082244602970132,-0.19233068421415683,15.367136001556172,4.463390706689666,-54.939072491943804
1760598099.347396,4.11939009305394,-0.2635602066297965,0.8486109803844321,-0.219911505278977,15.116797594538134,-14.03867814620034,-51.462211298033175
1760598099.3573964,3.5869550178083225,-0.143853706919351,0.8957338100645446,-0.23735201912527462,16.29733507484168,-29.040489126225435,-48.02335759302154
1760598099.3674064,3.1296079663348393,-0.034430596274451185,0.9430542640582137,-0.2441571093840538,18.370452334792144,-39.80206276335463,-44.73479636716132
1760598099.3773983,2.7388997040246714,0.05643437356770337,0.9852961899270669,-0.2409777857921533,20.749176850808798,-46.0244838170605,-41.660527844436544
1760598099.387462,2.4031980742413017,0.12327435080185421,1.0187707854458508,-0.22944892266912822,22.88795665164082,-47.83700119522703,-38.819104340343294
1760598099.3974962,2.1087055498046454,0.16355819914031852,1.0414305153603174,-0.21188135811636724,24.355536886456736,-45.73476577411762,-36.195259159659535
1760598099.4074044,1.8404474710328322,0.17747432503160093,1.0527329797016458,-0.19088911147924356,24.88082748931918,-40.484528092462284,-33.756504719216316
1760598099.4173682,1.5831889257497784,0.16746771138576586,1.0533892176205835,-0.16902641393729617,24.36845054362584,-33.017113644072545,-31.470453397376545
1760598099.427381,1.3222797564825062,0.13763718707995967,1.0450511592236165,-0.14849050654863125,22.88645734424557,-24.322576206245497,-29.319131946675533
1760598099.4375088,1.044451207302744,0.09309548842318499,1.029975276792096,-0.13092286073275428,20.632717796031045,-15.358725074056334,-27.307654508488632
1760598099.4474456,0.7385896555107213,0.03937677331160528,1.0106909498514582,-0.11731794154590487,17.888475774810576,-6.978361464211105,-25.466006330904275
1760598099.457391,0.3964903941176529,-0.01805386500439672,0.9897003635216421,-0.10803063573899092,14.967814640027115,0.12352218461789961,-23.84415186434265
1760598099.4674034,0.01354951898933453,-0.07417127276846242,0.9692349667887488,-0.10286384722901103,12.170715442212284,5.443599059470318,-22.501998011006425
1760598099.477393,-0.4107035066184396,-0.12465653385239682,0.9510864222857859,-0.10121274723067517,9.745465059891062,8.68683593109552,-21.49667479941498
1760598099.4873846,-0.8723703633591083,-0.16608938867845224,0.936517825706679,-0.10223755792888709,7.863846204019054,9.767395327818509,-20.869939768188637
1760598099.4974,-1.363377706813394,-0.19609037244374689,0.926248418163401,-0.10503415492968704,6.610236522726155,8.79493917253119,-20.638211580965756
1760598099.5073776,-1.8721675862847214,-0.2134142368067719,0.9204967958197116,-0.10877523852498822,5.983745405559228,6.04746535383387,-20.78693450414346
1760598099.5173895,-2.3848450412143807,-0.2179761449987734,0.9190648675231446,-0.11280460327171957,5.910976138496079,1.9324058976029348,-21.26995399858978
1760598099.52738,-2.8866348633013876,-0.2107869033749575,0.9214453103381937,-0.11667941129193525,6.2660149067102004,-3.0612322257385927,-22.013642300275855
1760598099.5373867,-3.3634275077254534,-0.19378436047311665,0.926936620190792,-0.12016617705608851,6.893877892465925,-8.415771888214852,-22.924834303942944
1760598099.5473928,-3.8031782640277627,-0.16956772208125034,0.9347514750594719,-0.12320276312939409,7.633858563025261,-13.638070997686478,-23.901242467419017
1760598099.5575042,-4.196961429793378,-0.14106132909455893,0.9441066744097855,-0.1258403763876575,8.339857058807835,-18.307935625360358,-24.842839551918455
1760598099.5674512,-4.539555479408527,-0.11114925727598532,0.9542868183265315,-0.12817773633876936,8.895643477509541,-22.1168218761849,-25.662661044698016
1760598099.577406,-4.829524496182819,-0.08232983671507216,0.9646786811349969,-0.13029683479330986,9.2239527136284,-24.89263394478022,-26.295586138551066
1760598099.5874972,-5.068845399403197,-0.05643904751556906,0.9747778449550357,-0.13220768470220717,9.289242429175065,-26.607783903094628,-26.703950257790435
1760598099.5973866,-5.262195389609937,-0.03448393274663507,0.9841725487368088,-0.13380798916235123,9.094793621338628,-27.369652905729268,-26.87932840058903
1760598099.607403,-5.41605239213381,-0.016612533535607422,0.9925114979622531,-0.13486208366708477,8.675495233465004,-27.394919093135083,-26.840432189531917
1760598099.6174726,-5.537771568979086,-0.0022267105421378284,0.9994631887082024,-0.1350017705157946,8.088036047662776,-26.97143926606135,-26.62766347945324
1760598099.6274333,-5.634785985130681,0.009778150726621254,1.004675223087783,-0.1337497673305285,7.40029299847903,-26.413072436356526,-26.295353436297958
1760598099.6374338,-5.714045304744821,0.020682494889116818,1.007743559549032,-0.13056444170069043,6.681483489355916,-26.01376671709237,-25.903010355725034
1760598099.647417,-5.781758528304248,0.03157220966585612,1.0082028523690554,-0.1249032296114296,5.9942096525952735,-26.007278688350905,-25.506950824905807
1760598099.6574237,-5.8434476324268845,0.04299069962894324,1.005548390814216,-0.11630247169026323,5.388970715638604,-26.538023307886576,-25.153481174370732
1760598099.6676364,-5.904251795094878,0.05468079313087387,0.999296271399034,-0.10447182414997462,4.901189171867596,-27.64684471712126,-24.874374817199023
1760598099.6774237,-5.969358597382074,0.06547705476490367,0.9890812219878476,-0.08939838127189016,4.550396767741858,-29.273173563063665,-24.684865273087844
1760598099.6874433,-6.044400859374604,0.07338424125168075,0.9747821969662936,-0.07144738787689704,4.3409901747187005,-31.27244507497246,-24.58388410219224
1760598099.6974514,-6.135664908827225,0.07583756760448256,0.9566562785068276,-0.05143653117881251,4.263858665007712,-33.445254585435194,-24.555941160002476
1760598099.707441,-6.250007846767851,0.07010002043712663,0.935453606523674,-0.03065615944080586,4.298168284518776,-35.57299726288219,-24.57393036942237
1760598099.7174397,-6.394455163377703,0.05372771934157836,0.9124825564087006,-0.01081193251388307,4.412671293367365,-37.45400820355227,-24.602211565374713
1760598099.7274303,-6.5755188962575195,0.025029518497557728,0.8895975100073698,0.0061209365079646786,4.56614334164207,-38.934580682119716,-24.59946620901035
1760598099.7374096,-6.798327849827789,-0.01654808227359534,0.8690917877893461,0.018123063518694013,4.706936473349908,-39.93052922693309,-24.520963988932703
1760598099.7474275,-7.065696639570224,-0.07017217963430256,0.853493925235863,0.023407020409734653,4.772090624083494,-40.43681116237916,-24.319994501346017
1760598099.7574832,-7.377281855999466,-0.13355923320486476,0.845284357330991,0.020703157809950946,4.686848032470906,-40.524710586137786,-23.948358712807224
1760598099.7674632,-7.728977439174066,-0.20312055957679867,0.8465690034350504,0.009508604355911698,4.365644896140104,-40.32791029775911,-23.356011611705718
1760598099.7776124,-8.112679806608279,-0.27431039086860637,0.8587601137193152,-0.009749850807327706,3.7155895177680787,-40.02022729472453,-22.490175997559202
1760598099.7874298,-8.51650253927979,-0.34213277534366837,0.8823156083848551,-0.03567954218552614,2.642981983846616,-39.78872614412067,-21.294455157947375
1760598099.797423,-8.925447951140313,-0.4017325104247889,0.9165751501488363,-0.06602099906313708,1.0626271080963188,-39.8062908553807,-19.70861339176399
1760598099.80741,-9.322466508994824,-0.44898013550722443,0.9597134573293324,-0.0978461792017085,-1.0912212117259337,-40.20756038633236,-17.66971618460967
1760598099.8173988,-9.689770325269471,-0.48096247896217265,1.008821059882686,-0.12779789392232305,-3.854126579256389,-41.07146800308296,-15.115167474281865
1760598099.8274107,-10.010220991834846,-0.49630244876185275,1.0601216993207712,-0.15233798822186995,-7.222994169023217,-42.41250052015319,-11.98782642496349
1760598099.8375673,-10.268594756957505,-0.4952558947888004,1.1093293354730112,-0.1680163086514653,-11.151610493905824,-44.18131340020182,-8.242868741789831
1760598099.8474057,-10.452553739420095,-0.4795735800998957,1.1521215115462424,-0.1717811705298377,-15.55132742366418,-46.273784812296235,-3.855476620561564
1760598099.8573985,-10.553219047363795,-0.4521638198355927,1.1846674388472171,-0.1613164686961859,-20.29720569279078,-48.54635365471835,1.1720357594115813
1760598099.8673868,-10.565324583848195,-0.41662730009854654,1.2041230962771918,-0.1353538024718296,-25.23902617559947,-50.834843011718924,6.805217679616737
1760598099.877395,-10.48699946428254,-0.3767484176615193,1.2090060728602374,-0.0939020352582408,-30.215689484904132,-52.973950394845694,12.97586548466435
1760598099.8873959,-10.319269435915944,-0.3360201841930451,1.1993848895156227,-0.038355084207041125,-35.07087907095941,-54.81500285356626,19.584371841507608
1760598099.8973997,-10.065386140377049,-0.2972630767347942,1.176850782693441,0.028538074644354927,-39.66767689399806,-56.2401752662023,26.50575316579909
1760598099.9073985,-9.730095050148526,-0.26238080648509876,1.1442778226072892,0.10283992277233002,-43.90009238966698,-57.17198906546032,33.598286784476066
1760598099.9174275,-9.31894410409499,-0.23227795026752676,1.1054139142699975,0.1797166649847276,-47.69995981681258,-57.57754905072251,40.71318081552897
1760598099.9275248,-8.837717487759537,-0.20693965550077217,1.0643731023001417,0.25384242020092707,-51.038135619471596,-57.46771332436136,47.703560028266345
1760598099.9374044,-8.292052697083392,-0.18564112510288966,1.0251120340434623,0.3199021472550069,-53.919389048623465,-56.89214669049445,54.4313096206483
1760598099.9475465,-7.6872654049971985,-0.16722603355483523,0.990967950501488,0.37317389279421276,-56.371116065842976,-55.93166614729263,60.77097203953125
1760598099.957425,-7.028370509016267,-0.150385149898194,0.9643155593478911,0.41013860334694346,-58.42729651692865,-54.689154190152834,66.61083761383793
1760598099.9674098,-6.320256103501494,-0.13388399184351527,0.9463731714556196,0.42900739571539526,-60.11074162191835,-53.27969165738883,71.85228380290349
1760598099.9774537,-5.567946206693788,-0.1167180720761084,0.9371613039263869,0.4300173968338239,-61.417837500965994,-51.819970025202636,76.40886402618669
1760598099.9874125,-4.776880909998824,-0.09819842855243624,0.9355950528778583,0.4153808401754317,-62.309866579495875,-50.416972671925706,80.20642791432662
1760598099.9974542,-3.953148233216368,-0.0779811136668154,0.9396817191309061,0.388873640609238,-62.71343101164691,-49.15636396105631,83.18487817723194
1760598100.0075288,-3.1036161270615117,-0.05605465412944741,0.9467988374243783,0.3551618532840789,-62.53010033906581,-48.09158519452945,85.30143016866141
1760598100.0174317,-2.2359307880100214,-0.03269462885382114,0.9540336811397463,0.31903306436191675,-61.65308674092229,-47.234978899480815,86.53471749872321
1760598100.0274758,-1.3583654617172,-0.008389079199572508,0.9585597499396553,0.28470438961652295,-59.98731302541403,-46.55232657599559,86.88885219800824
1760598100.0374672,-0.47952143122538593,0.016264047829609395,0.9580084639156007,0.25533015607402676,-57.46897718827754,-45.962139339855085,86.3965396689479
1760598100.047451,0.39209807937879515,0.040681899948231785,0.950779296946102,0.23275925103942025,-54.08135048575703,-45.34088725097728,85.12046542407707
1760598100.0598772,1.2485966251355833,0.06442535495441211,0.9362337385053061,0.21752479082631004,-49.86454350328972,-44.53485644305071,83.15234799398884
1760598100.069284,2.083204608072027,0.08729673542632407,0.9147401018060423,0.2090081209530783,-44.917959122532736,-43.37828389642265,80.60929442183077
1760598100.077465,2.890720767229709,0.10936807782115857,0.8875665991663745,0.20571107671494543,-39.395031969337964,-41.715980659435054,77.62742234189038
1760598100.0874498,3.6677892031997428,0.13091863225914258,0.8566479101235933,0.20558347936864982,-33.490741078615905,-39.42727055224061,74.3530998639138
1760598100.0998251,4.4129557201951215,0.15229297902176386,0.8242717073023608,0.20636805035835548,-27.423393722460663,-36.447243538956506,70.93253443273771
1760598100.1091344,5.126489884017229,0.1737226485589638,0.7927445842534995,0.2059316547631042,-21.413212063644668,-32.78138970146083,67.500740081696
1760598100.1174057,5.81000065342804,0.19516978644608263,0.7640971670876601,0.20255227284498906,-15.660941642362584,-28.510704450733712,64.1710556893731
1760598100.1274033,6.465909089612681,0.2162462759832984,0.7398734463218877,0.19513264473517125,-10.32967748289076,-23.786074490340223,61.0263308870757
1760598100.137414,7.096868491467304,0.23623833918096382,0.7210243804325439,0.1833188018735875,-5.532335514502056,-18.812687683805397,58.11267588944487
1760598100.1474073,7.705231440647563,0.25423281602402453,0.7079008517433437,0.16751506977358727,-1.325985705025829,-13.826904012717083,55.436384185684865
1760598100.1574333,8.292648658955562,0.26931071203395246,0.7003252294752296,0.14880373492048524,2.2869854148582167,-9.069174260872778,52.9643604089275
1760598100.167607,8.859852390055742,0.280759610722857,0.6977162584772408,0.12879202471243115,5.351859823901551,-4.757000331666248,50.62812325108264
1760598100.1774087,9.40663930299976,0.28826103904652756,0.6992435452067913,0.10941544947085412,7.950175540226172,-1.061550124713785,48.33115971323507
1760598100.1874127,9.932031321644775,0.29201964839341976,0.7039890390746957,0.092723352961541,10.1855295519691,1.9093643315292819,45.959062928894156
1760598100.1974363,10.434557410969704,0.2928054656744076,0.7110916817879215,0.08066538817900462,12.168393939227792,4.120171495845682,43.39153582891222
1760598100.207452,10.912568174289115,0.2918823524575506,0.7198508698515542,0.07489414828730843,14.002061844753321,5.60717874497516,40.5150656291828
1760598100.2174537,11.364480650875304,0.2908115683881779,0.7297694824753332,0.07660090477644448,15.771932696285846,6.46844097928471,37.234960147533506
1760598100.2274425,11.788867493390185,0.29115389209826664,0.7405307897378679,0.08640382873917513,17.53975317065025,6.844297220755867,33.485576656270126
1760598100.237483,12.184354739983956,0.29413128952040724,0.7519222129989702,0.10430607969516752,19.343099514041917,6.890532247174608,29.23796837697443
1760598100.2474,12.54936127477123,0.30033071734635786,0.7637335866013497,0.1297319214786324,21.198756660261722,6.747840390324789,24.504663382480413
1760598100.257421,12.881779016831517,0.3095311521817657,0.7756614391755917,0.16163199135354497,23.107388803236304,6.5125575210081905,19.341665853106377
1760598100.267435,13.178735080565126,0.3207110711040393,0.7872459809901485,0.19862697594905326,25.056637508304448,6.213958391776637,13.847919454302831
1760598100.2774498,13.436578468491074,0.33225085977412067,0.7978599418482689,0.2391423373903646,27.020878059223826,5.8025086089738895,8.16236753050117
1760598100.2874308,13.651185408313646,0.3422926523456278,0.8067590746261512,0.28149035975908976,28.958010608122844,5.151402429851785,2.458404184412169
1760598100.2974193,13.818587240462236,0.34917587063271044,0.8131916433437858,0.32388507995632554,30.805748136551152,4.071150958193547,-3.0648863853030557
1760598100.3074431,13.935820879842765,0.35184695770226354,0.8165527239632665,0.3644148164660609,32.480649632870985,2.334855850595662,-8.195397150246372
1760598100.3174071,14.001821389478057,0.3501533402208098,0.8165640172369044,0.40102006541867535,33.882363987750566,-0.2893308623262849,-12.72477528442591
1760598100.327424,14.01814575252611,0.3449669911140536,0.8134581086465608,0.43152043222635106,34.904002473753806,-4.002337265948289,-16.468505253179988
1760598100.337437,13.989341799332884,0.3381241821464881,0.8081397278689648,0.45371468866317544,35.44806840420241,-8.938510537219473,-19.287329397188714
1760598100.3474267,13.92284461839278,0.33219877544481907,0.8022847727997288,0.4655578841683547,35.44607934489051,-15.133450372456489,-21.10710693130938
1760598100.3574173,13.828375027368859,0.33014288372815287,0.7983302323404746,0.46539994830914483,34.87878676493546,-22.498210676326796,-21.933810234844206
1760598100.367444,13.716909386442447,0.3348379337104883,0.7993149502589381,0.45224874723232666,33.792902651709284,-30.802302107106392,-21.860649172700267
1760598100.3774261,13.599368266936494,0.3486075425324968,0.8085546163633218,0.42600383406346415,32.30989508702758,-39.66745841282487,-21.065272735268653
1760598100.387419,13.485220048948268,0.37274998165323936,0.8291692820230042,0.38760546470087653,30.623016644554028,-48.57360242434265,-19.79640332407286
1760598100.3974128,13.381207523850762,0.4071470682164111,0.8635197127456653,0.3390596411125127,28.98033241035305,-56.87790672631726,-18.350827638291733
1760598100.4074006,13.290380224336774,0.44999674986899874,0.9126408164404993,0.28332610155923305,27.65396760371695,-63.84738792782105,-17.043149081979006
1760598100.4174047,13.211558801585147,0.4977039793555678,0.9757780656204738,0.22407922173774522,26.89878111908895,-68.70508452730942,-16.17190110123022
1760598100.4274232,13.139283817483909,0.5449561223198424,1.0501305340307303,0.16536562600747615,26.906668473268223,-70.68933036957587,-15.986386995213259
1760598100.4375246,13.064227536963623,0.5850072063681292,1.1308794173202663,0.11119227515777755,27.764964944711103,-69.12465276638672,-16.658843004205032
1760598100.4474425,12.973990267315186,0.6101939146065966,1.2115361951618495,0.06509116454724523,29.428165204174455,-63.50114463136161,-18.266092249182996
1760598100.4574277,12.854172344224093,0.6126951259712812,1.2845890720052056,0.02971896198879246,31.710843681693923,-53.55661165876732,-20.783644097800746
1760598100.4674277,12.68960897401547,0.5855166571430173,1.3423747335774843,0.006552787817922952,34.30614127922296,-39.35246105692088,-24.09321133829908
1760598100.4774866,12.46566887279166,0.5236279614278575,1.378068142256218,-0.004270476805688102,36.82895050375627,-21.33087952969339,-28.00216475895318
1760598100.4874625,12.169535836706762,0.4251021674849452,1.3866670491054205,-0.003952697155222465,38.87711049835415,-0.3387981473988079,-32.27112570011239
1760598100.4974325,11.791403853988802,0.2920385548570693,1.3658378719042874,0.005117171432033942,40.0991069810491,22.39484843806002,-36.64442553649426
1760598100.507452,11.325515981983358,0.13101397718453583,1.3164788860103382,0.01963567369035214,40.25449197972779,45.336997394210066,-40.87802496412244
1760598100.5174365,10.770965874491377,-0.04715609958558723,1.2428608756485615,0.035748619575589696,39.25439371109642,66.78308641244313,-44.76072570127308
