timestamp,angle,linear_acceleration_x,linear_acceleration_y,linear_acceleration_z,angular_velocity_x,angular_velocity_y,angular_velocity_z
1761286102.72896,-7.765334210610796,-0.3584437678926603,0.8697692763542145,-0.265666521964714,7.734863592780215,44.99648643509958,18.195188928714213
1761286102.7389617,-7.825477733897702,-0.36695974346449145,0.8883090764859025,-0.2470925309864207,6.190079365212314,41.48352503487687,15.870107747800036
1761286102.749287,-7.911956478446034,-0.36047426431760404,0.9088062230698668,-0.23113418597572521,4.837142567552873,36.81625352026185,14.14192355234269
1761286102.7604127,-8.005495296815218,-0.34177878608634255,0.9300847227784446,-0.21914204309897303,3.705458514001782,31.42608572484619,13.063570066429362
1761286102.7711596,-8.0880649196509,-0.3142254178737132,0.9508626482696294,-0.21213626594724908,2.797942172010893,25.72677045456959,12.651317983580814
1761286102.7795448,-8.144028073525988,-0.28129446341012165,0.9698503461636558,-0.21068720442245506,2.0969399785491816,20.07551845676483,12.886975297530382
1761286102.7895136,-8.160898346492553,-0.24619180434739316,0.9858681841125703,-0.2148359558761911,1.5720648194277995,14.74638082448099,13.722217924585813
1761286102.7996252,-8.12968228466894,-0.21154093688546907,0.9979647502855048,-0.22406931386641954,1.1882011421870908,9.918583685118374,15.084152389091185
1761286102.809459,-8.044851169700648,-0.17920751539637575,1.0055145076328402,-0.23735795530890944,0.9121285740173118,5.679807505806949,16.881168328595727
1761286102.8196883,-7.904040396834095,-0.1502627783146946,1.0082765534678588,-0.2532583340489864,0.716742988218754,2.0418919643936246,19.008338577174843
1761286102.8297865,-7.707597341222043,-0.12506769494060313,1.0064035351674843,-0.27006979196841513,0.5825563614030582,-1.0353554251540418,21.35199978222743
1761286102.8389964,-7.458096359620487,-0.10344567121050112,1.0004004417289272,-0.28603030056535894,0.49683309610936516,-3.6174116412855133,23.79357565843722
1761286102.848981,-7.159916225074866,-0.08490542004694167,0.9910437808441342,-0.29952731340015876,0.4512069590195248,-5.770376031412045,26.213050293544132
1761286102.8591201,-6.818935139631376,-0.06887347954835221,0.9792791289996376,-0.3092948308529695,0.43882677090395034,-7.542456461946111,28.492656324080844
1761286102.868996,-6.442348837984175,-0.05489695628007662,0.9661169577360251,-0.3145656243335342,0.4519863218087182,-8.954149137370678,30.52127621080735
1761286102.878981,-6.0385688480664665,-0.0427824718524808,0.952542748751539,-0.31515109002703634,0.48086311372551993,-9.997868678241145,32.199787384114174
1761286102.8889859,-5.617121814433576,-0.03264776598829337,0.9394496593299737,-0.3114318054029974,0.5135350636202733,-10.645985766794336,33.44717816425096
1761286102.8991394,-5.188456326701562,-0.024877940332826143,0.9275937908956214,-0.3042586355327271,0.5370061615921614,-10.864678964598571,34.20682561292428
1761286102.9090517,-4.763577351417565,-0.019997974224023718,0.9175667562237039,-0.29478367654626725,0.5386900941846035,-10.629977680573504,34.451988560462084
1761286102.9189563,-4.353470217390516,-0.01849331199904837,0.9097792848113908,-0.28425671779136485,0.5077626102611089,-9.942091767250904,34.18943600934218
1761286102.9289775,-3.9683366120271097,-0.020624232395343223,0.9044520316237622,-0.2738302955775042,0.4359831404378881,-8.834670557927197,33.46024562698767
1761286102.9389415,-3.6167271291260232,-0.026281183813985753,0.9016130021372185,-0.264411938774875,0.3178853547227008,-7.376899663567813,32.3371555363449
1761286102.9489527,-3.3047010251015903,-0.03491667345211362,0.9011032290543354,-0.2565879548532621,0.15049621966709764,-5.668055740384265,30.91839171609528
1761286102.9589534,-3.0351617351308517,-0.04556945458248261,0.9025933997820064,-0.2506245193415252,-0.06713112796558274,-3.825908681765968,29.318536947369022
1761286102.9689703,-2.807500705500246,-0.05697457434950154,0.9056144210249825,-0.24653446225167996,-0.3343026979350988,-1.9717427306760096,27.65760490644431
1761286102.9789732,-2.6176334979225166,-0.06773314946316715,0.909604060034496,-0.24418554688262745,-0.6488271503520677,-0.2153988696137061,26.049861629122802
1761286102.988976,-2.458440577385404,-0.07650294798282797,0.9139692692617201,-0.24341957473396067,-1.0068890193485165,1.3565114320049476,24.593982637824208
1761286102.9989536,-2.3205483189877745,-0.08216846976439235,0.9181600350340041,-0.24415148548489835,-1.4027308882319447,2.6870733741947,23.365834152349862
1761286103.0089521,-2.1933247041548665,-0.08395802102362888,0.9217469760887294,-0.2464236981115794,-1.8282875690892597,3.7495065473743874,22.414600265764708
1761286103.0189998,-2.0659360280045025,-0.08149236137217954,0.9244927242477817,-0.25040268670692084,-2.272933890501184,4.542338114838687,21.76229605774717
1761286103.028973,-1.9283209192616755,-0.0747686577980151,0.9264068231230053,-0.2563198197765689,-2.723490567178517,5.081210558628187,21.406088216118878
1761286103.039009,-1.7719764598009717,-0.06409757225841382,0.9277751197208249,-0.26437242818612533,-3.164597023847624,5.389765132888503,21.322431859339414
1761286103.0490131,-1.590499861910243,-0.05001634080174498,0.9291566927520813,-0.2746095104619663,-3.579523319377392,5.491929023382834,21.471892089374684
1761286103.0589933,-1.3798727103974626,-0.03319825010592977,0.9313440544551383,-0.28682775724284754,-3.951458858883273,5.407276165773702,21.803642362855243
1761286103.0689702,-1.1385080979689355,-0.014373875910941926,0.935286016680186,-0.30049959008862087,-4.265268159425819,5.150158961282622,22.25894865026548
1761286103.0789814,-0.8671067922935735,0.005724511060785815,0.9419770967246277,-0.314749021791469,-4.50962789859511,4.732298821225511,22.773356514209766
1761286103.0890152,-0.5683902333685517,0.026386619517998828,0.9523219782860897,-0.328384952506769,-4.6793610782729615,4.167715768106298,23.277702922924785
1761286103.0994155,-0.24679310072518487,0.04691142366166194,0.9669883516229936,-0.33999400735610563,-4.777691133973596,3.4783978019567368,23.69841312375471
1761286103.1090362,0.09180433255367715,0.0665634032940796,0.9862667735220357,-0.3480849898698471,-4.8180792562668024,2.69896614618478,23.95778267354297
1761286103.1189868,0.4402549021236117,0.08451810343278725,1.0099603542754134,-0.35126582623121383,-4.8252899476847535,1.8787381547934516,23.97505872669102
1761286103.1289706,0.7902412551251908,0.09982966861557466,1.0373265116245853,-0.34842524624270477,-4.835343745062457,1.0800147183648068,23.669075954509672
1761286103.1390128,1.1323556587260837,0.11145237117175069,1.0670860482627602,-0.3388887251520327,-4.894064997159758,0.37214891284176244,22.962916402353297
1761286103.1490552,1.4562598574820016,0.11833183162180336,1.0975040218316179,-0.32252218593349224,-5.054050163844423,-0.1780494559588296,21.79054357877689
1761286103.159091,1.7510126059421784,0.1195566570445443,1.1265364723816031,-0.29976612060676944,-5.37010963403138,-0.5179381036852291,20.104700027513825
1761286103.169459,2.0056067040178065,0.11453813280644534,1.1520287764290067,-0.2715946803633605,-5.893578401691722,-0.6201980827221052,17.884732764106886
1761286103.1790066,2.2096925779205763,0.10317257920450298,1.1719443343894118,-0.2394065416085099,-6.6662832392533735,-0.4906892834647526,15.142634466416892
1761286103.1889806,2.354403492474172,0.08594250844686945,1.1845958467453135,-0.2048650769160737,-7.715255438862665,-0.1705871613252462,11.925639431848591
1761286103.1990452,2.4331576249594886,0.06392838729266893,1.1888469566007176,-0.1697128110233065,-9.049315513247848,0.2684158106827092,8.314264172934093
1761286103.2089782,2.4423045467491966,0.038725905082992486,1.1842525553455245,-0.1355876239890574,-10.658324764089102,0.7353176737197776,4.415628688005491
1761286103.2189734,2.38150608570047,0.012284517518693992,1.1711143350618347,-0.10386535466306104,-12.515259148312236,1.135148890530219,0.3529525768722719
1761286103.2289693,2.253783950088632,-0.013304372395968078,1.1504433838908992,-0.0755476249243939,-14.58053718709282,1.3850302071026779,-3.747045913275302
1761286103.2390535,2.0652173412167,-0.03603728107273937,1.1238382654957868,-0.05120763573658439,-16.807495351988074,1.4273756950753835,-7.766728499674009
1761286103.2489793,1.8243239583695734,-0.05421625414845264,1.0932994627904955,-0.031000222574010083,-19.147723222555857,1.237512658435213,-11.60807260612484
1761286103.2590036,1.5412012736472147,-0.06662881796472386,1.061008033554104,-0.014733315184200813,-21.55514789483287,0.8244930508049684,-15.19965897342865
1761286103.2690508,1.226537411039067,-0.07267084084400029,1.0290992817282172,-0.0019863546991234953,-23.988167267059467,0.22553158312413665,-18.499380806912928
1761286103.278987,0.8906179926369407,-0.07239991026046942,0.9994614100928119,0.007748748863410297,-26.40963852786474,-0.5041547721854108,-21.49298203953573
1761286103.2890167,0.5424526919566447,-0.06651533228437861,0.9735831594331402,0.01493293548725024,-28.785041393424795,-1.3036131071083523,-24.189257530401353
1761286103.299001,0.1891218981772825,-0.056269962387415016,0.9524633247005061,0.019878467552901635,-31.079571987291423,-2.117993870745715,-26.6132264885665
1761286103.3109875,-0.16459527225178716,-0.043326733133086534,0.9365823015291315,0.022700327903448468,-33.255177747158754,-2.907924185515036,-28.79873745234765
1761286103.3190198,-0.5162956700524134,-0.029577098652298475,0.9259268954123465,0.02332926943539139,-35.2685331042349,-3.6551651534423097,-30.781785526604388
1761286103.3289766,-0.865755405652241,-0.01693971836107026,0.9200569651613679,0.021581844629468112,-37.07067335894593,-4.364146220385466,-32.59543115785191
1761286103.3390005,-1.2145201581649676,-0.007157634316529335,0.9182035424553323,0.01726983781192649,-38.60852972224183,-5.059680816352667,-34.266751650025824
1761286103.3490107,-1.565361067121312,-0.0016125825814401705,0.9193887998972841,0.010322691629282836,-39.82808026715454,-5.781641935187835,-35.81583695107504
1761286103.3589656,-1.9216809007400806,-0.0011751730690093348,0.9225565803525273,0.0008943959954734586,-40.67841148967278,-6.57759176700186,-37.25651215040297
1761286103.3689702,-2.28694827727303,-0.0061080332203216955,0.9266987157140849,-0.010568994425813424,-41.11580522480509,-7.494367385193096,-38.59825081929709
1761286103.378973,-2.6642218117626295,-0.016035909453694753,0.9309599027957034,-0.0233157975399261,-41.10706272345102,-8.569540223553311,-39.848627009212755
1761286103.3889635,-3.05580601781266,-0.0299930369905213,0.9347061920901667,-0.03633255808942862,-40.63158796513106,-9.823624780180612,-41.015620747287635
1761286103.3991618,-3.463059892342209,-0.04655226756567115,0.9375501881620866,-0.04843774225922736,-39.68216788630275,-11.253964876281628,-42.109150501698494
1761286103.409042,-3.886358728501716,-0.06402889639684577,0.9393361519285975,-0.05840879225256805,-38.264786291962075,-12.83127703765152,-43.14138644835274
1761286103.4190004,-4.325190578942649,-0.08073434096515275,0.9400952721029874,-0.06512152284285981,-36.39805193251904,-14.499698349998797,-44.12570697469737
1761286103.4289923,-4.778352447710653,-0.0952369783338041,0.9399838947805805,-0.06768134865720866,-34.11279536737067,-16.180760339083932,-45.07454271583052
1761286103.4390204,-5.244200051259851,-0.1065786475714901,0.9392176107727161,-0.06552977842427964,-31.452086858851462,-17.781051847431677,-45.996688893071
1761286103.4490013,-5.720900771323938,-0.11440062768034334,0.938013693789936,-0.058514745240919916,-28.471484232439572,-19.20263630547957,-46.89482555286241
1761286103.4590242,-6.2066430154582255,-0.11895147373531798,0.9365524474087277,-0.04691840970872395,-25.238952918397423,-20.354754855909075,-47.76390065014078
1761286103.4690108,-6.69976648734018,-0.12097647213006767,0.9349622977909752,-0.031440608126843274,-21.833788470800986,-21.165088482388285,-48.590747323338206
1761286103.4790027,-7.198795618234679,-0.12151724210571631,0.9333246840868697,-0.013139741728023617,-18.34405644690447,-21.588879282528,-49.3549519745552
1761286103.4889755,-7.702379548915113,-0.1216706701727946,0.9316879490326705,0.006664166633783582,-14.862441524479262,-21.614484514061832,-50.03070489268852
1761286103.4989998,-8.209162002674228,-0.12236219514716959,0.930079209915164,0.026516145977087815,-11.480792754773166,-21.264425506428875,-50.58923613713853
1761286103.509229,-8.717618892465161,-0.12417990585705999,0.9285089248056227,0.04497013682785718,-8.28393338172757,-20.591671046563494,-51.001460951165555
1761286103.5190399,-9.225908217147836,-0.127298701334388,0.9269695644093087,0.060733353222441326,-5.343445957298093,-19.671685501833988,-51.24055245552508
1761286103.5290017,-9.73177534264405,-0.1315035133075583,0.9254331424346784,0.07279314398567584,-2.7121776738454084,-18.591522460456112,-51.2842392383414
1761286103.539029,-10.232547648910923,-0.13630041593007017,0.9238516159613799,0.08051111080481964,-0.4201524318209977,-17.43777655084841,-51.11665774764162
1761286103.5490265,-10.725236551562155,-0.141086732722909,0.9221614819470114,0.08367477884529244,1.5275704496991251,-16.285392831506716,-50.72959575205609
1761286103.5589778,-11.206743897078743,-0.14533948690074816,0.920291897869864,0.08250289555637239,3.150766314252367,-15.189133555236843,-50.12298876863389
1761286103.5689802,-11.674147414513511,-0.14877901603186944,0.9181752975414419,0.07760529098707888,4.491573139523548,-14.178956670413301,-49.304611559601916
1761286103.5790114,-12.12502120433728,-0.1514717143591758,0.9157597274005004,0.06990298091619361,5.609859733547347,-13.259779116482399,-48.28904235464455
1761286103.5889928,-12.557736613448547,-0.1538502996478643,0.9130216604204605,0.06051926944572325,6.576830722062817,-12.415236226108046,-47.0961295521264
1761286103.5990014,-12.971689479862336,-0.1566488661572551,0.9099766666548752,0.05065632515978349,7.467428344842759,-11.614279576802495,-45.749303016848984
1761286103.6089847,-13.36741292200399,-0.1607700487286356,0.9066838544463158,0.04147201288495698,8.352221104574262,-10.818953022024601,-44.27410296483192
1761286103.6190615,-13.746558158046357,-0.16711728005130638,0.9032395568939611,0.03396891944196625,9.289577109882037,-9.991587098931722,-42.69723854254875
1761286103.6289988,-14.111752270062524,-0.1764300804817952,0.8997570365143652,0.02890388070000559,10.31897986696419,-9.099987086111677,-41.04634643025776
1761286103.6389785,-14.466362981190727,-0.18915343959111036,0.8963316088743297,0.02672390582573065,11.45630352193978,-8.119853393245979,-39.3504091172314
1761286103.6490083,-14.814211351952494,-0.20535927387842942,0.8929934774285472,0.0275331263665238,12.691688206595114,-7.034471290633556,-37.640537230837424
1761286103.6589804,-15.159273274315014,-0.22472529296335886,0.8896536500727047,0.031093522025013663,13.990370008619546,-5.832432141554801,-35.95058455113051
1761286103.668992,-15.505401877896993,-0.2465673538485027,0.8860522629145114,0.03685837069842595,15.296504274610985,-4.504613905463877,-34.31693470002314
1761286103.678978,-15.85608961788295,-0.2699163048110747,0.8817226777211686,0.0440325268533448,16.539743310090326,-3.0417399245723042,-32.77683984842288
1761286103.6889822,-16.214276473443313,-0.2936293610630928,0.8759865373723128,0.05165003468634901,17.644091686629558,-1.4335760062168013,-31.36493064926302
1761286103.6989818,-16.58220329879969,-0.3165270243602953,0.8679930792007589,0.05865851103468521,18.538326753860197,0.3296441676714078,-30.107932222477697
1761286103.7090173,-16.96130663994243,-0.33754582836602576,0.8568104531737224,0.06400073481189684,19.1670180137618,2.253509384114337,-29.01813323905021
1761286103.719015,-17.35214982019744,-0.35589278725637347,0.8415681092289428,0.06668610833946086,19.500920963820565,4.333878327881592,-28.08664558347453
1761286103.7289886,-17.754381661742052,-0.3711807230182074,0.8216385810170858,0.06584800716692756,19.545315995263532,6.550316205096806,-27.277842104183147
1761286103.73899,-18.16670879987808,-0.38351859209385636,0.7968364624270627,0.060787855343071295,19.344822965184836,8.859600929708144,-26.526465259450404
1761286103.7490392,-18.586863440920524,-0.3935315709844047,0.7676048975679851,0.051012435546442164,18.983473882944693,11.190487633877792,-25.738681840805214
1761286103.7590036,-19.011549942384228,-0.40229357185667236,0.7351574252365102,0.03627475591348666,18.579413170754396,13.440891054764931,-24.797805377149494
1761286103.7689998,-19.436363838789237,-0.4111688960164244,0.7015456270984249,0.016626988629479575,18.274409920150173,15.478458059975512,-23.574604861731203
1761286103.779075,-19.855696657529784,-0.4215774840970757,0.6696291672655864,-0.007515203577549626,18.219199896963456,17.145165708335686,-21.941234194084082
1761286103.7890205,-20.26266575947449,-0.4347160652125643,0.642932736260064,-0.03531129637904108,18.556347700539956,18.266164933071536,-19.787044443229757
1761286103.7990155,-20.649130622718936,-0.4512796056670105,0.6253843022864968,-0.06546227924314804,19.402752896048707,18.662670193646623,-17.03405128562387
1761286103.8089838,-21.00586070806711,-0.471227875708828,0.6209429202284636,-0.09622980254266307,20.834068019155072,18.16829499495225,-13.649735917196331
1761286103.819023,-21.32289518012679,-0.49363063040041016,0.6331422106716732,-0.12552446088610045,22.873064085389164,16.64783425875356,-9.655175470566585
1761286103.8289933,-21.5900859971584,-0.5166100302251501,0.6645935863594443,-0.15106874992886818,25.483347535484842,14.017038455943736,-5.1271240120954324
1761286103.8389888,-21.797761322968462,-0.5373897578665507,0.7165072488154062,-0.17062798886119854,28.568960635959733,10.261363798805181,-0.19342509796807164
1761286103.8489826,-21.93740609371891,-0.552458540816634,0.788297562316235,-0.1822858665132189,31.979550618993134,5.451131943708873,4.978084730837222
1761286103.8590255,-22.002245125019577,-0.5578562209534065,0.8773417328708938,-0.1847257945546657,35.52019201929627,-0.24971805087244855,10.196226756714337
1761286103.869001,-21.98763655921002,-0.5495859823728387,0.9789548630591317,-0.17747455297215353,38.96471686778823,-6.583795769450816,15.266902659243403
1761286103.879178,-21.891232258252106,-0.5241400188549596,1.0866293076966762,-0.16107100234717495,42.071555839532344,-13.210912992899905,20.014750625739886
1761286103.8890123,-21.71291765981353,-0.4790946255493621,1.19256087673748,-0.13713342480897925,44.6014681756255,-19.729304411644613,24.303037311757993
1761286103.8990328,-21.454586664814038,-0.4136911169831171,1.288445360732043,-0.10831110112648293,46.33684382066737,-25.70569446804416,28.048810690836444
1761286103.9089973,-21.119828040883057,-0.32928755294798717,1.3664726116310077,-0.07811714465458201,47.102152512517975,-30.71083252520907,31.23085454678344
1761286103.9189951,-20.713599899753778,-0.22956011689275102,1.4203772278793405,-0.050644267622418825,46.78435924874643,-34.35621594349755,33.88888370432269
1761286103.9289987,-20.241952911282393,-0.1203621182518601,1.446346634162482,-0.030160962137223885,45.35082038144436,-36.32793580897293,36.113611173318944
1761286103.938997,-19.71183582885079,-0.009213014072734978,1.4435750511158,-0.02058963225078586,42.86088782278229,-36.41457495207799,38.02876552114914
1761286103.949022,-19.13098347831205,0.09552521123314431,1.4143141454909882,-0.024906683709096454,39.4670675802864,-34.52705337202324,39.767743186138944
1761286103.9589849,-18.507853737589468,0.18565143214915045,1.3633986500768849,-0.044572973129953175,35.402800604294875,-30.70882881024992,41.44903093911337
1761286103.969028,-17.851555897936056,0.2541369039505312,1.2973660918867989,-0.07915188635836254,30.95673686330561,-25.13526762241199,43.15524785559487
1761286103.9789913,-17.171711057417895,0.2959772750391812,1.223384786872965,-0.12625200036393622,26.436914681790547,-18.10185850128346,44.92006664447291
1761286103.9889836,-16.478212754148416,0.3087545329854361,1.1482243926325988,-0.18184155810383992,22.13126088738248,-10.002298287793518,46.72530351090827
1761286103.999011,-15.780901904490099,0.2928380398406714,1.0774554491718762,-0.2408684842261015,18.27216118072423,-1.2988104017112694,48.50774593303183
1761286104.0090039,-15.089209040520366,0.25122292082104936,1.0149772303282156,-0.29803487507477383,15.011994905196124,7.512235345120023,50.172866177388656
1761286104.019032,-14.411830267700857,0.18906273418754066,0.9628829397008318,-0.3485479026048092,12.413772797553653,15.936421973804098,51.611331203199825
1761286104.0289776,-13.756492430664395,0.11298674017357399,0.9216061131626768,-0.38869881644854165,10.457296339787192,23.51668449180754,52.71447610563068
1761286104.0389893,-13.129839309170624,0.030301115965574308,0.8902610335089863,-0.41618709554109445,9.057728887874926,29.86607930869404,53.38633495473914
1761286104.0490174,-12.537442037918153,-0.05182978119606012,0.8670853165789102,-0.4301810132471672,8.091093797112231,34.696018619637066,53.55167259048486
1761286104.0590885,-11.983905186145567,-0.1271299279683467,0.8499028221724878,-0.4311657457904193,7.420535811184067,37.83764162836793,53.16092263687419
1761286104.0690396,-11.473007522047697,-0.19079689393070073,0.8365427265212633,-0.42066131742345003,6.9182126621355735,39.25356511993371,52.193519387181276
1761286104.079054,-11.00779188592186,-0.23984937488838176,0.8251729110231448,-0.4008932643089222,6.479879559202845,39.03740339382683,50.660815312684264
1761286104.0890536,-10.590515201918889,-0.27319346963062885,0.8145284769469192,-0.37447804643110827,6.031678203332827,37.39956303346614,48.60894804355398
1761286104.0991094,-10.222398306434116,-0.29141579996896966,0.8040329780054496,-0.34415640320946506,5.5304962213391216,34.63989369100473,46.12107441137355
1761286104.1090286,-9.903175698403263,-0.29636631417050446,0.7938172319452568,-0.31258246725220556,4.960121561570512,31.11032227299271,43.31764189337176
1761286104.119002,-9.630523189120352,-0.29063217001551944,0.7846406308953696,-0.2821608433576926,4.325377109335857,27.172778132480552,40.35303021785937
1761286104.1290078,-9.399512853400656,-0.2770146045783704,0.7777195213627599,-0.2549189960139853,3.645855333038162,23.15876355389394,37.40710684842024
1761286104.1389966,-9.20228437901177,-0.2581031813349929,0.7744731889560788,-0.23240566494990797,2.950171126451706,19.33655056081949,34.67106785467574
1761286104.149022,-9.028109780635024,-0.23600491293539322,0.7762134296607246,-0.21561412694501522,2.271074915285517,15.89045478927643,32.32834858176757
1761286104.1589904,-8.863954957036087,-0.2122416625747975,0.7838272666826304,-0.20493860541858264,1.6414239022910433,12.914499265250093,30.53317667448731
1761286104.168994,-8.695518205142646,-0.18779097857443708,0.7975244759495195,-0.20017900629740173,1.0908848557572,10.420501697438695,29.390904381955956
1761286104.1789882,-8.50859550037109,-0.16322390285869187,0.8167212400168743,-0.20060798552965653,0.6432516159877026,8.358373289169664,28.944571239543112
1761286104.188986,-8.29054394048292,-0.13889082494869137,0.8400929730492875,-0.2051021137835684,0.31431437008775137,6.6443189950435135,29.170561936234563
1761286104.1990073,-8.031617152353398,-0.11511456552136319,0.865770133120722,-0.21232082027875146,0.11029353431677635,5.191135816202058,29.983501397190448
1761286104.20902,-7.7260040270880825,-0.09235665515187769,0.8916101270536279,-0.22090319155405272,0.02696236951177701,3.934547758056245,31.248337901042625
1761286104.2190032,-7.372466694329467,-0.07132475019210785,0.9154755795481809,-0.22964893581579135,0.0496782319670799,2.8506659221930164,32.796782112698146
1761286104.229005,-6.974519568847257,-0.052992581559894586,0.9354705756174486,-0.23765409375189223,0.15451886262184245,1.9617834441079436,34.44549018634894
1761286104.2389915,-6.540122942085151,-0.0385156304474213,0.9501113368383639,-0.24438152066643168,0.3105390892574967,1.3301931485096157,36.01389779756562
1761286104.2490072,-6.080896825368422,-0.02904656699233915,0.9584270471982477,-0.2496595276690712,0.4829044298244264,1.0420551622347798,37.34011246814157
1761286104.2589893,-5.610903624604972,-0.02547955847469687,0.9599991266088802,-0.25361736325293893,0.6364551131367711,1.185144266881174,38.29371365450145
1761286104.269022,-5.14510205178795,-0.028174605070162336,0.9549537968900252,-0.256579554301154,0.7391984200313851,1.8252618536612355,38.784710167361354
1761286104.2791905,-4.697630476381509,-0.03672495851723352,0.9439244127596735,-0.2589484458345478,0.7653163167851521,2.9860692399049276,38.76827814869891
1761286104.2890089,-4.280121522448127,-0.04982809889116152,0.927998149042012,-0.2611037279807596,0.6974326501367235,4.636170019277391,38.245260275231395
1761286104.299296,-3.900267976582496,-0.06530399635819627,0.9086571550299504,-0.26334032368120674,0.5280242919074999,6.685702481207397,37.2587464745959
1761286104.3090203,-3.560845434719294,-0.08027762518142573,0.8877176065032333,-0.2658542822481755,0.25994030509289445,8.992872671758581,35.8873563781769
1761286104.3190186,-3.259348716813446,-0.09151173965036849,0.8672621811445757,-0.2687731946181942,-0.0939804778177331,11.379142015214692,34.236068592510684
1761286104.329057,-2.9883218974493464,-0.0958465973822457,0.8495545672447099,-0.27221614217036794,-0.5121960495247125,13.650458653055393,32.425559791420326
1761286104.339696,-2.7363657476510577,-0.09068061858365213,0.8369215489217037,-0.2763608524675661,-0.9666370602223162,15.621140769010456,30.58100854667964
1761286104.3496108,-2.4897053432757974,-0.07441370011407526,0.8315913438594803,-0.28149367006859105,-1.4257183510137352,17.136825278210768,28.82119227921886
1761286104.3593009,-2.234110658410772,-0.04677544188774919,0.8354870053750744,-0.2880208254203463,-1.8580691002834364,18.093225233556982,27.248510746815292
1761286104.3698654,-1.9569001058605862,-0.00897454346356826,0.8499893604187289,-0.2964264279880931,-2.236759313873258,18.448168836542752,25.940382840677056
1761286104.3793058,-1.6487351871297062,0.036367859529177995,0.8757011220243209,-0.3071729769420835,-2.5436312332535174,18.225398151667868,24.942348377650063
1761286104.3890264,-1.3049433143121445,0.08550177334696137,0.9122566209666387,-0.32055354170743405,-2.77312405637374,17.509778650691477,24.263181298339205
1761286104.3990266,-0.9261861249142039,0.13400934995408773,0.9582242835898006,-0.3365200041614784,-2.9347946900012998,16.4347855537518,23.872348299235277
1761286104.409006,-0.5184091120747261,0.1773689481521172,1.011138454318985,-0.35452581546838663,-3.0537248766095675,15.164224602239152,23.70016222614632
1761286104.419022,-0.09213865628712695,0.21152749481699412,1.067674916195479,-0.37342906968385153,-3.1682790553028823,13.870930486215215,23.640939675127974
1761286104.4291334,0.33869834142857674,0.23338556021719659,1.1239568066544003,-0.3914961557448328,-3.3252434261059807,12.71551974413171,23.559368191592647
1761286104.4390042,0.7581977911918824,0.2411200331787758,1.1759529743206891,-0.40652569668409455,-3.573098059199555,11.82809967359147,23.30010579769943
1761286104.4490442,1.14991405080676,0.23430822785418826,1.2199144057422813,-0.41608273756107694,-3.9548026958650846,11.295202865103757,22.700329954451764
1761286104.459052,1.4981342563962197,0.21386271617276773,1.2527859512239587,-0.41780574660703773,-4.501761290396473,11.153284797285869,21.604485812073136
1761286104.4690075,1.788899118393102,0.18182058567908638,1.272529523433043,-0.4097337515842875,-5.230447633991473,11.389108594597372,19.879893487711456
1761286104.4790637,2.010750356857945,0.1410442495752152,1.2783050831630627,-0.3906001221393336,-6.142582429403461,11.94643253408321,17.43131891214968
1761286104.4890323,2.155227106141487,0.09488733703918645,1.2704813195296918,-0.3600485087490606,-7.2289210938877835,12.737687470359326,14.212327173754598
1761286104.4990191,2.21714306877143,0.04686804699615367,1.2504852004248512,-0.3187392454295451,-8.475829198890464,13.658784346705087,10.231420769611054
1761286104.508999,2.1946645105525167,0.0003792180056100973,1.2205354974115976,-0.26832888824622,-9.873068483924511,14.604855290612461,5.551679515650684
1761286104.5190072,2.0891929705551404,-0.04154896432898856,1.183325780910139,-0.21132308589277146,-11.420775331323302,15.484683819510877,0.28375539318024956
1761286104.5290217,1.9050501549527226,-0.0764290677904967,1.141721001934162,-0.15082399837436575,-13.133642658950356,16.23186713943509,-5.426630888802948
1761286104.5390675,1.6489725559712363,-0.10244171375430715,1.0985127335132767,-0.09021318677334847,-15.040861631733815,16.811327472723463,-11.414468391304931
1761286104.5490408,1.3294464559283523,-0.11851084503922796,1.0562513894370216,-0.032821678366189384,-17.18131799323265,17.220529449885365,-17.511768690861672
1761286104.5590522,0.955940250114208,-0.12433311614749641,1.017149154675824,0.018364028105338596,-19.5946183120103,17.485540758913647,-23.561839075859446
1761286104.569077,0.5381110464748354,-0.12036326657204578,0.9830315849153815,0.06092654113391714,-22.309485829972903,17.65280580604159,-29.429663159727273
1761286104.579,0.08507060254692639,-0.10775516040169333,0.9553116787356208,0.09316007991434903,-25.33172869642437,17.778127389244087,-35.00755072542236
1761286104.5890675,-0.39521121903461653,-0.0882589313865735,0.9349667399357353,0.11413627174289136,-28.63422311642763,17.914783108879476,-40.21626109738045
1761286104.5991936,-0.8963095855800653,-0.06407925284175389,0.9225110273124,0.12370853116309659,-32.15109234056687,18.102810049532362,-45.00263135723429
1761286104.6090114,-1.4135315712508194,-0.03770502074247853,0.9179698188247617,0.12247136133678684,-35.7775115181851,18.36117006514412,-49.335163092544526
1761286104.6190178,-1.943897940155804,-0.011722632427998085,0.9208684145454418,0.11168549341200255,-39.37549283076005,18.683789115149782,-53.198992981378304
1761286104.6292245,-2.4859560560594023,0.011376534602203255,0.9302512112224984,0.0931718154268746,-42.78488699986541,19.03954875446761,-56.59132128040761
1761286104.639051,-3.0394719881762438,0.029384995505401426,0.9447415841915654,0.06917138747227125,-45.83794458495828,19.37550340281063,-59.51790000662905
1761286104.6490269,-3.6050511653827013,0.04055300879707675,0.9626440706786307,0.04216985954666439,-48.375270991114654,19.622180668838148,-61.99075754249638
1761286104.659065,-4.183733242924773,0.04373305452640722,0.9820793914448207,0.014693084664959968,-50.26091070374638,19.699901106776867,-64.02705271615841
1761286104.6690347,-4.7766018622448,0.03848044257737265,1.0011351130705874,-0.010907634603518125,-51.39453107769501,19.525504109148706,-65.64881392935204
1761286104.6791859,-5.3844441061419905,0.025099076294728923,1.0180135896292621,-0.032653578608355695,-51.71914311861228,19.019399535885395,-66.88326961060197
1761286104.6890395,-6.0074870881778555,0.004625793315782529,1.031163111362586,-0.049091213954560196,-51.22345761769427,18.113185027044484,-67.76345723603544
1761286104.6990328,-6.645230681576415,-0.021250612694260224,1.0393837417168428,-0.05937732007964696,-49.93881909332454,16.758008425064197,-68.32877952175585
1761286104.7090337,-7.2963866145545655,-0.050337619019417065,1.0419027444624618,-0.06328788488856232,-47.93159668481856,14.933409555114931,-68.62515530733765
1761286104.7190483,-7.9589247384332715,-0.08015125652438217,1.0384154474905334,-0.06115690934105308,-45.29273111692145,12.655691310299842,-68.70441810450772
1761286104.729018,-8.63021645280739,-0.10817820091621494,1.0290879736787588,-0.053762400631853856,-42.12657913725323,9.984214455273092,-68.62269174404487
1761286104.7390242,-9.307253418501652,-0.1321583805510639,1.0145207180125695,-0.04218240298645104,-38.54108929384649,7.023695013880795,-68.43763538582279
1761286104.749014,-9.986908769635178,-0.15034666936680957,0.9956759679750591,-0.027644686623319113,-34.640725585888674,3.920820219486565,-68.20466123954843
1761286104.7591555,-10.666200791989517,-0.1617106720785695,0.973777844317147,-0.011390435352513606,-30.522664761086855,0.8542970505507346,-67.97242281909617
1761286104.7691278,-11.342517850656847,-0.16603303123057667,0.9501958219854773,0.005434140009682177,-26.275928108038492,-1.981371642021353,-67.77800614196916
1761286104.7790253,-12.013769366761231,-0.16390637861267393,0.9263238133212723,0.021851991804392176,-21.982505572507428,-4.3968014036477685,-67.64233001702756
1761286104.7890291,-12.67844034467329,-0.1566295056039132,0.903465815690555,0.03709570654894783,-17.719292354954728,-6.230664332525061,-67.56630143823611
1761286104.7990332,-13.335544161677719,-0.1460289584038206,0.882737522733545,0.05061912952427217,-13.559753552376645,-7.3713660419743805,-67.5283040565837
1761286104.8090303,-13.984486611816548,-0.13423832569679506,0.8649915328869116,0.062086786178143435,-9.574548931946588,-7.774146015329941,-67.4836147374862
1761286104.8190362,-14.624869765561845,-0.12346741152965626,0.8507715251924377,0.07134771112069803,-5.830750953899358,-7.470813460478053,-67.36629267971718
1761286104.8290286,-15.25627401239673,-0.11578687685198023,0.8402975855824506,0.07839963980257929,-2.3896569656682622,-6.570303458279092,-67.09390096076933
1761286104.839039,-15.878059037633134,-0.11294430890077535,0.8334808919061059,0.08334899556128356,0.6965203656928374,-5.2494954988293525,-66.57507486635103
1761286104.8490343,-16.48921942062426,-0.11621913208722462,0.8299620380468766,0.08637179692686381,3.3885928030331587,-3.735071750117477,-65.71948073913593
1761286104.859048,-17.088319452928772,-0.12631899521694606,0.8291642616623222,0.08768004841784842,5.66433762965004,-2.278391329383076,-64.449195750314
1761286104.8690357,-17.673517001792234,-0.14331929512344688,0.8303510029617527,0.08749678631776937,7.521772987465413,-1.126254461757519,-62.710091744762934
1761286104.8790464,-18.242670422829548,-0.16664828909932022,0.8326772172663247,0.08604068957451269,8.981187614863217,-0.4909461477531569,-60.481542614779265
1761286104.889036,-18.793508100981924,-0.19512061430011535,0.8352273957680975,0.08351874956557763,10.085537770780329,-0.5230808312558289,-57.78277968425383
1761286104.8991995,-19.32382911574118,-0.22702107104583322,0.8370407615096204,0.080123832296065,10.899056706412424,-1.2905466227950744,-54.674500724515376
1761286104.9090722,-19.831697181148744,-0.2602383807703058,0.837132540071533,0.07603334667369882,11.504123415341198,-2.766295341778011,-51.25483779390479
1761286104.919153,-20.31558939779492,-0.29244544968128644,0.8345248423946328,0.0714050924737662,11.996573066122892,-4.826875863889003,-47.649446778328944
1761286104.9290526,-20.774466910566872,-0.32131809680315454,0.8282991209159669,0.06636625367927233,12.479725360208112,-7.262513065283547,-43.996264265494446
1761286104.9390714,-21.20774557536822,-0.34477768716834556,0.8176759537610438,0.060992457360240254,13.057520202804273,-9.798252603122615,-40.4263522117291
1761286104.9490643,-21.615159141604174,-0.3612352094994801,0.8021210169823411,0.0552777395490909,13.827315526760474,-12.124312109074213,-37.04313526859076
1761286104.959559,-21.99652273521099,-0.36980767588955116,0.7814713506659836,0.04910290179657021,14.873070284716677,-13.932458374253578,-33.903060532635905
1761286104.9694993,-22.351419175054613,-0.3704757324128592,0.7560727098805311,0.04221546974560197,16.259696970755275,-14.954176924959615,-31.001052549972005
1761286104.9791098,-22.678845392361165,-0.36415594116517275,0.7269140546424692,0.03423569199319404,18.02924000998223,-14.995823901450311,-28.26392216351481
1761286104.98908,-22.976871537455374,-0.3526712611332494,0.695737828512143,0.024699740116207358,20.199217660988843,-13.966031874746287,-25.55405022766457
1761286104.9990838,-23.242378370445117,-0.3386150457406409,0.6650965605369374,0.013145440362283713,22.763010857996203,-11.891493910119303,-22.684257938381116
1761286105.00904,-23.47094207463049,-0.3251129950362124,0.6383209801332019,-0.0007622202799656079,25.691677095980886,-8.918819650358065,-19.442975019036872
1761286105.0190492,-23.656922242837403,-0.315492121515123,0.6193654758745244,-0.01708002601067375,28.936149746354722,-5.30216726907035,-15.626917634692441
1761286105.0290618,-23.793776487758475,-0.3128690414932129,0.6125060227412533,-0.035438480087030606,32.428660475792526,-1.3783632904019656,-11.076827270128478
1761286105.0391152,-23.87458039121786,-0.3196788004108577,0.6218853822635823,-0.054938951264921515,36.082585219028964,2.4672402274598397,-5.710724430303201
1761286105.0490415,-23.892686840446295,-0.3371849570256749,0.6509298782029966,-0.0741440835741745,39.79075364068199,5.8401326008475,0.4511329399082473
1761286105.0592203,-23.842426522719588,-0.3650386669195596,0.701697942609049,-0.09119911538170496,43.42326861580763,8.377084486861934,7.274672292840317
1761286105.069022,-23.719738856182122,-0.4009784617664912,0.7742572830240287,-0.10409063872576416,46.82661390256225,9.783769301135901,14.517197899701804
1761286105.0791237,-23.522632082946515,-0.44077102609918706,0.866216364821469,-0.11100519880139435,49.826010956900234,9.86605845777222,21.85023998419795
1761286105.0891032,-23.25140085448604,-0.4784766537709433,0.9725447952569335,-0.11071333974515289,52.23262219545681,8.55196009759452,28.897972412717873
1761286105.0996473,-22.908573769655366,-0.5070767721555555,1.0857948408980909,-0.10289520437714002,53.8564335137774,5.901886523710834,35.286132192974605
1761286105.1094112,-22.49861312553023,-0.5194299116265924,1.1967788585680224,-0.08834391717536133,54.52460721543462,2.1060419577873546,40.69397894862542
1761286105.1190476,-22.027434675468083,-0.5094405949400939,1.2956698346900222,-0.0690147673774938,54.10384297051225,-2.5308561780511396,44.90055309784268
1761286105.1290689,-21.501846944532392,-0.47324884766005143,1.3733856736637198,-0.04791026932970877,52.52392183413709,-7.615960980714079,47.81673690774496
1761286105.139537,-20.929019424446167,-0.4101928033481864,1.4230114445271018,-0.028797855741692847,49.798373648285796,-12.703379565563852,49.496622422190384
1761286105.1490583,-20.31607223463794,-0.32328804555244106,1.4409426607427418,-0.01576124895653397,46.03746852173627,-17.33523363190485,50.12531759280514
1761286105.1590521,-19.669838918733177,-0.21903774198766204,1.4274472495774921,-0.012608022011293235,41.44893669428249,-21.085625097352164,49.984970622542306
1761286105.1690516,-18.996800166054406,-0.10654878816563994,1.386476873511615,-0.022204446189944157,36.32337105992643,-23.603418181896302,49.40545369021494
1761286105.179039,-18.303138777479834,0.0038654426499664892,1.324776768610161,-0.045869953954915596,31.00421183202411,-24.648292388247683,48.70958928823656
1761286105.1891778,-17.594845744397006,0.10225996143797482,1.2505503044871202,-0.08299829295956664,25.84598764686914,-24.113970063859934,48.16390001178855
1761286105.1991649,-16.877821885148848,0.18044686397582435,1.172036801506836,-0.1310432086956009,21.168006839463352,-22.034203285650985,47.944120488143895
1761286105.2091517,-16.15795389873456,0.23293556881725397,1.0963306495557206,-0.18590953369684687,17.212702509999747,-18.570888149776184,48.12062376228162
1761286105.219189,-15.441168838634953,0.25732678963337347,1.0286432992676138,-0.24266292059746133,14.117388166471944,-13.98789062821381,48.66380884384418
1761286105.2291005,-14.733470709353996,0.254209255793801,0.9720528863768017,-0.2963706881635218,11.905170810342465,-8.616877083925687,49.464984211064234
1761286105.239039,-14.040947570197035,0.22669120520939282,0.9276600312678134,-0.34285757888960533,10.496099198078449,-2.8217124145047903,50.36567213538447
1761286105.24907,-13.369727587998403,0.1797173798542529,0.895005297163804,-0.3792099706518659,9.734772297184366,3.0337605953299938,51.188074472670344
1761286105.259071,-12.725866796308226,0.11930246249503254,0.8725998132882337,-0.4039588722202969,9.427028647663128,8.612254643722933,51.7612437253258
1761286105.2690516,-12.11516548941836,0.051781016882592394,0.8584497221064346,-0.41697259371290574,9.376964277726248,13.623567336689037,51.94020416056715
1761286105.2790565,-11.542925144513527,-0.01685199687841083,0.8504936456296619,-0.41916031824437894,9.416654094368493,17.839611567903773,51.617741904459216
1761286105.2890744,-11.013665640936372,-0.08145442670084195,0.8469100502590898,-0.41210956338829874,9.42400168435887,21.104247603137665,50.73015282949874
1761286105.29907,-10.530821375348493,-0.13806608735562936,0.8462861465502398,-0.3977555128390765,9.32789725975546,23.337635215949415,49.25878627810359
1761286105.3091373,-10.096431132952203,-0.18404211514304772,0.8476682206678275,-0.37813091261902,9.103009803058367,24.53454003522242,47.22901580904562
1761286105.3190515,-9.710839516090733,-0.2180116717311799,0.8505285409262561,-0.3552005362647587,8.758231949518409,24.756378755693188,44.70768089113745
1761286105.3294644,-9.372439867315466,-0.23971074302277182,0.8546837507557941,-0.33076049146212916,8.322925693956547,24.117673257831104,41.799381223205465
1761286105.3392758,-9.07750281981301,-0.24974781124934073,0.860190007110082,-0.3063786516681388,7.834182316316789,22.76861064948536,38.64146554730031
1761286105.3490338,-8.820139599636427,-0.24935225984576065,0.8672306818825394,-0.2833584052654059,7.327008454035245,20.876141094219587,35.3972643821519
1761286105.3590496,-8.59243745673227,-0.24013680702487997,0.8760079997036206,-0.262715448631015,6.828183792670079,18.606239029075617,32.24714469778615
1761286105.369057,-8.38477771265702,-0.22388879360699462,0.8866484255830411,-0.24516344670598694,6.353683462567552,16.10960945335508,29.37731021384326
1761286105.3790827,-8.186316237954927,-0.2023977545286532,0.8991293016300125,-0.2311093657699157,5.909000019991944,13.51240253783251,26.966812978009767
1761286105.389048,-7.985586052888686,-0.1773277987394376,0.9132308022263889,-0.22066342818391757,5.491387077060523,10.91260676301927,25.173775548123604
1761286105.3990438,-7.771178159773491,-0.15014569328484517,0.9285144860124462,-0.21367045802835521,5.092964718329234,8.381888454315117,24.122168643821674
1761286105.4090555,-7.532462950794604,-0.12211127966592393,0.9443280507617361,-0.20976714802063545,4.703761121136816,5.971838544733186,23.890560307970528
1761286105.4190435,-7.2603190864093206,-0.09432454230567011,0.959834292498748,-0.208463671524241,4.3140608579220165,3.7229423908558705,24.50405067337426
1761286105.4290495,-6.947833100845534,-0.0678087343889669,0.9740602260518143,-0.20923987533544883,3.915794637168959,1.6741825653871114,25.93020784941871
1761286105.4390578,-6.59092201319641,-0.04359810683862611,0.9859605877718389,-0.21163855808686124,3.5030323196160054,-0.12889448535661466,28.07935285212592
1761286105.4490607,-6.188818382553035,-0.02279592102956117,0.9944894997673638,-0.21533465713436828,3.071850291075745,-1.6295209989185104,30.80912153128328
1761286105.459042,-5.744349324404349,-0.006574315808593246,0.9986754043240943,-0.22016270634560262,2.6199100673991214,-2.7596878752018905,33.9329161013143
1761286105.469062,-5.263943566072993,0.0038993612672180516,0.9976972541513464,-0.22609533832683562,2.146040800921298,-3.445096943512621,37.23164185977349
1761286105.4790447,-4.757316788561593,0.007607842426406101,0.9909631091448017,-0.23317886914667074,1.6500271590300608,-3.6144412294959274,40.4679668735248
1761286105.4890616,-4.2368153682872,0.00388084469605704,0.9781935279004104,-0.24144342215102832,1.132713025418524,-3.211504325275427,43.40221986434759
1761286105.499114,-3.7164388342828047,-0.007391491729022627,0.9595095400052844,-0.25081146767826545,0.5964475088460743,-2.207995866390221,45.808956515544686
1761286105.5090923,-3.210606093333202,-0.02557266319556735,0.9355185598434982,-0.2610290568324133,0.04580526692635826,-0.6148318452993176,47.49317023065279
1761286105.5190792,-2.732773673788608,-0.04916684704261002,0.90738376555712,-0.2716393949080132,-0.511598961652131,1.5103054878243087,48.3050806334046
1761286105.529107,-2.294050599966333,-0.07581845929733375,0.8768568353146502,-0.2820105649225821,-1.064485293174768,4.060891307521963,48.15240200558888
1761286105.5390465,-1.9019787815769367,-0.10245065075294398,0.8462533062955611,-0.2914192818120076,-1.5977986383339018,6.8860730646918595,47.00899631797469
1761286105.5490618,-1.55965380578723,-0.125548960475637,0.8183546460799942,-0.2991807109455614,-2.0933778033007586,9.80198810088657,44.918883184777634
1761286105.5590665,-1.2653417114509014,-0.14156974601420755,0.7962296163876533,-0.30480130248385956,-2.5315152282198796,12.609020713915793,41.9947605903367
1761286105.5690567,-1.01269674547585,-0.14742313396276813,0.7829776615700145,-0.3081200683512247,-2.8933374838648906,15.113013686102946,38.410545687822896
1761286105.5790632,-0.7916028044635789,-0.14095408505207718,0.7814086809165576,-0.3093985578680574,-3.163788508396619,17.14748246154721,34.38800923681945
1761286105.5890374,-0.5895568429935965,-0.12133200629070541,0.7936873931676438,-0.30932516485485057,-3.3348962091649446,18.593329316368077,30.178308520569004
1761286105.5990627,-0.3934051717321074,-0.08926536986781868,0.8209849973164386,-0.3089156460340766,-3.4089171220474013,19.39267874868666,26.03997785430365
1761286105.6091523,-0.19115741989662155,-0.04698324771034929,0.8631913149268817,-0.3093148404945799,-3.4008536837551397,19.554372010406873,22.215522974087403
1761286105.619056,0.02643538670855812,0.0020322334306674583,0.9187426411955649,-0.3115293553720121,-3.3397460160210644,19.150222344991025,18.90904586636655
1761286105.6290724,0.2648175184417709,0.0535247701481397,0.9846121842244112,-0.31614345165193997,-3.268144741639541,18.302958188796218,16.267245441680444
1761286105.639071,0.5252430944082432,0.10306341205608148,1.0564907936034873,-0.32308569409950194,-3.2393840800829197,17.16840005895738,14.365727403666224
1761286105.6490922,0.8050618954656739,0.1466395899453202,1.1291572922883852,-0.3315140214144705,-3.31272342155167,15.915412839617703,13.201939818779783
1761286105.659122,1.0985059532523824,0.18114202482298608,1.1970057319360683,-0.33986468637923556,-3.5469863006642193,14.707268669292638,12.69539387184388
1761286105.6691358,1.3977106248867681,0.20462998629496332,1.2546681857241662,-0.34606857800107893,-3.9937751717932533,13.68720574012009,12.69521848837113
1761286105.6790845,1.693706110627838,0.21638619980738966,1.29764966626093,-0.34789129937952323,-4.6914983672760435,12.969472843655662,12.994507196169955
1761286105.689081,1.9771992184794018,0.21678725032543072,1.3228780504652453,-0.34331963778470864,-5.661275357676297,12.635575757001178,13.350283738499162
1761286105.7005024,2.2390825031668613,0.2070606766138429,1.3290723606121486,-0.33090880933106814,-6.905381786717905,12.734348328134773,13.507233841894239
1761286105.7093556,2.4707091600052746,0.18899953374342895,1.3168561348922445,-0.31002243928485923,-8.408397348875079,13.284120848434886,13.222727970387798
1761286105.7190666,2.6640291107306315,0.1646882032646141,1.2885904638379875,-0.2809305355375762,-10.140742776937152,14.2755412640223,12.290290586362858
1761286105.72905,2.8116908130771403,0.1362719928749358,1.2479614730032957,-0.24476519621617776,-12.063902023071977,15.674200758335912,10.558743295899696
1761286105.739056,2.9071848750949583,0.10578481387255283,1.1994094879193489,-0.20335889730996387,-14.136350639452571,17.422829800715114,7.944822581614251
1761286105.749067,2.9450554354152945,0.0750346230326853,1.1475149601662478,-0.15900396895257632,-16.319077064830346,19.443312500710782,4.438047964409452
1761286105.7591093,2.921152700096098,0.045535836687343,1.0964528313686714,-0.11417745470523699,-18.579634312734765,21.639062254787923,0.09778513899485848
1761286105.7691245,2.8328650645042273,0.018474164303964615,1.049596670951851,-0.07127495830517014,-20.893933767544123,23.89837347263278,-4.956441187327839
1761286105.7791069,2.6792644228899567,-0.005307209146847035,1.0093087843961324,-0.03238981471551542,-23.245462376555356,26.099189035858057,-10.559501218977031
1761286105.7890716,2.4611210701355932,-0.02530481144064565,0.9769076376963227,0.0008398967210299127,-25.622151657085826,28.115342169359103,-16.517777351761385
1761286105.799081,2.1807804430741204,-0.04133614569489919,0.9527720914928156,0.02731105290502211,-28.01160289738587,29.823878004697665,-22.626560450117104
1761286105.8095834,1.8419267613291828,-0.0535054008375787,0.9365289774154688,0.0464711690032238,-30.39567163197929,31.11271103575162,-28.68584454824531
1761286105.8198159,1.4492784770420202,-0.06215575552230949,0.9272743237885196,0.058287207826661455,-32.74549311602033,31.887749908131408,-34.51327515276646
1761286105.8305838,1.0082646168804512,-0.06781266988141726,0.9237918090406835,0.06318486488644987,-35.017905921847394,32.07872468607546,-39.95366796692523
1761286105.8395238,0.52472223764035,-0.07112425657152739,0.9247467918308412,0.06197065936775665,-37.15396790151292,31.643191363736907,-44.8850411104785
1761286105.8497326,0.004639025959992287,-0.07280509563650868,0.9288449541873631,0.055743092147949126,-39.07993527806331,30.56843415067645,-49.22142735898611
1761286105.8590846,-0.5460519312431299,-0.073587969534512,0.9349497733750954,0.045795774362418024,-40.71075027807143,28.87114644706276,-52.912885587839185
1761286105.869056,-1.1216305883331386,-0.07418401588928307,0.9421549894109396,0.03351585569223548,-41.95578556697195,26.594853942297387,-55.94320647315592
1761286105.879072,-1.7167120139834295,-0.07524751416266005,0.9498103070268488,0.02028330573596593,-42.726325812570984,23.805144007408625,-58.32586798529304
1761286105.8890688,-2.326340815590314,-0.0773397673000293,0.9575026403039103,0.00737787187660187,-42.94401771191372,20.58298508487334,-60.09882929061285
1761286105.899079,-2.946061489483363,-0.08088870631314736,0.9650010613568941,-0.004099982705846745,-42.54930026368059,17.016770343006506,-61.318733329868834
1761286105.90908,-3.5719635653049084,-0.08614553560374795,0.9721798141515091,-0.013288977349342724,-41.50868413286175,13.194099758556854,-62.05503058841469
1761286105.919229,-4.200698661993328,-0.09314424090661622,0.9789383363246181,-0.019603586614184126,-39.81975385103728,9.194576950244826,-62.384463521046754
1761286105.9290888,-4.829468226183241,-0.10167240563345557,0.9851378696914939,-0.022745059861494634,-37.51298181826436,5.084934619629799,-62.38626526278802
1761286105.9391212,-5.455984867167473,-0.11126252794056364,0.9905693286821974,-0.02268812783209874,-34.64988910871922,0.9175663115071039,-62.13831553124051
1761286105.9490724,-6.078415544650154,-0.12121253036247909,0.9949575952906605,-0.0196482521980545,-31.317719530432715,-3.2669680074778724,-61.71436062739129
1761286105.9590805,-6.695319825395469,-0.13064215542332133,0.9979969311049578,-0.014036281471940972,-27.621475491601405,-7.433624188502019,-61.18225889884935
1761286105.9691079,-7.305598801470746,-0.13858703940546363,0.9994046168499597,-0.006407377520843098,-23.67468512679363,-11.543755849697849,-60.60307549152011
1761286105.9790857,-7.908467836583571,-0.14412368040858342,0.9989770203118524,0.002590577590481496,-19.590447038692385,-15.545038324594847,-60.03073490821778
1761286105.9891078,-8.50345836000286,-0.14650818008380986,0.9966335155536105,0.012266795912119259,-15.474105952339881,-19.36286600163645,-59.51186346984081
1761286105.999189,-9.090442305123352,-0.14530386662383754,0.9924374320095631,0.021936372792751103,-11.41847625095673,-22.895745548649426,-59.08543784068304
1761286106.0091805,-9.66966139801271,-0.14047171574925468,0.9865881821917378,0.030969972499728732,-7.501998602329199,-26.016668013937295,-58.781918742948086
1761286106.0190806,-10.241736354491362,-0.1324036888015885,0.9793848183676519,0.03884425386101243,-3.789659762653949,-28.58136629305837,-58.62168935595187
1761286106.0290706,-10.807630295571661,-0.12189001561600095,0.9711688497040063,0.04518864324346062,-0.3359612865937903,-30.443005209180093,-58.612806759354655
1761286106.0390718,-11.368546242881648,-0.11002350108925432,0.96226133036476,0.04982073907450937,2.8112224866308804,-31.471497218163805,-58.74827340960744
1761286106.0490983,-11.92574913205559,-0.0980549207285072,0.9529117731781046,0.052762562736098466,5.6072647061945435,-31.574553993575513,-59.003218941859934
1761286106.0591047,-12.480316968041096,-0.08722240694952986,0.9432719954146865,0.054232759590013425,8.009126388972504,-30.71699839856743,-59.332536642679614
1761286106.0690594,-13.0328421586217,-0.07858356079072612,0.933398759461226,0.05461389038690016,9.976200668036995,-28.934897002182577,-59.669620017291535
1761286106.0790746,-13.58312076579953,-0.07288093293924414,0.9232793593388059,0.05439820082470372,11.473754651157488,-26.341714497190424,-59.92685506807332
1761286106.0890858,-14.129881142888275,-0.07046827621139055,0.912867533148064,0.054120018528563525,12.478328524811184,-23.124811393915966,-59.99841585220334
1761286106.099074,-14.670609808253312,-0.07131529423436338,0.902115088761803,0.054287601769172224,12.983895542652714,-19.531997950976958,-59.765694001248455
1761286106.1090837,-15.20152770969789,-0.0750924470387047,0.8909874829449812,0.05532894258194501,13.007375707219914,-15.84925620508724,-59.10540266690693
1761286106.1190767,-15.717752987928437,-0.08131753662429302,0.8794575976465033,0.05756186337750726,12.592270157417676,-12.371912029376618,-57.90005443816653
1761286106.1291335,-16.213658807444396,-0.0895285100006475,0.8674790628523162,0.06118969514986267,11.809635574359794,-9.372372554789543,-56.050122829868606
1761286106.1390765,-16.68340144237445,-0.09943926726443286,0.8549474077988707,0.06631439133023881,10.756153913284722,-7.068048995806169,-53.48678044539986
1761286106.1490877,-17.12156086668086,-0.1110401606436128,0.8416628816464474,0.07295323158060227,9.549503315441779,-5.593269092213962,-50.18373745859992
1761286106.1591053,-17.52380976627408,-0.12461912453353134,0.8273113443210472,0.08104457158264902,8.321531484717674,-4.978783605287941,-46.16648255119121
1761286106.1691146,-17.887512078250328,-0.14069741254593615,0.8114782294477876,0.09043156776275882,7.209892804604095,-5.141817329756081,-41.5172399302858
1761286106.1790895,-18.212152326684976,-0.15989167019663988,0.7937056680039065,0.10081909253191368,6.3488856565509035,-5.888554341835861,-36.37423976583237
1761286106.1891866,-18.49951381877047,-0.18272894686777413,0.7735956770094286,0.11170685344810129,5.860248730403021,-6.929658043038247,-30.92443755275698
1761286106.199094,-18.753556258337273,-0.20945092403903104,0.7509542191621534,0.12230956384906007,5.844653214955477,-7.908091199684357,-25.38956356894431
1761286106.2090862,-18.979987367075726,-0.23984623904118502,0.7259628486606504,0.13148123446390012,6.37456794521737,-8.437209673256282,-20.006293511311842
1761286106.2190797,-19.185571061964634,-0.27314457443209983,0.6993565872404599,0.13766419277682534,7.489077558525763,-8.1458916898947,-15.002335712021408
1761286106.229362,-19.377256586401696,-0.3079940395033692,0.6725783438991075,0.13888453882968088,9.191076038202587,-6.7263954611678765,-10.571188857963557
1761286106.239439,-19.5612396773895,-0.34252732081483594,0.6478725611381945,0.13281553917316108,11.447013673329382,-3.979834486391871,-6.849031003678435
1761286106.2491317,-19.742074583152146,-0.37450698903799456,0.6282767069519761,0.11692922306719736,14.189069407026278,0.14620993918800104,-3.897405754254139
1761286106.2590833,-19.921947296756457,-0.40153043646059994,0.6174725184251698,0.08875211666350435,17.3193391804585,5.533194486840563,-1.694860525363766
1761286106.269079,-20.100201491507605,-0.4212704972751842,0.6194725140046111,0.04622996609581239,20.71545678925832,11.884594646247258,-0.1394442694970958
1761286106.279077,-20.273182663397026,-0.43172498347818117,0.6381420019525942,-0.011814188952222214,24.23700001475128,18.739178515476922,0.9377779798584948
1761286106.2890766,-20.434431745992036,-0.4314427558724387,0.6765903684364343,-0.08517433435327676,27.73202660631233,25.50533405055825,1.7499157555772806
1761286106.2990975,-20.57521488512334,-0.4196856530553024,0.7365024545139873,-0.17179161560345022,31.043151747817095,31.514836030678406,2.5255132603464583
1761286106.3090737,-20.685324877876244,-0.39648207034471805,0.8175138648670103,-0.2674427656868327,34.01288167359579,36.09200769038898,3.4783661428089885
1761286106.319086,-20.754044255141217,-0.3625405060733638,0.9167555104162486,-0.36573572088779943,36.488594313782514,38.63198340455801,4.780799771034291
1761286106.3290856,-20.771134240292877,-0.31902518639558514,1.0286968617208903,-0.45855323713016805,38.32845225189551,38.67988828919246,6.5449039658599375
1761286106.339095,-20.727714354611585,-0.26724388382304537,1.1454003365345649,-0.5370189765591332,39.41010859326914,36.00139114028686,8.814913733916681
1761286106.3490882,-20.616922529305835,-0.20834790789103722,1.2572545903230332,-0.5929214541225557,39.64362141505483,30.6345509665436,11.571771425792042
1761286106.3590846,-20.43429191619773,-0.14318472812646021,1.3541702808549536,-0.620334239482094,38.988125372708595,22.91361051281707,14.748163950160198
1761286106.3690898,-20.17784356952333,-0.07244380630664823,1.4270913529332412,-0.616990467471808,37.4689141139254,13.457724910465387,18.249591501194494
1761286106.379116,-19.84795834110498,0.0028657074502252333,1.4695234642861232,-0.5849391774939399,35.18900949819061,3.1214446836120735,21.97525883229179
1761286106.3891432,-19.447129613198616,0.08077806539027536,1.478683424609231,-0.5302193226676264,32.32875416639694,-7.091144139204812,25.832774750008635
1761286106.3991005,-18.979693147581138,0.1579255304067262,1.4559196707820192,-0.4616477981333792,29.1294011614676,-16.140358331606176,29.74306225436099
1761286106.4093652,-18.451591657123465,0.22959594967436942,1.4062681502764087,-0.3891137568287399,25.861435874551475,-23.077607869358225,33.63568692011693
1761286106.4190986,-17.870187257126087,0.2903472894821754,1.3372979949313026,-0.3218599088616491,22.783536151102915,-27.16414218543494,37.438506707579585
1761286106.42911,-17.244104503502165,0.3349540418165243,1.257613892702352,-0.26713672714709913,20.101580294163274,-27.96069644882234,41.06763223913031
1761286106.439197,-16.58307326649485,0.35934378415699897,1.1754225851049132,-0.22943750091122397,17.937656050390608,-25.37267516319755,44.42322492538521
1761286106.4492457,-15.897739260295245,0.36125129017547264,1.0974612700280704,-0.2103403136294988,16.31647248625114,-19.645669081795177,47.393835495030466
1761286106.4591155,-15.199417188271292,0.34047462962171726,1.0284171628783556,-0.20884336002342496,15.171883922171807,-11.316737535262483,49.868183799212844
1761286106.4691284,-14.499775485719306,0.2987601095223152,0.9708212359829893,-0.22200668208802343,14.371002417890056,-1.1344814749930148,51.75031134613067
1761286106.4794583,-13.810458410426238,0.23942649465350427,0.925308754069788,-0.24570693218964165,13.749195307903346,10.036058418501527,52.97309526926435
1761286106.4891155,-13.142664581676375,0.1668650341433138,0.8911023525243106,-0.27535223139123033,13.147204092203234,21.30871806174863,53.506271417049255
1761286106.499119,-12.506707778368245,0.08603406672089145,0.8665763816767187,-0.3064657854000641,12.44202906488671,31.86036370388788,53.357532851370856
1761286106.5091074,-11.911587266929327,0.002021241426020967,0.8497887360908569,-0.33510797613647186,11.565730479226794,40.99692940587238,52.567775647808205
1761286106.519118,-11.364593627566997,-0.08030518726255073,0.8389031218534587,-0.35815024386696,10.509951683664296,48.19836335938772,51.203207277759645
1761286106.5291393,-10.870972681729514,-0.15656952871420027,0.8324609439705133,-0.37343078137577146,9.317586675605181,53.14233823543679,49.34739441905605
1761286106.5391207,-10.433664371994771,-0.2231083193392611,0.829495269690848,-0.37981570337814646,8.065616027031396,55.708203754632216,47.095555348484126
1761286106.5491235,-10.053126092175994,-0.2771459751870506,0.829508094658604,-0.3771750182105318,6.844244652541959,55.96348527053346,44.55201991756705
1761286106.559123,-9.727244034145098,-0.3169166887850766,0.8323520001826389,-0.3662757818582111,5.7371502291961844,54.135798625811226,41.830372638232866
1761286106.5691035,-9.451335576601338,-0.34171163860924164,0.8380643988485117,-0.34860091897187406,4.806338375697574,50.57372571691819,39.0547724940156
1761286106.5791914,-9.218251697573248,-0.3518345164321231,0.8466974136608871,-0.32611571161338,4.08341396800988,45.70100111337276,36.36049256669968
1761286106.5890937,-9.018596558682422,-0.34846405200330594,0.8581740274147541,-0.30101432024823055,3.567557759689652,39.96901985790848,33.89187270291983
1761286106.5991108,-8.84108462814087,-0.33344147197923174,0.8721881815160276,-0.2754793087153939,3.229426788740383,33.81283416225041,31.796551140953206
1761286106.609087,-8.673049167155217,-0.30901683097577043,0.8881570730226873,-0.2514795336111733,3.019572395585125,27.615240053607625,30.21584357214784
1761286106.619107,-8.501099617350205,-0.27759616305036694,0.9052275595666116,-0.2306218045162216,2.879632642415572,21.682278838896277,29.27219054678527
1761286106.6291132,-8.311903175922575,-0.24152886257125264,0.9223330258887874,-0.21406306915511036,2.7543727580382606,16.231733316227874,29.055428096943135
1761286106.6390908,-8.093043631331335,-0.20296294280385951,0.9382912049576911,-0.2024823035234809,2.602605033234632,11.394321639273182,29.610074713460296
1761286106.6491213,-7.833894885192134,-0.16377937995813113,0.951927547456302,-0.19610399349927882,2.4051921828829865,7.2255836928951584,30.92580363294353
1761286106.6591077,-7.52644087904217,-0.1255996769649035,0.9622036567272536,-0.19475903443199424,2.168781825394692,3.7251544139805417,32.93283197239385
1761286106.6691294,-7.165975165717315,-0.0898449908436731,0.9683278778363298,-0.19796578909357,1.9246003182192801,0.8593923720255181,35.503252946652054
1761286106.6792238,-6.751616464734671,-0.057813003691760845,0.9698278874745195,-0.20501484157173624,1.7224347107646811,-1.4167546884573148,38.45853234902376
1761286106.6891236,-6.28657960617587,-0.030734586994283882,0.9665742167130759,-0.2150453379373195,1.6207076024430054,-3.1422287490311116,41.58260623423164
1761286106.6991155,-5.778148525934114,-0.009779211688493626,0.9587568828804562,-0.22710729173893687,1.6741788513788343,-4.3391827216444145,44.63932044938249
1761286106.7090855,-5.2373140759305805,0.004006360537503572,0.9468297480457591,-0.240210585049933,1.921211837045038,-5.010188991186291,47.39240282095344
1761286106.719094,-4.6780647838960725,0.009823201762515417,0.9314438360392228,-0.2533654147636637,2.3726848650325407,-5.142848291907179,49.62583795445299
1761286106.729128,-4.116350829785577,0.007289478804166547,0.9133893868947227,-0.26561987514132573,3.0045060323634063,-4.720014424901174,51.16249322884009
1761286106.7390857,-3.568778339492222,-0.0033797632585447646,0.893558310842537,-0.2760992540886842,3.755315679970876,-3.733005084175968,51.87911127390895
1761286106.7490988,-3.0511313045765873,-0.021226036754367565,0.8729277403322391,-0.2840498534100668,4.53034667055282,-2.1948586683063196,51.71624764614089
1761286106.7591212,-2.576858712982539,-0.04448115346606522,0.8525560611141159,-0.2888884653911665,5.211556824579072,-0.15090612578285953,50.68229219855585
1761286106.7691274,-2.155697575042682,-0.07062134028733968,0.8335788385550179,-0.2902575801190424,5.673076069924048,2.315430670319093,48.85129743741233
1761286106.7790976,-1.7926181129314864,-0.09656274154114032,0.8171947594726092,-0.28808593010308975,5.799880185163186,5.082767426094708,46.354902329134745
1761286106.7890985,-1.487264610949837,-0.11898962531601141,0.8046387509976093,-0.2826520524122858,5.506726124063414,7.997886343258856,43.369170903536684
1761286106.7991009,-1.2340161864404435,-0.13477163418947674,0.7971453354291811,-0.27464211586921555,4.754068868290208,10.886865380521495,40.0976543685856
1761286106.8091063,-1.022704963843246,-0.14139608235299903,0.7959046929219756,-0.26518238139686257,3.5580251366500764,13.569368097936024,36.75238336557331
1761286106.8191915,-0.8399161811660169,-0.13732767997916678,0.802006906096313,-0.2558170700086161,1.9923229627661523,15.87392289401935,33.53471768693217
1761286106.8291056,-0.6706822147570791,-0.1222194786631803,0.8163637246790271,-0.24840280916140184,0.18137367133501187,17.6522940717976,30.617967711879096
1761286106.8390975,-0.5003057886231752,-0.09693408015909966,0.8395998479841607,-0.24490629283305343,-1.7150199989003574,18.791688890222005,28.13345182561361
1761286106.8491106,-0.31603365786120036,-0.06338109519642565,0.8719178390327903,-0.24711863001586654,-3.523354147342677,19.22413009794824,26.161186802455262
1761286106.8591049,-0.1083520800195691,-0.024217266003719946,0.9129566218879164,-0.2563273301331997,-5.081197179013017,18.93254875502493,24.72576101333956
1761286106.8691072,0.12823429673025283,0.017524073554406303,0.9616764544367565,-0.2730050202644727,-6.260804080570717,17.953051079786658,23.79721088973434
1761286106.8791099,0.394977187851946,0.05880777235201898,1.016307280379767,-0.2965790439819703,-6.9872483139171,16.372745631761024,23.296082361959545
1761286106.889112,0.6891571830979554,0.0969208210868155,1.0743883939309167,-0.3253382900790078,-7.24780775689148,14.322868757356325,23.101492596380147
1761286106.899121,1.0047255448358547,0.12970554992823977,1.1329082767399326,-0.35651337514560955,-7.091354722421134,11.967728509205516,23.061005005912804
1761286106.9091218,1.3331463220602127,0.15568022954922697,1.1885338109477825,-0.3865353853150988,-6.618758301452818,9.49079685214681,23.00144185977359
1761286106.919144,1.664269828536407,0.17404716970663275,1.2379049012270378,-0.41144293512890606,-5.967028977321347,7.079692765183659,22.740202582884944
1761286106.9290957,1.9871069845152496,0.18461109687766394,1.2779620547334138,-0.4273773927556145,-5.290723218366712,4.911710002501538,22.09699442351826
1761286106.9391124,2.2904370490471,0.18764724096767874,1.3062653455748403,-0.43109059043615827,-4.744004909224265,3.1411392778735094,20.9059398736612
1761286106.9491277,2.5632480734073706,0.1837625968356753,1.3212548393556223,-0.4203903398946826,-4.4659749779263045,1.8891766711713371,19.02777022298521
1761286106.9591448,2.795059411130973,0.17378334136547832,1.322404379275502,-0.39446182622007986,-4.570732027733206,1.2368667268860543,16.361355937963392
1761286106.9693673,2.976195733524172,0.15868145658050034,1.3102396108209982,-0.354021026300915,-5.142407380220239,1.2213229155411196,12.853362370340264
1761286106.9791176,3.098070568028068,0.13953407518993355,1.2862224024143627,-0.301276605823055,-6.234382012154086,1.8353250737320868,8.504580573732795
1761286106.9891477,3.153502785141934,0.11749791224784051,1.2525335315380155,-0.23969985293595203,-7.871233037684114,3.0302351432325287,3.3716347293263036
1761286106.9991212,3.1370462111258632,0.0937798084159012,1.2118017470125841,-0.1736288632500573,-10.051777544496037,4.721960437815172,-2.4366571735397295
1761286107.009142,3.0452779567695263,0.06959034861803391,1.1668275951713232,-0.10776058030500685,-12.751861599565977,6.7993998444510995,-8.768102811402098
1761286107.019122,2.8769800984584992,0.04607804351990509,1.1203399759793922,-0.04660548832505084,-15.92612657443852,9.134432144219113,-15.439991606297635
1761286107.029109,2.633166204043093,0.02425266263994842,1.0748087203180738,0.006012459543997499,-19.508649952360457,11.592158713166103,-22.254097992701475
1761286107.0391507,2.316938748300334,0.004912602676181317,1.0323211934979377,0.047337031799157964,-23.412916672076655,14.040008028460768,-29.01170801442744
1761286107.0491152,1.9331989587708156,-0.011409756273778479,0.9945175020738439,0.07589249395432647,-27.531925429029233,16.35460307242532,-35.526880424240964
1761286107.0591316,1.48825422253501,-0.024476950728540996,0.9625708251699033,0.09151184440978703,-31.739331696688723,18.425943407692913,-41.636865010199635
1761286107.0691192,0.9893750512334255,-0.03434975137100034,0.9371987830702014,0.09519820783406725,-35.89237299622335,20.159211379230328,-47.20937516490758
1761286107.0791216,0.44434640171626827,-0.04137079130784444,0.918696083449883,0.08886282160633938,-39.83695079126021,21.47503947200504,-52.14695963813075
1761286107.089123,-0.13895529803480597,-0.04613449296203,0.9069829053791236,0.07499591405877762,-43.4147649672741,22.30915420095929,-56.38891382970895
1761286107.0991201,-0.7529396072270804,-0.049444105701240526,0.9016646287852452,0.056326443124793076,-46.47196617839676,22.611983668712845,-59.91110476170365
1761286107.1091022,-1.3906201245318988,-0.052251243095707625,0.9020973155409928,0.035516371310208746,-48.868514544380275,22.348338488261042,-62.723941607612744
1761286107.119106,-2.0458607787063383,-0.05557246432362282,0.9074522384702238,0.014919743926599125,-50.487310475475184,21.496941013624454,-64.86863632441937
1761286107.1291306,-2.7135384654647026,-0.06038178101462098,0.9167734814916453,-0.0035794331159141385,-51.242136699904805,20.049546823358256,-66.41191779263376
1761286107.1391277,-3.389612492959994,-0.06748526516386515,0.9290254393953224,-0.01865067768592558,-51.08348480925998,18.009649398430696,-67.43948857126156
1761286107.1491208,-4.071097280442046,-0.0773919509006114,0.9431308950778953,-0.029532046781539163,-50.00146522913687,15.391132214139898,-68.04869827401568
1761286107.1592007,-4.755944587732782,-0.09020225820671803,0.9580036083025719,-0.03599182128021312,-48.02528912353586,12.217545988247343,-68.3410628847268
1761286107.169125,-5.442853857939508,-0.10553922210384464,0.9725808282557072,-0.03825232860816196,-45.21930548041404,8.522775027523373,-68.41530605584306
1761286107.1791441,-6.131041259009695,-0.12254610917480087,0.9858605925991156,-0.03688854673040494,-41.67621822662058,4.353616968991363,-68.36152158263036
1761286107.1891186,-6.820005985028777,-0.1399642192950928,0.9969464536836395,-0.03271084375444983,-37.50872058899944,-0.2257435686069449,-68.25689183949858
1761286107.199253,-7.509332670731524,-0.1562877127352663,1.0050989958829026,-0.026640251699595347,-32.84113083980637,-5.128106791062833,-68.16317392016404
1761286107.2092125,-8.19855968659266,-0.1699734015185447,1.00978978341037,-0.019586366446815686,-27.8025311908657,-10.237925911746563,-68.12589276290993
1761286107.2191114,-8.887126435651817,-0.1796694517913898,1.0107498071505134,-0.012339681042816764,-22.52241040044968,-15.408213696273174,-68.17489154194574
1761286107.2291405,-9.57439334182671,-0.18442240448021535,1.0080021424002423,-0.005489317288036836,-17.129046627997884,-20.461708085153262,-68.32566049174005
1761286107.2391825,-10.259711222016486,-0.18382724812638496,1.0018688326169107,0.0006260816658143456,-11.750057989263171,-25.197880658565836,-68.58077564799461
1761286107.2491484,-10.942505652989642,-0.17809744278804798,0.9929456742761706,0.005930078173137372,-6.513924987397632,-29.406431141474727,-68.93086060159457
1761286107.259118,-11.622338326026904,-0.1680463584727539,0.9820442204012468,0.010581794128452766,-1.5510337024114353,-32.886597099947025,-69.3547121460012
1761286107.2691247,-12.29891169423029,-0.1549849480002047,0.9701049513666125,0.014914250232368552,3.0070512057419863,-35.47018069019341,-69.81854886764374
1761286107.2791584,-12.971995043730788,-0.1405511957914965,0.9580875585652142,0.01934730474081907,7.030906567146855,-37.04501086663825,-70.2746865048486
1761286107.2891216,-13.641267730109618,-0.12649534638888776,0.946845237841233,0.024291101153463522,10.399388663695461,-37.57494082259073,-70.66024522983386
1761286107.2991264,-14.306095437021316,-0.11445133687654274,0.9369924229450872,0.030058821990369574,13.00822524433863,-37.112566582796646,-70.89668040427759
1761286107.309288,-14.965273413569681,-0.10572785244982286,0.9287803540950249,0.03680441000072322,14.780195138141057,-35.80160004271212,-70.89094764826092
1761286107.3191872,-15.616782308419001,-0.10115022378477355,0.9220006890059952,0.04449234330084276,15.67565969789885,-33.86712109926938,-70.53894435962702
1761286107.3291352,-16.257605102645936,-0.10097691158685775,0.9159404763410665,0.052897040994117565,15.70199481446525,-31.593628089048515,-69.73152327531352
1761286107.3391705,-16.883647951977707,-0.1049028337756974,0.9094086689435693,0.06162435075549065,14.920409588941418,-29.29270452798905,-68.3629008416869
1761286107.349155,-17.489794683958646,-0.11214744708647012,0.9008445649123475,0.0701482517971528,13.448741240520528,-27.263946933347803,-66.34077960939969
1761286107.3591616,-18.070105606720155,-0.12161050639572282,0.8885053460090387,0.0778592364090972,11.459110729533956,-25.754227437033528,-63.59706874892514
1761286107.3691194,-18.618148603486283,-0.1320674342198164,0.8707169113422873,0.08412308943697488,9.16981545059518,-24.921084293761353,-60.09777765801972
1761286107.3791234,-19.127428004555114,-0.1423729658695892,0.8461613607552292,0.08834878318515946,6.831506109910202,-24.805852545132637,-55.85050716268926
1761286107.3891447,-19.59185828562814,-0.15164492292887508,0.8141665022342713,0.09006242338879077,4.708491887670623,-25.321077636742977,-50.90802859433805
1761286107.399143,-20.006218399710093,-0.15940592087897495,0.7749584417351956,0.08898114186775359,3.056819444163096,-26.25497452324093,-45.366802100184586
1761286107.4091332,-20.366521436737244,-0.1656684245257934,0.7298387905061297,0.08507728840366832,2.101399771924794,-27.293455764666373,-39.35997329576507
1761286107.4191444,-20.670245512277024,-0.1709581908235542,0.6812540970621199,0.07862029277006713,2.0147624467750074,-28.057846928173188,-33.04532736981997
1761286107.4291353,-20.916394776195048,-0.1762799774008648,0.6327361225849509,0.07018152860907328,2.8999564304689125,-28.15416741128982,-26.58970755845908
1761286107.439132,-21.105389451424127,-0.18303170339501867,0.5887052057631635,0.06058701417034421,4.779749649481309,-27.228109427583906,-20.152302388099727
1761286107.4491897,-21.238812855256075,-0.19286670150274737,0.5541425124082284,0.05080746310039493,7.593676203806994,-25.018855178234908,-13.869706766382869
1761286107.4591432,-21.31906376683446,-0.20749427286396643,0.5341487457656253,0.04178996122536077,11.203646988038368,-21.40474890888142,-7.8455304087536035
1761286107.4692216,-21.348970666375866,-0.2284071584215383,0.5334168192725849,0.03425893908731969,15.407766975905993,-16.434546103424104,-2.1465102901552107
1761286107.4791532,-21.331421050323378,-0.2565375943773724,0.5556555239367557,0.02853534667025192,19.960765294646333,-10.339381314623838,3.1942714845596756
1761286107.4891534,-21.26904712584708,-0.29187002137607193,0.6030120303986254,0.024429536201280296,24.59823656715113,-3.522628752165226,8.168102578694334
1761286107.499145,-21.163992406091197,-0.3330710905084621,0.6755535755668152,0.021249883805414187,29.06103358262251,3.472672415470568,12.77789634573905
1761286107.509174,-21.017766373266298,-0.3772265593002384,0.7708824305934318,0.017938412166654934,33.11606969132676,10.016512835704619,17.025651245118635
1761286107.5191777,-20.83118077512696,-0.41978955240819715,0.883971426397146,0.013304886172665235,36.57079922969382,15.460012951586538,20.903915850746344
1761286107.529243,-20.6043548211569,-0.454836347330123,1.007313763685037,0.006294358408317492,39.28059962954968,19.21224027971498,24.39410118810898
1761286107.5394995,-20.33677908794365,-0.4756872223966095,1.131468643032793,-0.003795235133818545,41.1504924891614,20.817453301728367,27.4725403270739
1761286107.5491977,-20.02743682949085,-0.4758764355327321,1.2460374868048032,-0.01721718857865885,42.134164436602774,20.023254227350044,30.12272693046677
1761286107.5592303,-19.674990120355865,-0.45035157284562877,1.341009820182712,-0.03383129769755674,42.233280298486775,16.829595841024968,32.34989838551803
1761286107.5691516,-19.278040331514465,-0.3966717335416358,1.408277636505526,-0.05328065665284859,41.49840248680625,11.509290926794185,34.19284366892775
1761286107.5792398,-18.835464930018286,-0.31589961430302377,1.442980551857299,-0.07520739719613818,40.030146942914854,4.5931813195092985,35.72805737193156
1761286107.5891738,-18.34681556975817,-0.2128945454020465,1.4443010705867056,-0.09940266179022379,37.97702569727713,-3.182150519738919,37.063274110698096
1761286107.5991805,-17.812738381062992,-0.09584276042151986,1.4154493741320033,-0.12581339027905655,35.526239342502755,-10.959396176089047,38.32063507795717
1761286107.609308,-17.235354186125214,0.024915409235170865,1.3628310838808317,-0.154400866093348,32.88585350103822,-17.865902549647096,39.61327381938632
1761286107.6198754,-16.618527516098013,0.13847487046095622,1.2946550007228255,-0.18492617313358248,30.2602074169673,-23.12146324242348,41.02155729320582
1761286107.629153,-15.967968745359224,0.23496686529780852,1.219385903590083,-0.21677861343312604,27.823342722547768,-26.12979134785972,42.57546764227095
1761286107.639167,-15.291148870262413,0.3068102284204311,1.1444331446088996,-0.24894259929043683,25.69651499590553,-26.539542405701514,44.24755387363059
1761286107.6491482,-14.597043155273449,0.34941496402077776,1.0753231271440025,-0.2801289114473536,23.93514134138793,-24.26854898693756,45.95748661106895
1761286107.6591938,-13.89574111339962,0.3613307033257193,1.0154149285965999,-0.309014545112527,22.528191264050594,-19.492724544162925,47.58594681497596
1761286107.6694067,-13.19796469637074,0.3439674507012349,0.9660679491358986,-0.33448643462732175,21.40982754592101,-12.60656325999554,48.99352908832905
1761286107.6791546,-12.5145350162103,0.30106224809471965,0.9270969261269802,-0.3557933174567903,20.480012071544948,-4.16456282182713,50.03999907243359
1761286107.6901197,-11.855829194041307,0.23803846694749822,0.897340147986315,-0.37256521809646226,19.628702116644423,5.187126400516437,50.60035365649266
1761286107.6991913,-11.231273206441017,0.16134542558254134,0.8751971028847371,-0.38472566596149826,18.757815592712593,14.780671971270367,50.57598430242988
1761286107.7100668,-10.648918397524872,0.07781587125210246,0.8590462542711248,-0.3923627789359713,17.79647366150837,23.99124803648131,49.901047796578375
1761286107.7198958,-10.115141497603428,-0.005940099226746509,0.8475127094741156,-0.3956255729596952,16.707566713301485,32.29063689343456,48.545325883315925
1761286107.7291536,-9.634486737756847,-0.0840774156761222,0.8395981677021782,-0.39468054198897373,15.48636840190792,39.28517587663611,46.515169851855774
1761286107.7395308,-9.209638487333189,-0.1519515653483365,0.834704466788505,-0.3897254619699608,14.15373569446357,44.73520845373846,43.85368788468309
1761286107.7494218,-8.841485460148688,-0.2064005779811057,0.8325838023710319,-0.38103336909885765,12.746929501545294,48.55546967754425,40.64050377744033
1761286107.7594306,-8.529225108514295,-0.24584324775410799,0.8332430873529758,-0.3689958459357311,11.310504503599905,50.798344779229595,36.99063494053293
1761286107.7691445,-8.270464756995954,-0.2701945099006068,0.8368243855609152,-0.3541449687744804,9.888689500535907,51.62416405777462,33.051627533756246
1761286107.7791917,-8.06129946160834,-0.2806304125623398,0.8434804684045816,-0.3371471162582888,8.519793622022867,51.264136225148455,28.99814027038728
1761286107.7891319,-7.896373998615796,-0.27925433150860113,0.8532624091945525,-0.3187717180195375,7.232659071051608,49.98189030963141,25.02357352447783
1761286107.7991421,-7.7689574645755215,-0.2687209161425727,0.8660326649098646,-0.2998423016563389,6.044962914191329,48.03891653999506,21.328901745666588
1761286107.8091786,-7.671069029487014,-0.2518704742557892,0.88141244445774,-0.2811785765364305,4.96309335428699,45.66775986303766,18.109425485869092
1761286107.8192794,-7.593692002199528,-0.23141821333187634,0.8987672345845232,-0.2635393885897341,3.983298792418668,43.05503186227318,15.540617613998858
1761286107.8292422,-7.5271013757334435,-0.2097295066936227,0.9172298015369342,-0.2475766619388646,3.0938033866511163,40.334531359842046,13.764523012120302
1761286107.8391387,-7.461309155049067,-0.1886940906838212,0.9357562744410511,-0.2338076619495057,2.2775874502331312,37.589256427172494,12.878215887308478
1761286107.8491788,-7.386606327174533,-0.16969298565038202,0.9532077503619146,-0.2226069917544213,1.5155272707936267,34.86002534741159,12.925599253868013
1761286107.8591688,-7.294156847132418,-0.15363756397162995,0.9684465674237113,-0.2142136367928842,0.789567835886071,32.15790886677834,13.893402798716368
1761286107.8691928,-7.176582806670199,-0.14105272276688052,0.9804336911856185,-0.20874501301052864,0.08557484400899856,29.47770503326014,15.711714624517937
1761286107.879182,-7.028472681747948,-0.1321742021610587,0.9883135726007378,-0.20620996609215966,-0.6044929713797889,26.810134260394218,18.258880617201886
1761286107.889173,-6.846745909706787,-0.12703271774552005,0.9914763520160957,-0.206515244458717,-1.2814029243259035,24.151128595774388,21.37019383196374
1761286107.8991735,-6.630817746013941,-0.12550546943190416,0.9895932218619224,-0.2094643606158671,-1.938654465415331,21.50739118115323,24.849514576884108
1761286107.9092026,-6.382529669795166,-0.12732823310489963,0.9826268613366446,-0.21475303367913998,-2.5636914709142378,18.89818134122058,28.48281498364394
1761286107.9193776,-6.1058407549816,-0.13207464675294828,0.9708233306283698,-0.22196973296948022,-3.140131135090924,16.353911630762514,32.052600583266376
1761286107.929219,-5.806307843250218,-0.13911835378207243,0.9546940919592762,-0.2306107325244992,-3.650618007565933,13.912522967053418,35.35219555661943
1761286107.9394906,-5.490408865830818,-0.14759610812790477,0.9349969924110646,-0.24011507455893355,-4.0797664908658975,11.614704818729319,38.19897302622378
1761286107.9491966,-5.1647795992582495,-0.15638753969972066,0.9127227878093022,-0.24991727475629755,-4.41662148858257,9.498927548063095,40.44574348104605
1761286107.959187,-4.835441096586295,-0.16412413597763723,0.8890887801625998,-0.2595085462704588,-4.656182079261768,7.597080690350247,41.98965178365882
1761286107.9692526,-4.507098817776075,-0.1692392846514676,0.8655343711568244,-0.26849475889836133,-4.799779329149088,5.931338669257727,42.778060534080275
1761286107.979184,-4.182598525679739,-0.17007126167368813,0.843707134375541,-0.2766417124152015,-4.854390438536281,4.512689364668632,42.811011231654405
1761286107.9891834,-3.86262354759283,-0.16502553276993961,0.8254247202542498,-0.2839021549305444,-4.831198710433157,3.3413006478451868,42.139961614593375
1761286107.9991891,-3.5457023304071713,-0.15278754573948644,0.8125988774592167,-0.2904207761241818,-4.7438132070534795,2.4085340165555946,40.86263272212718
1761286108.009181,-3.228557034826913,-0.13255636195906956,0.8071133856788907,-0.296512924382338,-4.606557797981474,1.6999983810229053,39.11401669459028
1761286108.0191894,-2.9067663340542294,-0.10425282303617264,0.8106570418499265,-0.3026126153254925,-4.433173066226889,1.198707716009769,37.053931770626896
1761286108.0292072,-2.5756517899922056,-0.0686519208238683,0.8245241888588294,-0.3091882947669803,-4.236171662998536,0.8873126748326552,34.851946960852075
1761286108.0391986,-2.2312449965433085,-0.02739995686627905,0.8494061674726046,-0.3166318032695048,-4.02694174100092,0.748602560096432,32.67095144990675
1761286108.0491753,-1.8711675177856157,0.01710127350789318,0.8852055786226991,-0.3251352825695996,-3.8164985377854252,0.7639956520688824,30.650992072183964
1761286108.0592058,-1.4952661728968606,0.061935491463679444,0.9309099398677039,-0.334578453382005,-3.6165742895512114,0.9104155889061438,28.89514376241572
1761286108.0692136,-1.1058942717263205,0.10400550136991699,0.9845598720765538,-0.3444514195432417,-3.4405900204305806,1.1565832839813817,27.459054169710317
1761286108.079234,-0.707807951338473,0.14040567876394575,1.0433361716036735,-0.3538350200245653,-3.3040588968644196,1.4601458419304645,26.345409436435908
1761286108.089239,-0.30773499187797526,0.1687681324701415,1.1037693079545599,-0.36145250993579725,-3.2241724654948287,1.7671013066824937,25.503975250484373
1761286108.099631,0.08625899895075301,0.18752102026800366,1.1620493127738791,-0.3657939842154735,-3.2186692305528366,2.0146229029567615,24.837206165110356
1761286108.10942,0.46545860540210227,0.19601768476775452,1.2143932461511444,-0.3653000554501159,-3.304442495565278,2.1376611451328857,24.21079661150644
1761286108.1192005,0.8211151463285906,0.19452640713773067,1.2574181911328732,-0.35857727488102176,-3.496547636500003,2.078714647974146,23.468011487499883
1761286108.129216,1.1449181961352546,0.18410202663039466,1.2884692516637306,-0.3446091390110528,-3.8082165011832116,1.799137062583633,22.446195100455814
1761286108.1391778,1.4293060589671713,0.16638105224919944,1.3058598834858346,-0.3229260681019971,-4.252189915417616,1.2896024493013982,20.993556032791524
1761286108.1491978,1.6676422868393739,0.14334575407183617,1.308994619765044,-0.2937051716175236,-4.843238038018837,0.5771762402484094,18.984245524058682
1761286108.1591976,1.8543045915260092,0.11709386726953279,1.2983629652713176,-0.25778370484985325,-5.601277918753472,-0.27304059332005476,16.32997141246444
1761286108.1696079,1.984729606578249,0.08963795914401135,1.2754159749049563,-0.21658594006484266,-6.554133080474483,-1.162641722398416,12.986934178979812
1761286108.179786,2.0554408219615015,0.06274888844475242,1.2423569534442525,-0.1719783127942123,-7.73881245770529,-1.9706558312280424,8.957641859861623
1761286108.1892264,2.0640677514609296,0.037851257126894806,1.2018873456836683,-0.12607913053870917,-9.200289387069054,-2.568760940958561,4.287980240733604
1761286108.1992185,2.009349354540304,0.015971799140479224,1.1569458639690338,-0.08105496520204124,-10.987151250121624,-2.8386501467842065,-0.9394034460323073
1761286108.2106996,1.8911079599414788,-0.002266333967950292,1.1104678198129718,-0.038934892715872575,-13.144111933211676,-2.6889301180535137,-6.613946929604143
1761286108.21983,1.7101826081364166,-0.01661606534148257,1.0651801345662986,-0.0014658457159462859,-15.702116853807109,-2.069116389731355,-12.606741398173458
1761286108.2292383,1.468320710545267,-0.02715938489004874,1.0234400868702573,0.02998015857955084,-18.667464026018795,-0.9788302035878197,-18.77956541991616
1761286108.2392418,1.168038889930269,-0.03425237516904697,0.987121689499462,0.0544489917079214,-22.011845879401896,0.5289768012218989,-24.992577480049526
1761286108.249596,0.8124716650774275,-0.03847064657048282,0.9575502037366106,0.07140906207194728,-25.665354640316004,2.3511709362362607,-31.110392975462787
1761286108.2592018,0.4052266730485176,-0.0405601780740244,0.9354823192621446,0.08073299286691278,-29.514221493293785,4.3435733849047224,-37.00674205740538
1761286108.269205,-0.04974172415269301,-0.041394446046927345,0.9211276263920897,0.08266956877955871,-33.40438668617193,6.334909483786991,-42.56815439046216
1761286108.2792878,-0.5482377857181114,-0.041933740000884706,0.9142054441336974,0.07781277038045323,-37.15103935084767,8.143660296587937,-47.69707773282822
1761286108.2892175,-1.0859125189749383,-0.04317835622899837,0.9140287021048287,0.0670677994589237,-40.553237451492336,9.595397092274707,-52.31459656706696
1761286108.299336,-1.6583398264390823,-0.04610677721092949,0.9196040206972574,0.05160979806226909,-43.41184767591332,10.53810158079764,-56.362644727200056
1761286108.3095014,-2.261083235986219,-0.051594391453070744,0.9297360169021676,0.032829791079233395,-45.54847410064004,10.853435424473133,-59.80543444034852
1761286108.319216,-2.8897519130756377,-0.06031597202041309,0.9431249716320476,0.012263015912421986,-46.82282935661012,10.462844371954219,-62.62981283145985
1761286108.3294225,-3.540042580583917,-0.07264261608947258,0.9584499789891535,-0.008503143829684118,-47.14615975396299,9.32853859022719,-64.84440717484351
1761286108.3391845,-4.207765320938124,-0.088549052338149,0.974433512803808,-0.027940353381499108,-46.488846220053084,7.450484349141008,-66.47766040225082
1761286108.3492088,-4.888855473069721,-0.10754968241481275,0.9898869201587742,-0.04470196886930228,-44.881113316437514,4.861286776699733,-67.57506255095544
1761286108.3596609,-5.5793786483732895,-0.12868112678099924,1.0037395794123711,-0.057741664254149935,-42.40682376203233,1.6210524045184314,-68.19595454018642
1761286108.369666,-6.275538647759379,-0.15054482888966955,1.0150578267669432,-0.06640655951633748,-39.191494707954526,-2.186048932554152,-68.4102000809884
1761286108.3792064,-6.9736974257544375,-0.17141529923487273,1.0230623764667233,-0.07048329260853867,-35.38670770033241,-6.452676825733269,-68.29483915292995
1761286108.3892038,-7.670412673226865,-0.18940879812441272,1.027152229840685,-0.07018348639308003,-31.153704005889345,-11.047018251450075,-67.93063576552787
1761286108.39958,-8.3624931974268,-0.2026959058348738,1.0269373469677796,-0.06606889867919886,-26.648967317801056,-15.81083866363912,-67.39829550393219
1761286108.4093552,-9.047065816544107,-0.20973217299576094,1.0222737871257073,-0.05893068929975034,-22.01399292391515,-20.559228811408477,-66.77411550220926
1761286108.419312,-9.721640991434185,-0.20947538813098504,1.0132892342194675,-0.049646650880219974,-17.3703784750982,-25.08448372032206,-66.12497207044755
1761286108.4291968,-10.384159761774592,-0.20155634268638167,1.0003883947247962,-0.03904305424422924,-12.82009042942722,-29.16587902108822,-65.50281884987749
1761286108.4392607,-11.033003505884768,-0.18637361096913646,0.9842347864923481,-0.02778472157171081,-8.449571722253353,-32.585811953255664,-64.93915410472061
1761286108.4492471,-11.666951604597667,-0.1650938540291285,0.9657109530998826,-0.016309857644256187,-4.335584680813232,-35.15113060007596,-64.44010930946538
1761286108.4592395,-12.285080597921754,-0.1395562931582492,0.9458596065190135,-0.004817331002092502,-0.550527956214952,-36.71689719196652,-63.98289542310098
1761286108.4692357,-12.886610906818525,-0.11209687579847143,0.9258068826001332,0.006694647199892498,2.834609452530794,-37.20876429153834,-63.51437335179204
1761286108.4791994,-13.470720673981047,-0.08531752474045445,0.9066696578500477,0.01834797969452583,5.750708668008308,-36.63985513609864,-62.95250565018464
1761286108.4894304,-14.036356815316724,-0.06182754624878094,0.8894517488931101,0.030280035794701843,8.134562702612124,-35.11853407079639,-62.19132882171608
1761286108.4992886,-14.582078201308637,-0.043981971762982165,0.8749372972199854,0.042538213212556276,9.935885892410589,-32.84456980104909,-61.109781211180035
1761286108.5092251,-15.10596460232147,-0.03364015405245903,0.863592738588363,0.05499638318109722,11.126098176231789,-30.092727979052125,-59.58421872501597
1761286108.5192597,-15.605618667699549,-0.031968697971417374,0.8554903315028088,0.06730874317349113,11.707325621061203,-27.18457584982791,-57.50380360084377
1761286108.5294065,-16.07827712272156,-0.039312663205040586,0.8502652238670179,0.07890724200280216,11.719905877899398,-24.45105721364004,-54.787247553198384
1761286108.5395308,-16.521030871669847,-0.05515360859525216,0.847114747698103,0.08904239652762087,11.246763285982468,-22.190031068141074,-51.39874814688292
1761286108.5492666,-16.931132532029626,-0.07816220547985712,0.8448446345929542,0.09686493535756673,10.413332195215956,-20.62425729447168,-47.36053186288006
1761286108.5592766,-17.30634821851726,-0.10634122259108368,0.8419636773165959,0.10154308965720438,9.382245859636177,-19.865987771214538,-42.75936916299433
1761286108.5692372,-17.64529410983203,-0.1372455139038329,0.836826461147,0.102403273469031,8.342732403657903,-19.894098291536405,-37.744865479359376
1761286108.5792303,-17.947692421964906,-0.16825928316818442,0.8278224513618898,0.09907167937994127,7.495486751295075,-20.5484205714852,-32.51829275105078
1761286108.5909958,-18.214488769089854,-0.19690593541887036,0.8136073140588252,0.09158727942991614,7.034573726973856,-21.543710788095392,-27.31216085639535
1761286108.599433,-18.44779402226552,-0.22116159892661574,0.7933666788500947,0.08045783583102079,7.128479119545234,-22.502876958987947,-22.36245605443509
1761286108.6094434,-18.650645362202173,-0.23973901729667035,0.7670920223814678,0.06663891726884787,7.902630871917111,-23.006148359281667,-17.877153890781408
1761286108.6194053,-18.826615056992644,-0.2523027258608225,0.7358333743850921,0.051427723051223395,9.425561440821912,-22.650270384499166,-14.00584564700569
1761286108.6292586,-18.979320606915476,-0.2595706216523849,0.7018777699464652,0.03627744735775646,11.700470242850349,-21.1099709670949,-10.815780620974396
1761286108.6392946,-19.11189857998544,-0.26325730959844146,0.6687926797779592,0.022555517809592224,14.663349827121056,-18.193202616037535,-8.27913217477905
1761286108.6492639,-19.2264984955618,-0.2658291660157667,0.6412772806542191,0.011289861876634524,18.18806238487394,-13.882154245005664,-6.274783825529024
1761286108.6592557,-19.323843039321382,-0.27007353198584916,0.6247847652451094,0.002964998524246573,22.097781290302176,-8.35362155734723,-4.605524792571455
1761286108.6692073,-19.40289615484104,-0.27852805687981863,0.6249137834343339,-0.0025672684442349077,26.18113998031592,-1.974715675494599,-3.0286287882107303
1761286108.6792593,-19.46068011845551,-0.29285610345076235,0.6466103999245193,-0.0060199271394173175,30.210528253755967,4.727245753449168,-1.2950046428619602
1761286108.6906023,-19.492277662269274,-0.3132783586795307,0.6932666294562667,-0.00845108116208006,33.95963911625769,11.118741057440392,0.8098470611294717
1761286108.7001448,-19.49103996011286,-0.33817786791176263,0.7658428195766015,-0.010957494901123434,37.21794234019903,16.532944126231065,3.4304689034016005
1761286108.7108164,-19.448998770850594,-0.36398888735918733,0.8621761274964956,-0.014389194155715688,39.80126479148603,20.353694021020267,6.618232035182463
1761286108.7195168,-19.357457809163588,-0.3854568867208867,0.9766593810166896,-0.0191913863653435,41.55954321869765,22.100406422168795,10.324672951452818
1761286108.7292151,-19.20771896511718,-0.39630914728171307,1.1004651405932169,-0.025427929694062875,42.38406867436066,21.50238804758526,14.412664696170797
1761286108.739167,-18.991885232482105,-0.390297351252927,1.2224222590188953,-0.0329628641612493,42.21629545556242,18.550905067045505,18.683163210045354
1761286108.7492511,-18.70367486001212,-0.3624720068107173,1.3305132283467727,-0.04171164873332469,41.05846199916958,13.518940703985455,22.911999409901224
1761286108.759195,-18.339179422640527,-0.3104438819341164,1.4137700614203008,-0.051848346918224604,38.983646997777264,6.942129904652328,26.88897354045651
1761286108.769616,-17.897498867356866,-0.23531406682646605,1.4641635186015458,-0.06387474981309198,36.140682917929084,-0.44012086151515895,30.451036951697464
1761286108.7795007,-17.38118559719931,-0.1419610176790147,1.4779954544434968,-0.07851346185492954,32.748773186081934,-7.777291054532684,33.5029087556882
