timestamp,angle,linear_acceleration_x,linear_acceleration_y,linear_acceleration_z,angular_velocity_x,angular_velocity_y,angular_velocity_z
1760681461.1303875,-9.675390678301053,-0.12005116874025379,0.9594965602495276,-0.28400010352875515,8.722803478441488,-10.190941953960246,8.18968165733137
1760681461.1402807,-9.478358094158354,-0.11149570553332118,0.9604344934735056,-0.28694832248620256,8.694436193038477,-12.431341417469358,8.948928494905907
1760681461.1506178,-9.266405159473836,-0.1038482269218153,0.961190832900476,-0.2893050435814073,8.670771477659562,-14.366156245807904,9.720977221498126
1760681461.1602824,-9.042761813227852,-0.09718108213381432,0.9620663211973642,-0.2915249748407512,8.639090833396528,-15.91118814862955,10.460479275389263
1760681461.1700773,-8.810671141418405,-0.09147750103000354,0.9633818295119267,-0.29395867665668146,8.582549343188406,-16.999942807314213,11.124733751008309
1760681461.1803234,-8.573130174141559,-0.08663996066892284,0.9654226057588902,-0.29678989964092606,8.481731590632759,-17.59083842884246,11.679925199114582
1760681461.1903055,-8.332662038476878,-0.08251002897581007,0.9683875337112422,-0.30000022815693256,8.31678495901289,-17.67238498990811,12.106613105222877
1760681461.2002916,-8.091143078806407,-0.07889559657586516,0.9723518425739072,-0.3033689047454519,8.069857997760415,-17.265553363819492,12.403627601462377
1760681461.2102704,-7.8496975912219344,-0.07559926661973149,0.9772482337919194,-0.3065094700168415,7.72746593999904,-16.422896476869486,12.589764713652793
1760681461.2203004,-7.608661732195804,-0.07244207424091444,0.9828675875238656,-0.3089373664055096,7.282366060836871,-15.224384979964736,12.702985626582029
1760681461.2303104,-7.367610967283834,-0.06927930660382278,0.9888772608110875,-0.3101561967978204,6.734579159902987,-13.770316129592054,12.797149709161308
1760681461.240334,-7.125443043860318,-0.06600827494785845,0.9948528380531455,-0.3097469929718319,6.091340599620478,-12.171986275072015,12.93660226855866
1760681461.2502704,-6.880509238397283,-0.06257004831736865,1.0003180533369562,-0.3074450642359995,5.365975711762264,-10.54105560992732,13.189171877606718
1760681461.2602465,-6.630788280471097,-0.05894807166691637,1.0047875172239693,-0.30319176551983096,4.575917618682605,-8.978688859296058,13.61830814385023
1760681461.2702672,-6.374098193416139,-0.05516650280186052,1.0078078296868047,-0.2971527844780714,3.7402593655572036,-7.565636963313597,14.27520994126211
1760681461.2805016,-6.108340480439531,-0.0512903671359018,1.0089942337284756,-0.28969990889509495,2.877311734464564,-6.354406785884881,15.191840073137147
1760681461.2902656,-5.831768457907746,-0.04742850553587798,1.0080614481410126,-0.28135946055020433,2.002616729346831,-5.364507175007364,16.375666051770445
1760681461.3002987,-5.5432675838628445,-0.04373904628722398,1.0048482232239293,-0.27273681733722416,1.127769085197531,-4.581445386991381,17.806788360292817
1760681461.3101027,-5.242632445423727,-0.040436535231187135,0.9993354848626783,-0.2644312427216458,0.2602486239835944,-3.9597081900757547,19.437827539967298
1760681461.320343,-4.930825606418317,-0.03780042479395009,0.9916578513041239,-0.2569571859741915,-0.595727564469245,-3.4294678528293154,21.19658829077998
1760681461.3303535,-4.610206719062058,-0.03618464427110865,0.9821077139248847,-0.25068648330277793,-1.4375522851813989,-2.9062948161903157,22.9911767418847
1760681461.3402832,-4.284718235927844,-0.03602436014776312,0.9711296749277011,-0.24582045156740026,-2.2622135144689897,-2.3028091173708276,24.716990950820964
1760681461.350341,-3.9599988261454073,-0.037828936261761856,0.959301381180828,-0.24239266562997,-3.0644918301431687,-1.540985587434495,26.264886717461344
1760681461.3605075,-3.643370659796281,-0.04214520125089848,0.9472963875284786,-0.24029467076603925,-3.835922633420733,-0.5637193601356607,27.52984143228349
1760681461.3700445,-3.343628748330905,-0.04947925595602799,0.9358274738945866,-0.2393118067925186,-4.564873643504939,0.6557732262586234,28.41952698052499
1760681461.3804705,-3.0705682360552764,-0.060179442368617365,0.9255748252265471,-0.23915760042353176,-5.237756589102428,2.1080870936186042,28.862257069816977
1760681461.390314,-2.8342267254818325,-0.07430184904748648,0.9171099657509675,-0.23950181115396652,-5.84104585615968,3.7464503698591054,28.81374357716775
1760681461.4003413,-2.643886464750408,-0.0914945170941611,0.9108296716223495,-0.23999469401217913,-6.3635407317349335,5.49092895816739,28.262016513530877
1760681461.4102762,-2.5069570502256666,-0.11094073492581419,0.9069125776472723,-0.24029417276666573,-6.798259300452808,7.237946660726562,27.22982855948033
1760681461.4204712,-2.4279173901811775,-0.1313913805462042,0.9053059834260294,-0.24010196557917746,-7.143496999325663,8.874075276146819,25.77398027170523
1760681461.4302056,-2.4075116557776903,-0.15129223770465863,0.9057439649053415,-0.23921000830345493,-7.402862595983258,10.292080815228328,23.98131770838617
1760681461.4401722,-2.4423587872451935,-0.168983896259598,0.9077927622282217,-0.23755174995475495,-7.584419704736589,11.406549622973625,21.96163026492538
1760681461.450199,-2.5250605200277736,-0.18293172062888602,0.910916797625014,-0.23524676585183454,-7.6993075747176976,12.166289588709196,19.838184748212758
1760681461.460196,-2.6448008757804495,-0.1919372116329612,0.9145575523195799,-0.23262391181275166,-7.7603145992090345,12.56118944063183,17.737008727644486
1760681461.4702473,-2.7883418623221687,-0.19528809976034892,0.9182160197082887,-0.23020896621284068,-7.780808958887237,12.622249099726268,15.77616468199668
1760681461.4803054,-2.9412557848270766,-0.19282024602305609,0.9215280486045639,-0.2286678340707611,-7.7742300324168845,12.414842895319564,14.056125281482242
1760681461.4903035,-3.0892110381409132,-0.1848873841700745,0.9243229219482693,-0.2287058245734743,-7.754095079381133,12.026626648345456,12.652055582712997
1760681461.5003781,-3.2191478416996504,-0.17225735907853296,0.9266590902977095,-0.23093515078681776,-7.734275507268145,11.552538221235341,11.608453768536796
1760681461.5103803,-3.320226370456417,-0.1559662118346269,0.9288343988078142,-0.2357324567518356,-7.729217829187322,11.079846740618605,10.936300773148803
1760681461.5202851,-3.384480773357337,-0.13716192852220413,0.9313696788291841,-0.24311232877121094,-7.753845902493357,10.676084140554732,10.612667452729909
1760681461.5306046,-3.407158383270848,-0.11696369611405869,0.9349653303246678,-0.2526408710705676,-7.823046963437017,10.38199350565039,10.582612149718676
1760681461.5403836,-3.3867633129576533,-0.09635551761905879,0.9404322663404855,-0.26340736758444094,-7.950843392776549,10.210521587347944,10.76312322907352
1760681461.5505137,-3.3248567160735467,-0.07612581231265726,0.9486016209009105,-0.27406389857826535,-8.149512104597877,10.15160480910362,11.048780991532375
1760681461.5602663,-3.2256885992037234,-0.05685647296989368,0.9602211629783185,-0.28293373267796257,-8.428982276276857,10.181309144448461,11.318732311665489
1760681461.5704312,-3.0957435816024046,-0.03895568570763686,0.9758494382858639,-0.2881800321090303,-8.79679817141764,10.273029174276227,11.444525455463502
1760681461.5801547,-2.943270861379392,-0.022718832867792783,0.9957600967036858,-0.2880176749281161,-9.258788287605485,10.408107727879042,11.298376921151277
1760681461.5902987,-2.7778364829883886,-0.008392953082895253,1.0198678592898265,-0.2809437892271169,-9.82037565469931,10.58346574322368,10.76153565200162
1760681461.600271,-2.6098932677011337,0.003782823617115116,1.0476849555726329,-0.2659578725879093,-10.488248795117945,10.814562991616508,9.732524220955515
1760681461.6103044,-2.4503289072935828,0.013581272978797469,1.0783144364139063,-0.24274111677939694,-11.2719298737948,11.133069577107964,8.135091011397199
1760681461.6201382,-2.3099441445188598,0.020838519834967238,1.1104847688337705,-0.2117677863803219,-12.184655805242208,11.579784294933505,5.925627771073401
1760681461.6304243,-2.1988377171575415,0.025534492669332873,1.1426266069625721,-0.17432971340323627,-13.242965644464201,12.194357864101068,3.09958596818423
1760681461.640179,-2.1257232027025346,0.02786789812622103,1.1729864730774342,-0.13246704978693055,-14.46451020010542,13.0040738719093,-0.30384142800695046
1760681461.6503375,-2.0972541979421786,0.028287720384363516,1.1997650646189073,-0.08881099688509037,-15.863900723409383,14.014157847509683,-4.199670330739911
1760681461.6601655,-2.1174675722241103,0.027453840449257794,1.2212630634506065,-0.046353304012078746,-17.44687026905029,15.20173803274102,-8.458562539701326
1760681461.6704404,-2.1874578206644233,0.02612045018368554,1.2360165270331491,-0.008161782857742944,-19.203532039206614,16.514718329892233,-12.912346840612363
1760681461.6803408,-2.305368492726019,0.02496082073201395,1.242907345894387,0.02293597674955039,-21.101938142894074,17.87567082843387,-17.363826650638202
1760681461.6903179,-2.4667381182111767,0.02437305655188738,1.241240576186398,0.044673247861821676,-23.083349511983446,19.189737708837317,-21.600630232977846
1760681461.7003033,-2.665180460774676,0.02431693810274172,1.2307873147378114,0.055633938533914414,-25.060562691561138,20.354735959400635,-25.412392132440118
1760681461.7103636,-2.8933237034843065,0.02422812592758557,1.211796567206051,0.05546965018037523,-26.92029596180141,21.271352366366354,-28.610056141420813
1760681461.720312,-3.143888522998115,0.023039711651139987,1.1849808053716804,0.04500169755195045,-28.53006269572765,21.85154452969864,-31.045582500307574
1760681461.730306,-3.4107560247993725,0.019318644591310673,1.1514784446838189,0.02617545630746196,-29.74925664884677,22.02394341200791,-32.62991667877807
1760681461.7402577,-3.689866588038895,0.011502130525898024,1.1127948256086602,0.0018553734703971876,-30.443473905442755,21.735979392487888,-33.346866066721084
1760681461.750242,-3.9798025970862203,-0.0017997433286914037,1.0707231360294414,-0.024522399505594164,-30.500509986032878,20.95335257356313,-33.26064135302082
1760681461.7603488,-4.28194366997949,-0.02148257070079444,1.0272474106027671,-0.04939405985204277,-29.846061702490292,19.658096142030338,-32.515294620117245
1760681461.7702196,-4.600141934060142,-0.04766265109747453,0.9844298723768561,-0.06954218234749536,-28.456961245015307,17.846714644426655,-31.325107277167316
1760681461.7802303,-4.939942974206306,-0.07948562082921042,0.9442845577733041,-0.08252465965678352,-26.36979443829467,15.529719484573217,-29.95606725142518
1760681461.7901313,-5.307466288027039,-0.11508139212967215,0.9086400863593527,-0.08698916918740082,-23.68304464788011,12.733398846509365,-28.699796544016255
1760681461.8001456,-5.708142489782249,-0.15170523589185345,0.8789979346066915,-0.08282186865626022,-20.551528687645757,9.503918834276318,-27.84250241515546
1760681461.8105295,-6.145560551150878,-0.18607824090490888,0.8563981764577355,-0.07110594887758045,-17.172905709863247,5.912931199017046,-27.63256518832343
1760681461.8200662,-6.620679305092545,-0.2148959803581471,0.8413106762137695,-0.0538972331821682,-13.767388345372556,2.062917260726123,-28.251027828784387
1760681461.8302372,-7.1315838074252405,-0.23541928795224729,0.8335740574534783,-0.03385581857246051,-10.55322535226389,-1.910166243564687,-29.789267125345773
1760681461.8403635,-7.673827851536708,-0.24601768423589104,0.8324043489287107,-0.013799500857021649,-7.721647076793779,-5.839391251367274,-32.2373237426303
1760681461.8503978,-8.241244062999904,-0.24652909491733327,0.8364865710703728,0.0037399562185183454,-5.415357054875277,-9.53614170916182,-35.48479284364487
1760681461.8603258,-8.82698494158579,-0.23833849333895735,0.8441451448444162,0.016878387285640676,-3.7141221520045042,-12.806279314023065,-39.33418021628895
1760681461.8700793,-9.424526051292212,-0.22414963891748008,0.8535679774547771,0.02459973431824904,-2.629668374075358,-15.471497257274669,-43.52474447957408
1760681461.880264,-10.028417901786638,-0.20750108611490023,0.8630436456639863,0.026810846114847263,-2.1102676814315675,-17.392635819840194,-47.76349870911151
1760681461.8903036,-10.634679961355138,-0.19213494451352206,0.8711689137836626,0.024243554685420613,-2.0535700818690334,-18.490884390222877,-51.75934964152672
1760681461.9003437,-11.24084091981869,-0.1813515207799619,0.8769950352552978,0.018246378510324932,-2.3248647036010106,-18.76279907124169,-55.25617739383745
1760681461.9104068,-11.845708881646425,-0.17747464089343173,0.8800983029407016,0.01052092225581662,-2.777338542955854,-18.285869647514325,-58.06084991909187
1760681461.9203475,-12.448990761397086,-0.18151826285959868,0.8805742500860789,0.0028525485322783034,-3.271059475640198,-17.212790759683052,-60.06270744316158
1760681461.9302928,-13.050876459092176,-0.19309593858073057,0.8789623778708601,-0.003131855488098465,-3.6881383268049146,-15.754400128537617,-61.24202153315185
1760681461.940334,-13.65167417971798,-0.21056466317783454,0.8761125876287073,-0.006162051831289322,-3.942538308841809,-14.153179327124235,-61.66634396068274
1760681461.9501648,-14.251544730152332,-0.23135690840666132,0.8730108779873496,-0.005467971346655607,-3.984040931031145,-12.65094589749286,-61.47537237400997
1760681461.9601815,-14.85034865482549,-0.25243527146340505,0.8705910296454517,-0.0008566045991467063,-3.7967722162733692,-11.455545442743356,-60.85671643959686
1760681461.970339,-15.447598545921972,-0.27079966370157876,0.8695654247745742,0.007289592665642075,-3.3933714061953366,-10.71170551169299,-60.016421850018176
1760681461.9802933,-16.042500027779237,-0.28397905173683563,0.8703058486446142,0.01809606224676056,-2.8063466682381,-10.480648725203853,-59.14894879164164
1760681461.9900491,-16.634063336490758,-0.2904429771449073,0.8727937330859865,0.030349105858626584,-2.0784049859842693,-10.73170339008806,-58.411260560342335
1760681462.000456,-17.221266908677386,-0.28987389170675226,0.8766435922140138,0.04269123641865175,-1.2535177133404178,-11.347283220960943,-57.90475932133377
1760681462.0103512,-17.80325197506381,-0.28325531484311695,0.8811888624532901,0.0538234415775722,-0.37014704283636235,-12.140578789219298,-57.66725763748647
1760681462.0202017,-18.37952300863088,-0.2727550001256123,0.8856091976132425,0.06267958067849076,0.5425376381339881,-12.883428871584625,-57.675354116410105
1760681462.0305731,-18.950124134627533,-0.2614125166181734,0.8890731193873764,0.06854653732454638,1.465328168233829,-13.340383369989931,-57.85582804164581
1760681462.0407941,-19.515757771637908,-0.25267208236314104,0.8908693400852203,0.0711167174910657,2.3870437443119963,-13.30411796183094,-58.10325439198189
1760681462.0506008,-20.077811654694248,-0.2498311470807991,0.8905038907266158,0.07047321399816305,3.3009652747866745,-12.62719383792676,-58.30018478651945
1760681462.060449,-20.63826716659447,-0.2554965870689636,0.8877482321151281,0.06701949836732503,4.200833586862683,-11.245662244084503,-58.336097934180714
1760681462.0700674,-21.19947622456865,-0.2711433325251661,0.8826345849778842,0.06137362749986756,5.077582205301227,-9.19112933120502,-58.121926480896015
1760681462.0804567,-21.76381312064306,-0.2968507900559826,0.8754063687059496,0.05425104815086425,5.917705523766048,-6.58950637944818,-57.59816737498161
1760681462.090376,-22.33322790547586,-0.33125741638495615,0.8664409962928193,0.04635913889147154,6.703690698372313,-3.6465830809874538,-56.73608619065593
1760681462.100358,-22.908746481064053,-0.37173449176660217,0.856166726899085,0.038320577914051704,7.416369613476427,-0.6224993407317074,-55.53297738975722
1760681462.1101286,-23.489977893448547,-0.4147451526291537,0.8449933234449465,0.03063356001451595,8.038532444548817,2.2011860902556455,-54.00351245801774
1760681462.1203175,-24.074699198977175,-0.45632882335506575,0.8332687489142132,0.023667906870854814,8.558829460052513,4.557124698946052,-52.169690285724016
1760681462.1303809,-24.658588822908644,-0.4926355132072958,0.8212645700164252,0.017689605657278257,8.974929271058311,6.2255556475088625,-50.051775234046694
1760681462.1406536,-25.235166187591773,-0.5204278786188073,0.8091853519132403,0.01290305919556175,9.295074503350355,7.060992540273079,-47.66198867744598
1760681462.1507125,-25.795967769751076,-0.5374730390071555,0.7971946061758282,0.009499164559751137,9.53752323731497,7.008937357857816,-45.00181852009133
1760681462.1604266,-26.330953628835477,-0.5427666007838476,0.7854516096927723,0.007696424743464396,9.727814413369321,6.110939241624544,-42.0628960910656
1760681462.1703146,-26.82910493068317,-0.5365691554775888,0.7741570347120604,0.007761722306194739,9.894258103997439,4.498063159709187,-38.830711484198766
1760681462.1803794,-27.279152524734595,-0.5202789132886056,0.7636070194594189,0.009999223369542355,10.062443428688866,2.374416328097352,-35.290125268606
1760681462.1904824,-27.67037248457175,-0.4961944556418547,0.7542526349945338,0.014701716800958152,10.249814834737824,-0.006456950700960049,-31.431657929610726
1760681462.200195,-27.993389874480158,-0.4672268957191874,0.7467553570949392,0.022068486868797477,10.461432942175895,-2.3689336825694483,-27.25775416193394
1760681462.2103055,-28.240935119970832,-0.4366038290578304,0.7420219796854953,0.03210580014985552,10.687861188127204,-4.443122069580044,-22.788449502422047
1760681462.220127,-28.408491409558625,-0.4075822596352539,0.741197480188202,0.044535895255212656,10.905714490137788,-5.990396376915019,-18.065987826081827
1760681462.2304444,-28.49476000238599,-0.38316879911100266,0.7455942760021987,0.058742397301994126,11.080867412707933,-6.824696749231244,-13.157913434295537
1760681462.2404997,-28.50186476892293,-0.3658411332330397,0.7565434839088184,0.07377185641762564,11.173798378988653,-6.828290669057936,-8.158026667882218
1760681462.2504318,-28.43523011011778,-0.35727552408097213,0.7751696192375236,0.08839580387221337,11.146191799202185,-5.96110634672637,-3.18444719814542
1760681462.260287,-28.303102732119168,-0.35810476500872146,0.8021130117869895,0.10122227055561195,10.967818251336604,-4.262987168485616,1.625968906559522
1760681462.270499,-28.115743766753127,-0.36775084207732195,0.8372487118941002,0.11083625676694392,10.6228420844971,-1.848465265918806,6.127308354238295
1760681462.2803235,-27.8843835013627,-0.3843888941455031,0.8794695174452337,0.11594662946337318,10.114939313386468,1.105912899860888,10.178167653854429
1760681462.290304,-27.62009041192506,-0.40509571425305996,0.9266066385986793,0.11551934344797138,9.470787221317941,4.380970810409921,13.657985333577033
1760681462.3006058,-27.332737540575575,-0.42620898138631985,0.9755481845724592,0.10888010460513514,8.741509076405624,7.739305639200529,16.484052152126157
1760681462.310192,-27.03023469694814,-0.4438723773918706,1.0225797045925697,0.09577257757444126,8.001531299421057,10.951962716209557,18.6263619532685
1760681462.3203266,-26.718133619154813,-0.4546801360657477,1.0639146761371114,0.07636327691677346,7.344165802899628,13.823765118750586,20.1172337560993
1760681462.3301191,-26.399624765451353,-0.4562865227426659,1.0963169551244734,0.05119526408243975,6.873286440381431,16.213425731956978,21.053170653347355
1760681462.3401446,-26.075859327696193,-0.447835661074881,1.1176633416312194,0.02110920304606054,6.690938721163349,18.045231444737478,21.587719902184674
1760681462.3503594,-25.74647440604578,-0.43010561797646096,1.127282108769278,-0.012838590339099693,6.881679063021624,19.310611902409214,21.915789163883296
1760681462.3603415,-25.410184785749877,-0.4053352374583096,1.1259553587363227,-0.04943900088988017,7.495727039272714,20.05985770398079,22.25139698744709
1760681462.3703709,-25.065328178025098,-0.3767834586211403,1.1155818238900588,-0.08737497008151512,8.534234419729579,20.38605650909315,22.801818275085044
1760681462.380374,-24.710296995201446,-0.3481299600449573,1.098616160546693,-0.12526809227818497,9.940565329759961,20.40448059440434,23.741513474277703
1760681462.3903968,-24.34383663505243,-0.32284770691282283,1.0774727298457594,-0.1617459913342849,11.600935056256455,20.23098296693492,25.189268142125165
1760681462.4003048,-23.965219917869362,-0.30366347530784743,1.0540758676188229,-0.1955336480689065,13.35595678751539,19.962607680252994,27.191702165655027
1760681462.4103944,-23.574316936647186,-0.2921856461243997,1.0296664819746224,-0.22555351789985562,15.022049836271815,19.66294187085348,29.71567654452345
1760681462.4204144,-23.171578869164772,-0.28873744269365925,1.004874455294004,-0.2510084539345226,16.419088927228103,19.35394912481266,32.651038041495994
1760681462.4304209,-22.75795291358912,-0.2923994279462335,0.9799789734901189,-0.2714237468819108,17.398922210104963,19.015128372104506,35.82362996962976
1760681462.4405055,-22.33474641869301,-0.3012375668876148,0.9552329342671331,-0.28663945894123005,17.868978211106217,18.589812330260898,39.01682426509305
1760681462.4503686,-21.903460708893327,-0.31266866617977557,0.931130565390115,-0.2967634953586524,17.806239789026556,17.997362240826217,41.99842948670136
1760681462.4603815,-21.46561780685527,-0.32389548452438055,0.9085377779916876,-0.3021089792697492,17.259046163133437,17.149145580045346,44.549078981290506
1760681462.4704554,-21.02260383697553,-0.33233572255062416,0.8886610587519893,-0.30314053034117877,16.336807966257393,15.965692019348598,46.48824365264111
1760681462.4809337,-20.57554754838345,-0.33597460929837275,0.8728813807589173,-0.3004436742979589,15.190071826852583,14.392397333739398,47.69473522165861
1760681462.4904125,-20.125239630742534,-0.3335873953289016,0.8625107084237718,-0.29471562466852563,13.984977826045974,12.411568264414628,48.11968163236898
1760681462.5001502,-19.672083424535113,-0.32480486144186055,0.858537118830743,-0.2867623327418017,12.87682691320265,10.04936950897143,47.791111921887286
1760681462.5102193,-19.216060466698934,-0.31003079004171025,0.8614160098888706,-0.2774825583169981,11.98722898960733,7.377156772642389,46.810216837914254
1760681462.520376,-18.756702209688836,-0.29025603539018185,0.870947469583615,-0.2678259214390343,11.388291302092242,4.507512196477996,45.339994296146926
1760681462.530373,-18.293078673694072,-0.2668337573192464,0.8862593028726528,-0.2587241349353566,11.095790679914591,1.5858385532707846,43.58747564806989
1760681462.5402155,-17.82383256237098,-0.2412747816381944,0.9058944714997396,-0.251006600232409,11.07156773637261,-1.2214318744723864,41.78122897150956
1760681462.5504236,-17.347290178757838,-0.21509598238589944,0.9279834246990561,-0.24531883242534785,11.233817496071167,-3.7409664929509763,40.14639416826547
1760681462.560438,-16.86166414898724,-0.1897238034039857,0.950468592261614,-0.24206313026724632,11.47281942876945,-5.8079503540126005,38.88000291648644
1760681462.5703592,-16.365334084309996,-0.16643423166438048,0.971341870815182,-0.24137543971334863,11.669116625990357,-7.281585460983545,38.12957423321742
1760681462.5805974,-15.8571625443309,-0.14630592853539515,0.9888572205557004,-0.24314201231251542,11.711218449402622,-8.059191062467574,37.9777681722894
1760681462.590522,-15.33678798634063,-0.13017285306171497,1.0016895505712275,-0.24704832002153718,11.510431299150289,-8.087228516871633,38.43513625796694
1760681462.600311,-14.804841128009805,-0.11857867933715512,1.0090255414562825,-0.25264553355502856,11.011215240607418,-7.3676523305417625,39.44181135241828
1760681462.6104627,-14.26305239002868,-0.11174639360461139,1.010587001413683,-0.25941865893960575,10.196305614417543,-5.958435424124712,40.877597598012656
1760681462.6204648,-13.714242462008619,-0.10957514801211199,1.0065977940539672,-0.26684358721099405,9.086570182237647,-3.967896070506646,42.578687441973535
1760681462.6303813,-13.16220428280536,-0.11166615172404737,0.9977093252842871,-0.27442534949972064,7.7361374528303335,-1.5434096294350563,44.35839331218588
1760681462.6405306,-12.611492322288944,-0.11737040525088978,0.9848988182495586,-0.28171565150847144,6.223754126780207,1.1440074743329953,46.028924108910495
1760681462.6505446,-12.067140032339417,-0.1258491769841254,0.9693522561905631,-0.28831384302953106,4.641643327718127,3.9171176315479737,47.42134343520933
1760681462.6604767,-11.534332488574698,-0.1361412170818363,0.9523414722543917,-0.2938601934169754,3.083338814053599,6.6095389160826565,48.40136399417605
1760681462.6704354,-11.01806759043022,-0.14723462990039538,0.9351027465572983,-0.2980312598629425,1.6320358003725441,9.08035666780551,48.87946845727931
1760681462.6803272,-10.522842483545833,-0.15814336167474677,0.9187236756785399,-0.3005438172521634,0.35090207685649916,11.224721084189703,48.81484270902444
1760681462.6904035,-10.05239907254893,-0.16798701688784595,0.9040474108656625,-0.30116898222017324,-0.7234758688129675,12.979627054262723,48.21357291164964
1760681462.7003632,-9.609552533599052,-0.1760687932275033,0.8916072620149165,-0.29975499820901264,-1.5837643906989418,14.324827282303824,47.12233462480154
1760681462.7104712,-9.19611187645294,-0.18194269028983961,0.8816058436469959,-0.29625612974930227,-2.250459155622303,15.27948414347029,45.619270724320565
1760681462.720375,-8.812886931073681,-0.18546083553071507,0.8739478874749282,-0.2907646823823101,-2.7667220530721184,15.8956383072664,43.803824241590256
1760681462.7304065,-8.459766518855089,-0.18679489478243405,0.8683251811526362,-0.2835423074763488,-3.190367934643206,16.24979233435899,41.78695317991655
1760681462.7403507,-8.13584910914618,-0.18642900055843875,0.8643398606022911,-0.2750451492681758,-3.5843188900036886,16.433825186056268,39.6825473209624
1760681462.7506106,-7.8396064375603585,-0.18512205161604586,0.8616428639977387,-0.26593472361395,-4.00707374356863,16.546086878968516,37.60024649341945
1760681462.7603667,-7.569057996517648,-0.18383489450712115,0.8600605494331071,-0.25706360902268477,-4.504685642325637,16.68300949316575,35.63945155373366
1760681462.7700958,-7.321930285870933,-0.18361770526567928,0.859685116970327,-0.24942474198419753,-5.105380803320264,16.93114361779644,33.88419580700236
1760681462.7800944,-7.095774658409905,-0.18545937118372785,0.8609123529261575,-0.24405750625346614,-5.817370480274299,17.359396290163577,32.39862918632099
1760681462.790125,-6.888026238985425,-0.19011233999385754,0.8644206127453611,-0.2419127144100844,-6.6297749315741035,18.011476764203785,31.223042602392862
1760681462.8000846,-6.696003240981901,-0.197917613438916,0.8710950465185046,-0.24368986445646623,-7.516076407454985,18.899049724796043,30.370547177375162
1760681462.8100934,-6.516866481179198,-0.20866124606707434,0.8819090426887796,-0.2496704791633753,-8.439262713889775,19.996628749976566,29.824684584020723
1760681462.8201811,-6.34757693342221,-0.22149443340729133,0.897779910020972,-0.2595775301067195,-9.357811277948995,21.239560376427445,29.538366479888897
1760681462.8300996,-6.184898071808921,-0.23494292731452251,0.9194176348787917,-0.27249116423900654,-10.231798015777382,22.526371702224683,29.434621449164293
1760681462.8403604,-6.025483489067652,-0.24701731419190393,0.9471844380203984,-0.2868457318936122,-11.028578146621,23.72625588453649,29.409650100527767
1760681462.8504179,-5.8660670095639125,-0.2554158482885742,0.980980041520892,-0.3005236566752208,-11.727603447887873,24.691670610972192,29.338606276987015
1760681462.860368,-5.703738546889639,-0.25779276348629065,1.0201650424806525,-0.31104862056014143,-12.323992870320618,25.275113034435527,29.084282685237007
1760681462.8703783,-5.5362578145139585,-0.25205489755574456,1.063534187116667,-0.31586491453826804,-12.830481059559842,25.34828829568101,28.50846313315762
1760681462.8803687,-5.362343091071636,-0.23664990013722828,1.1093514930332622,-0.3126740081080726,-13.277383470773382,24.821245978263068,27.485149882304228
1760681462.890284,-5.181879278635945,-0.21081507689275247,1.1554553450512988,-0.29978629105762356,-13.710305240305635,23.65872128523,25.914292011393812
1760681462.900293,-4.9960146382515,-0.17476105069233996,1.1994300372502682,-0.2764376606123064,-14.185531118167141,21.890951930723705,23.734192523492606
1760681462.9107723,-4.807148048459361,-0.12976765358305378,1.2388236252410034,-0.24301819914859238,-14.763354659422426,19.616679651818185,20.93062286057832
1760681462.9203973,-4.618835290439451,-0.07817378367472906,1.2713787403764545,-0.20116426880909918,-15.499960585317487,16.996881670318718,17.54091468146346
1760681462.9301374,-4.435654202072651,-0.023251347697061053,1.295239551415789,-0.15367749335904424,-16.438761985729567,14.238965546691535,13.651900466919413
1760681462.9402735,-4.263062640486655,0.031034468675301144,1.3091043851953579,-0.10425655959063922,-17.60224573042089,11.572610663688518,9.391412362516057
1760681462.9503367,-4.107265139960503,0.08036315453571115,1.3123057526844297,-0.057060416863178386,-18.985389011445573,9.219984781350167,4.913975399853272
1760681462.9603372,-3.975082643472318,0.12046686960786193,1.3048137234439783,-0.016158597036599706,-20.551604112636213,7.36440520862167,0.38221707926385945
1760681462.9703155,-3.8738034264931764,0.14756819615052688,1.287172166477618,0.01504435479107854,-22.23196840575955,6.122259044989318,-4.053744345845591
1760681462.981814,-3.810988571318176,0.15879726939817532,1.260388918531279,0.034308435567852014,-23.928212408660237,5.522836863798208,-8.276161728280083
1760681462.99016,-3.794214505461144,0.15253330302171833,1.2258088589309621,0.040887247217473166,-25.519584339452777,5.499604841655103,-12.215834816862879
1760681463.0003698,-3.8307552067962263,0.12862035220090318,1.1849996572643664,0.0356212228365693,-26.873302120838577,5.894563259088088,-15.861977583744542
1760681463.0103698,-3.927228790439081,0.08842339882220193,1.1396703428381307,0.02077392829627421,-27.857846582283713,6.475160169615442,-19.263967527820967
1760681463.0203216,-4.089246734688674,0.034715795440901795,1.0916251876776155,-0.0003603467587537379,-28.357838786974188,6.961263767776851,-22.524290820738013
1760681463.0303724,-4.321103927303813,-0.028585044955135676,1.0427378865873762,-0.02400571901288123,-28.28872199431732,7.058342112813318,-25.783166034419864
1760681463.040126,-4.62553712530038,-0.09679843234930008,0.9949211932798476,-0.04650898140860871,-27.609074612860574,6.492425123176945,-29.196397709915523
1760681463.0505786,-5.003565237278838,-0.16493429104058746,0.9500676312677072,-0.06488772343997809,-26.32832858569287,5.042581068895317,-32.90897261247674
1760681463.0603082,-5.454411921621214,-0.22817494785860828,0.9099467237184654,-0.0772237287409741,-24.50813271853973,2.567314896293041,-37.027761720664635
1760681463.0703592,-5.975500123791486,-0.28233756546831196,0.8760611648844433,-0.08283667395795503,-22.25659053094525,-0.9777896210107934,-41.597297260443575
1760681463.080416,-6.56249931131088,-0.3242661547561454,0.8494846515545508,-0.08222074633596471,-19.715918051104317,-5.532911014578117,-46.58268458555883
1760681463.0904427,-7.209403379733661,-0.3521030771364464,0.8307206438021507,-0.07677696834010828,-17.04536716860174,-10.938095204435326,-51.86303428119837
1760681463.10032,-7.908627299231769,-0.3654040655330056,0.8196253752863123,-0.06841413378616713,-14.40217433916611,-16.948387292662844,-57.23737414925254
1760681463.1103787,-8.65113413973264,-0.3650876942071432,0.8154259540197756,-0.05911143824286746,-11.92356125664603,-23.258586332557705,-62.44313944463173
1760681463.120115,-9.426630244019009,-0.35323920611300436,0.8168403154027248,-0.05053220077873941,-9.712414282023492,-29.53494385791655,-67.18542926670945
1760681463.1303933,-10.223878730488957,-0.33280720589652574,0.8222798371478118,-0.043754170656245144,-7.828436169307845,-35.44998848998238,-71.17352009326407
1760681463.1405077,-11.031168991124732,-0.30723448752105764,0.8300952155006202,-0.03914775419945018,-6.285619792751339,-40.71602842532121,-74.15980889341547
1760681463.150504,-11.836942144073044,-0.28005601648733686,0.8388155952797074,-0.03640086376150041,-5.056041914271923,-45.11298488320081,-75.97558216422156
1760681463.160215,-12.630520946679718,-0.2544900008255133,0.8473322804079241,-0.03466597050956975,-4.07921057868923,-48.50695936896525,-76.55797124356143
1760681463.170392,-13.402846818097013,-0.2330526071904576,0.8549925315667907,-0.03279230349405097,-3.275427368195941,-50.85709073321163,-75.96333999106871
1760681463.180511,-14.147104898457043,-0.21724308014513452,0.8615925810740995,-0.029599297223511494,-2.560891851019456,-52.20966276085399,-74.3642034273312
1760681463.1903226,-14.85912928653162,-0.20736154405077387,0.8672837728725127,-0.02414183255263558,-1.861853051671498,-52.68009015527743,-72.02938719404591
1760681463.2002158,-15.53752083588703,-0.20251974974715545,0.8724232390451089,-0.01591561093601869,-1.125299321397381,-52.425313595905294,-69.29002267640224
1760681463.2103946,-16.183465809123668,-0.2008759014974964,0.8774072980642131,-0.004960201696523241,-0.3245179952334987,-51.61097966218794,-66.49648812082079
1760681463.220492,-16.80029860236029,-0.2000735681802183,0.88252304153285,0.008157857877857394,0.5409139015041976,-50.37905576840926,-63.97298722514356
1760681463.2301245,-17.392891764939574,-0.1978083677894905,0.8878441276542968,0.02246661573444218,1.449925807373211,-48.82177724203347,-61.976804533156034
1760681463.2401984,-17.96697443555187,-0.19240433867816648,0.8931840282417001,0.036773525774762506,2.36788323102773,-46.96686381972157,-60.6683701867723
1760681463.2501867,-18.528475775891447,-0.18326955990888302,0.8981079893162904,0.049863541602159854,3.2556466101671058,-44.77693259222635,-60.09630414766622
1760681463.2603421,-19.082967660905336,-0.1711225985285907,0.9019965535342596,0.060669359477403324,4.077898970123997,-42.16341471675683,-60.198988268877464
1760681463.2703807,-19.635248449325754,-0.15793116671323454,0.9041482529782385,0.06839086048709535,4.809362904398423,-39.012625538532134,-60.821455052029854
1760681463.2803488,-20.189076021483498,-0.1465678725213726,0.903904558812282,0.07255886562635598,5.438169578589934,-35.21943770437729,-61.74399209691867
1760681463.2903442,-20.747031838279998,-0.1402504688060216,0.9007750123133372,0.07305067151354519,5.966316103249393,-30.722576419415855,-62.71724252980022
1760681463.3002317,-21.310484416973317,-0.14188319329702173,0.8945365363204226,0.07007002415314864,6.407758853050158,-25.53506952570659,-63.49798360385858
1760681463.3103461,-21.879621255118824,-0.15344052527143107,0.8852822357741086,0.06410324942753914,6.7851363566088665,-19.76394760376604,-63.880223785334785
1760681463.320126,-22.4535282683039,-0.17552725159830726,0.8734042658367468,0.05585895512638488,7.126273461816489,-13.61491006726095,-63.717576883608544
1760681463.3304324,-23.030307889722785,-0.20720940421745154,0.8595118127581853,0.046194640383138724,7.461412290349984,-7.380182564821149,-62.93470017953856
1760681463.3403587,-23.607234280578417,-0.24614804720564543,0.8443046902451004,0.03603232355701595,7.821599522859351,-1.4107912178481181,-61.52751987272127
1760681463.3501675,-24.18094215332125,-0.28899692618419026,0.8284383101515925,0.02626749196428346,8.238019457785454,3.9226277913128342,-59.55363601043614
1760681463.3605328,-24.747634144126792,-0.3319646380770585,0.8124187951906041,0.017680100684636258,8.741537618158718,8.27426110999409,-57.11543118803066
1760681463.370092,-25.303275363299214,-0.3714099865308872,0.7965552144001145,0.010861060965966292,9.361524617084864,11.365808995029587,-54.338914845514005
1760681463.3803928,-25.843731659174185,-0.40434469351971797,0.7809766297692627,0.006170199498492086,10.123279058581675,13.021179099610253,-51.35133789495211
1760681463.3905866,-26.36481022228185,-0.4287578184180585,0.7657059010205542,0.0037384326399625915,11.043993677950033,13.188777147757085,-48.26036002953943
1760681463.4003658,-26.862183759860507,-0.4437368321135576,0.7507743959303036,0.0035152455171568514,12.127944826076531,11.949279944277167,-45.13724387086214
1760681463.410552,-27.33122001450098,-0.4494184421918554,0.7363580178122927,0.005345936458247521,13.36209434622435,9.508909374053506,-42.00620716689262
1760681463.420432,-27.766783933943934,-0.4468356176229426,0.7229107617780961,0.009050976638047853,14.713364413924305,6.179856429705622,-38.841573106476325
1760681463.43016,-28.16311171698108,-0.43772648286398874,0.7112679687865819,0.014479723913324957,16.128499786604408,2.350518600003764,-35.57359232678368
1760681463.4403985,-28.513857717759535,-0.42434348811561096,0.7026911812778646,0.02152185938494887,17.5368542860343,-1.5513038034461684,-32.102707935478286
1760681463.4501634,-28.81237959744651,-0.40926526778791156,0.6988315310363447,0.030075516934074936,18.8558445629084,-5.098904056155143,-28.320658777960766
1760681463.4601223,-29.052261732892404,-0.39518784915842875,0.7015975306153985,0.03998408193399495,19.99835809717296,-7.907303415428822,-24.135385595561864
1760681463.4701679,-29.228003504070998,-0.38466954225183736,0.7129250696776276,0.0509603187268178,20.88115678622467,-9.67017094009923,-19.49556570391158
1760681463.4801788,-29.335743744281018,-0.3798262220116048,0.7344634386028714,0.06251725792967197,21.433290807373663,-10.189009075693894,-14.410124072445234
1760681463.4903555,-29.373872663980517,-0.38200930758021306,0.7672117286213825,0.07392298420453317,21.6036881329808,-9.390927452908475,-8.958506736132332
1760681463.5004344,-29.343401093623683,-0.3915305247808976,0.8111618061343326,0.08419333363913906,21.36732316092671,-7.33242056444439,-3.288885099749532
1760681463.510732,-29.248006175035627,-0.40751162467068924,0.8650209140153727,0.09213235870265978,20.72957732013797,-4.188361716061303,2.396430144229993
1760681463.5205336,-29.093738953944847,-0.42792625903481557,0.9260916761516679,0.09642393244698647,19.728501457106074,-0.22763322559407426,7.86664356560902
1760681463.530661,-28.88844561571794,-0.44986474542803606,0.9903742815198228,0.09576876426067209,18.434670766517172,4.221026106857087,12.895190907427859
1760681463.5401597,-28.641002598838135,-0.469998000369919,1.0529230693303808,0.08905038155297497,16.948259607367316,8.807805569166948,17.29390021762968
1760681463.550354,-28.360484608776996,-0.48515944843377745,1.108440165503,0.07550356306201686,15.392959415768505,13.199564851443215,20.942458894224494
1760681463.5603578,-28.055374639334143,-0.49292159804235286,1.152028518669067,0.05485381341457262,13.906510783038078,17.11152064461563,23.807755596572576
1760681463.5704098,-27.73289889683694,-0.4920332501128096,1.1799671953726762,0.02740125326632012,12.627976699227998,20.329457431108537,25.949468472942435
1760681463.580135,-27.398540618256327,-0.48261164533026724,1.1903331620167772,-0.005964691348675553,11.682465502279854,22.721059092065484,27.510812776618494
1760681463.5901058,-27.05576229161401,-0.4660456479765483,1.1833022557090622,-0.043820480048572995,11.164815594772525,24.236856481984507,28.696097225497777
1760681463.6004224,-26.705947254531658,-0.4446429528173251,1.1610348081853048,-0.08432778606365984,11.124710754312424,24.902673205026,29.73903830051152
1760681463.610429,-26.348558158921517,-0.4211218646795966,1.1271743743273854,-0.12540862661436733,11.556501387636214,24.806133139366697,30.867168826282857
1760681463.6203654,-25.981497414363744,-0.3980837003822265,1.0861110269192544,-0.1649624631846897,12.397054416545737,24.07976783152687,32.2680117573643
1760681463.6308155,-25.601636694627665,-0.37759187056138643,1.0422251020111704,-0.2011011451922488,13.533684279973558,22.882760150712716,34.062126716870324
1760681463.6403685,-25.20545577663959,-0.3609326186426646,0.999305023661591,-0.23236615246255865,14.821704554870356,21.382787556875446,36.286934254916986
1760681463.6503613,-24.789702241459377,-0.3485642519582466,0.9602415449566838,-0.2578860310605851,16.108253779051786,19.739110030435427,38.8935774556803
1760681463.6601813,-24.351966819577935,-0.3402075039575501,0.9269881752953139,-0.2774367555275521,17.25697897146256,18.088025161005007,41.757109562698275
1760681463.6706145,-23.891076072279727,-0.3350086939299292,0.9006933302170927,-0.2913872786558186,18.16776730600436,16.53190412216163,44.698167951166816
1760681463.680465,-23.407237223485,-0.3317183786990433,0.8818824318229793,-0.30054230385250325,18.787177027830175,15.133012261386636,47.51234161966164
1760681463.6901252,-22.901921432826537,-0.32885542805827017,0.8705967370341484,-0.3059232799572783,19.107991499382262,13.913052217363239,50.0021073910262
1760681463.7003725,-22.377526951240917,-0.32485250957819367,0.8664555152508521,-0.308545018500164,19.15936833455226,12.858756640073516,52.00588071899455
1760681463.7101464,-21.836907691968666,-0.31819430070505694,0.8686664379812,-0.3092423922762005,18.991315120048654,11.932920067828624,53.4195249895267
1760681463.7203653,-21.28287642850116,-0.3075627659964863,0.8760400722117696,-0.30858076403474727,18.658085634854192,11.089183112469092,54.20736307832083
1760681463.7304955,-20.717791847589737,-0.29199578678397486,0.8870593790635516,-0.3068545451408118,18.20455865456136,10.287980898763974,54.40186221038285
1760681463.7404177,-20.143316108092314,-0.2710489074370276,0.9000231111057765,-0.3041530071797469,17.658170673634505,9.510636589966513,54.09321011708958
1760681463.7504082,-19.560389123175977,-0.24493163443244037,0.9132429257979379,-0.3004596064673287,17.02712385118704,8.768778057758494,53.4115745032651
1760681463.7606096,-18.969416316918917,-0.21457986810032526,0.9252476222218156,-0.2957516535303904,16.303935208104612,8.107070661010793,52.505707333069886
1760681463.770425,-18.370620023901672,-0.18163190948223873,0.9349441968439844,-0.29007649981574407,15.472311899506536,7.598525234916426,51.521654513501645
1760681463.7803993,-17.764472435375893,-0.14829496348749652,0.9417015491235408,-0.28359231087651554,14.514987225606863,7.3330813709064975,50.58474129873408
1760681463.7903714,-17.152116649404814,-0.1171127810933442,0.9453472216227389,-0.2765717678337304,13.420475278279993,7.401480429972484,49.786921852098885
1760681463.8003817,-16.53569191728904,-0.09066485786604357,0.9460892585649292,-0.2693745849446525,12.187466368547378,7.877374533599085,49.18028738953378
1760681463.81088,-15.9185045166099,-0.07124096061790663,0.9443890277317789,-0.26239996334243443,10.826470521055242,8.800977651871639,48.77632366511017
1760681463.820376,-15.305019190244517,-0.06054151519226409,0.9408167492381113,-0.2560330349308038,9.359042804268404,10.167262400770255,48.54964608414398
1760681463.8303678,-14.700679269087049,-0.05945233536788664,0.9359205122751847,-0.25059919354986393,7.815348314472042,11.920814471358243,48.444563748811674
1760681463.8404639,-14.111589095236182,-0.0679288662057706,0.930132403453977,-0.24633635933964482,6.230937687367184,13.95821441195303,48.382944426916914
1760681463.850372,-13.544106270856014,-0.08500284958492187,0.9237240324998125,-0.24338858622077753,4.643478067776378,16.137523588858603,48.272347117609584
1760681463.860736,-13.004393555571971,-0.1089004508811254,0.9168117718125712,-0.24181760732776564,3.0899320422494063,18.293352363293025,48.014025885034194
1760681463.870591,-12.497973994763075,-0.1372435920403329,0.9094023699463122,-0.24162457470717275,1.6044155696849527,20.25523135015034,47.51092010428999
1760681463.880543,-12.02932378944156,-0.16730062295023818,0.9014633772271542,-0.24277317094699882,0.21676723261879058,21.86665733612516,46.675924162834114
1760681463.890494,-11.601531626156953,-0.19625749114807275,0.8930000583645846,-0.2452064676296323,-1.048269835824761,23.00225131317299,45.44050564672192
1760681463.9001749,-11.216052459528765,-0.22148837572566032,0.8841208374107881,-0.2488523465583988,-2.171438228818257,23.58089702341446,43.76322220838498
1760681463.9103901,-10.872583545971604,-0.24080680913315147,0.8750762835932653,-0.25361561930532234,-3.1391552704592502,23.573417644656324,41.63712375324129
1760681463.920357,-10.569084111286895,-0.2526738358844809,0.8662618291243211,-0.2593587956585117,-3.9436988977858194,23.00416902861596,39.094702172806805
1760681463.9305468,-10.301944496712064,-0.2563361535114299,0.85818186331575,-0.26587716173579684,-4.583476968371984,21.94677509960615,36.209144692413375
1760681463.940287,-10.066289573656533,-0.2518726480040408,0.8513819953349153,-0.2728768811730773,-5.063305722389838,20.515007158137454,33.09114601283183
1760681463.9501994,-9.856382394768586,-0.2401439626222313,0.8463648304364808,-0.2799664473526306,-5.394498813417786,18.850392063249693,29.881255952664635
1760681463.9603148,-9.66608334440206,-0.22265986148745837,0.8435097122671937,-0.2866710217661113,-5.594569953077474,17.108406602599846,26.738458830526284
1760681463.9702783,-9.489316775349447,-0.20139276650435226,0.8430170069036345,-0.2924753277942645,-5.686493154913517,15.445029133106413,23.826261650738477
1760681463.9801779,-9.320496102111298,-0.17856758884059118,0.8448924308421011,-0.29689366900959463,-5.697654505178639,14.005026554211671,21.297966458566595
1760681463.9903915,-9.15485728198562,-0.15645108274001407,0.8489773618451872,-0.2995565807576071,-5.658737247954581,12.912785380550874,19.282974576751865
1760681464.0003655,-8.988654641415422,-0.1371558668649821,0.8550192724945748,-0.3002961718676861,-5.602730801053182,12.265912328160267,17.875830668382964
1760681464.0104249,-8.819190351389091,-0.12246991178742271,0.8627661012272879,-0.29920999369175366,-5.564075525540198,12.131363372520372,17.129212271464745
1760681464.0205605,-8.644681723135346,-0.11372121693667252,0.8720629287897659,-0.29668653630669123,-5.577766129211774,12.543566915789322,17.05130034688688
1760681464.0302155,-8.464010615279262,-0.11168615034074604,0.8829298907072165,-0.2933814403751206,-5.678157409016658,13.503884768042031,17.607162120517707
1760681464.0403695,-8.276431645121228,-0.11654580899208641,0.8956051703149829,-0.29013998423182125,-5.897292909437376,14.98079636493229,18.723185135795998
1760681464.0503678,-8.081325833421966,-0.12788732210019543,0.9105433461925263,-0.28786848440024526,-6.2627689330621985,16.910407122952197,20.293369879893028
1760681464.060421,-7.878066573610817,-0.1447387683808958,0.9283655840230146,-0.28736592611427,-6.7953623042385525,19.197267755939368,22.18643832292701
1760681464.070524,-7.6660220528466345,-0.16562289566648336,0.9497640795410717,-0.2891369023590298,-7.506801777660826,21.715975365046628,24.253138817471875
1760681464.0804577,-7.444671680936987,-0.18862092752932247,0.9753694225318402,-0.29321554062741045,-8.398104107557929,24.314450176163742,26.333611343527483
1760681464.090422,-7.213783569197783,-0.21145161402215773,1.0055967329211908,-0.29903550523722955,-9.458832523920888,26.819953778903354,28.26499091801877
1760681464.1002378,-6.973593703505705,-0.23158358665127318,1.0404937386316735,-0.30538233132375997,-10.667505052823849,29.048707355631283,29.889442815864204
1760681464.1104634,-6.724940366182019,-0.24640209987222664,1.0796182122706668,-0.3104595155299311,-11.993224133548619,30.819372922822463,31.062576333531254
1760681464.1201897,-6.469330160623784,-0.2534416121775049,1.1219697491714247,-0.31208596463355887,-13.398442556654604,31.96977345030208,31.661824545463563
1760681464.1304321,-6.208936841675428,-0.2506765398610202,1.165991582172129,-0.30801815612580735,-14.84262726679237,32.375207276406485,31.59407016678507
1760681464.1401706,-5.9465547139461075,-0.23683927352326906,1.209645842714969,-0.29635892013350285,-16.286427263041887,31.96576732509521,30.801659952110896
1760681464.150437,-5.685538846929456,-0.21171299648203595,1.2505548506022075,-0.2759841281367043,-17.695799687550192,30.7394601540503,29.26603095640528
1760681464.1602142,-5.429761575201672,-0.17633366559287894,1.2861935148693322,-0.24689853373631027,-19.045426118240375,28.767882611556406,27.008427316415876
1760681464.170169,-5.183600626547869,-0.1330379505939542,1.3141130971292196,-0.2104302480028772,-20.320715991880398,26.191929721870896,24.087489536686515
1760681464.1803756,-4.95195540560597,-0.08531680850706042,1.332173489715999,-0.169193953659203,-21.517811837179327,23.20651365116104,20.593726246663266
1760681464.1903486,-4.740272385885744,-0.03747523622101829,1.3387596334975695,-0.1267961094894835,-22.641302797763885,20.03539789994395,16.64101178975616
1760681464.2003882,-4.5545533631797674,0.005854389987637546,1.3329574074395185,-0.08731415620131182,-23.699772835872277,16.899572386474304,12.355392622334533
1760681464.2105072,-4.401321965327925,0.04026238924251111,1.3146652821604063,-0.05463981921979055,-24.699782646058306,13.984492974138922,7.861758453137126
1760681464.2201803,-4.287531437579075,0.062081550068392416,1.2846228034470746,-0.03181487611534389,-25.639341842036416,11.412316460566831,3.26938291158662
1760681464.2303333,-4.220407095720184,0.06879876282219591,1.24434881235127,-0.020495596792134748,-26.50229418730896,9.224546611615272,-1.3421061036240447
1760681464.2405546,-4.207228139702819,0.05931206180202352,1.195999488273486,-0.02066004326787067,-27.255192547581398,7.378358842440617,-5.934261350280934
1760681464.2506783,-4.255064589065943,0.03401842577754535,1.142171392476455,-0.03062578208048731,-27.848031972442854,5.756923728095346,-10.516559350462071
1760681464.260162,-4.370493440366785,-0.005258835576846695,1.0856811275556417,-0.047381170112376,-28.219545444321025,4.191173435163514,-15.146293355423737
1760681464.2702131,-4.559319473281093,-0.05547953591283042,1.0293504738800434,-0.06716305622209588,-28.306701605894915,2.4884049233760592,-19.920301680616767
1760681464.2802656,-4.826317415134476,-0.11270111863841627,0.9758175142833818,-0.08615532625843078,-28.056810802668576,0.46234279211281737,-24.958341274129786
1760681464.2905397,-5.174996496029109,-0.17246420082040476,0.927383559404468,-0.10115487165017609,-27.43962449986362,-2.0401226839420885,-30.379292449595685
1760681464.3003592,-5.6073754850496575,-0.23021778240805799,0.8858946965641641,-0.11006547775894922,-26.456427528148208,-5.118692616076006,-36.272920735222364
1760681464.3103116,-6.123754911956619,-0.2817547243590163,0.8526493406247042,-0.11213167981277414,-25.143641182105977,-8.807175212944284,-42.671412570908934
1760681464.3208938,-6.722483955763721,-0.3236232012739652,0.8283251952144591,-0.10789384716316633,-23.569776762911605,-13.068631537911092,-49.525887172888176
1760681464.33036,-7.39973755994664,-0.35347011621270497,0.8129318368398567,-0.09890844583765925,-21.82623365357393,-17.797546921176206,-56.693067535277976
1760681464.340585,-8.14934064714982,-0.37026793749031434,0.8058098123446347,-0.08731884027412705,-20.01385741062104,-22.828596673833765,-63.936073249713644
1760681464.3503842,-8.962696048114044,-0.37438416172024674,0.8057007325329631,-0.07537858810229763,-18.227987171314048,-27.951711323600342,-70.94109842530479
1760681464.3603263,-9.82888195746751,-0.3674713747193941,0.8109001739319767,-0.06502247426368092,-16.54483196278533,-32.932735818502564,-77.34903230203493
1760681464.370483,-10.734974628655022,-0.3521810795942682,0.8194821289102836,-0.057555036438036264,-15.01154588890961,-37.53805837239622,-82.79837208039498
1760681464.3803606,-11.666620645644878,-0.33173243218882736,0.8295604868655579,-0.05349101446588562,-13.641558499057261,-41.56057060666308,-86.97348357069535
1760681464.3901746,-12.608836146036795,-0.30939414022051187,0.8395377546599179,-0.05254835936557979,-12.415768191465277,-44.843567313769235,-89.65073340857005
1760681464.4006622,-13.546958814124395,-0.28795939413283317,0.8482892106588776,-0.053770715254573616,-11.289218059305146,-47.29883570345297,-90.73460746342795
1760681464.4105537,-14.467636456171176,-0.26930501710243404,0.855244455316145,-0.05574458814965588,-10.20189772708532,-48.91531998809826,-90.27698887214967
1760681464.4207516,-15.359717325039906,-0.2541227399510072,0.8603550394249485,-0.0568721169168296,-9.091512229002268,-49.755617427018464,-88.47538777806082
1760681464.4303288,-16.214919761949336,-0.24188872360686559,0.8639670129876651,-0.055657385080639464,-7.905697086957508,-49.93940018785269,-85.6496583759915
1760681464.4403389,-17.028199088050687,-0.23109583893557867,0.8666390443458116,-0.05096212604853886,-6.611408681783759,-49.61553836871053,-82.2007026618402
1760681464.4504468,-17.79778541350737,-0.2197175660435201,0.8689532568156508,-0.04219104557094818,-5.199996211217243,-48.92756765940051,-78.5579027314084
1760681464.460662,-18.52492147084637,-0.20581639941852842,0.8713580867653125,-0.029381261105290747,-3.6874944939394503,-47.97925538776839,-75.12391418561772
1760681464.47041,-19.2133717943328,-0.18816882325620163,0.8740663232170869,-0.01319042235979425,-2.1106751185043313,-46.80762291267523,-72.22567163212729
1760681464.4804573,-19.868795657085045,-0.16676415207722253,0.8770140917593201,0.005203686612672285,-0.520130904934682,-45.36967005477096,-70.07895603015821
1760681464.490635,-20.498074119683114,-0.1430512182474971,0.8798738182990354,0.024267604553561313,1.0279936317760763,-43.546525476918404,-68.77100508448149
1760681464.5004492,-21.10866089004057,-0.11985531507182887,0.882108926303709,0.04231154174447771,2.480092413404294,-41.16539552297989,-68.26215383512569
1760681464.5105908,-21.707997509094497,-0.10096074232140652,0.8830579872836807,0.05769468066755303,3.791856893229139,-38.03616376678578,-68.40420670750761
1760681464.5204468,-22.303007268348033,-0.09043548017504423,0.8820360642345128,0.06901055075026215,4.933051038870365,-33.996482925096274,-68.97079206046041
1760681464.5305963,-22.899667223061616,-0.09184197593582691,0.8784382635070083,0.0752314313513391,5.890104630462464,-28.95730703975513,-69.69365992002515
1760681464.540651,-23.502654957759052,-0.10751120202560639,0.8718275161963499,0.07579709939114454,6.666667307963279,-22.940403382177255,-70.29880616274733
1760681464.550624,-24.115071532720115,-0.1380442048774094,0.8619900403575046,0.0706414653130991,7.282492484702279,-16.100510995596867,-70.53729021795442
1760681464.560228,-24.738246634942,-0.1821475360251599,0.8489495500238703,0.060161438473428336,7.771147040643324,-8.727284012624112,-70.20735161439768
1760681464.5704446,-25.37163002657029,-0.23682121899573863,0.8329424301677942,0.04514511327644046,8.177050349535586,-1.2256058977269337,-69.16648944955203
1760681464.5806093,-26.012763283497552,-0.29782730689132014,0.8143667140572154,0.026686607782251272,8.552213510727185,5.923295261657201,-67.33406495266455
1760681464.5904293,-26.657312224543848,-0.360305422251281,0.7937251819983224,0.006114881864682889,8.95282192906952,12.21408298340286,-64.68633742965704
1760681464.6003723,-27.299132869665236,-0.4193903629636578,0.7715856400289316,-0.01505099056314672,9.435599384950605,17.174943465567463,-61.246491243183705
1760681464.6104097,-27.930351367638764,-0.470724270856579,0.748577494194443,-0.03513172545926374,10.053823499799229,20.4223645952802,-57.07224743581121
1760681464.6203632,-28.541463372539525,-0.5108190743166984,0.7254322557048625,-0.052333990225816585,10.852969603140398,21.706155707500844,-52.243319115641846
1760681464.630405,-29.121493113887638,-0.5372832344290388,0.7030594047590055,-0.06484663094899144,11.866193352053886,20.940039801420987,-46.850493255716906
1760681464.6403515,-29.658281253524894,-0.5489561546190588,0.682634172243674,-0.07100385892811854,13.110104686488652,18.21548086988503,-40.98761666630316
1760681464.650314,-30.138975564926557,-0.5459861391131509,0.6656655596292657,-0.06950215925526045,14.581396187730274,13.798274545997893,-34.747232013418774
1760681464.6602473,-30.5507669779751,-0.5298549127961167,0.6540124678982886,-0.05962742746410941,16.254794274009146,8.10864550263983,-28.2199922358057
1760681464.670413,-30.88184736695732,-0.5033173270333368,0.6498213496392533,-0.04143344865937065,18.082562885522037,1.6863709095971657,-21.49725668207354
1760681464.68042,-31.122485239918973,-0.4702109368748319,0.6553687950088808,-0.01582119830361528,19.99555227622054,-4.856752957008157,-14.675557971460037
1760681464.6904233,-31.26605343434475,-0.4351046040639855,0.6728063019783287,0.015503039802498451,21.90566679654209,-10.893584402206093,-7.861150996247031
1760681464.7004175,-31.309825147117813,-0.40279078637905186,0.703821337577497,0.050178452173756466,23.709659166282805,-15.842364655615285,-1.172780826745496
1760681464.7101734,-31.25538698189541,-0.37766840044377076,0.7492474156069898,0.08541279329526218,25.294314074857787,-19.224989691190014,5.258868441879836
1760681464.7203732,-31.10858636975974,-0.36309998729943804,0.8086750899430711,0.11823469827845565,26.543274159421568,-20.715715275691768,11.295970372301282
1760681464.7304196,-30.87901293925591,-0.36085101014965143,0.8801339575601652,0.14574077532063945,27.345838552073154,-20.173823490391392,16.80274077824606
1760681464.7404432,-30.579087980972993,-0.37072597291450177,0.9599294246052847,0.1653184494320271,27.607870227906943,-17.65563997072555,21.65828814497233
1760681464.7504141,-30.2228898410607,-0.3905026490024976,1.0427202873312986,0.17483872825022256,27.264413101438723,-13.404071363687153,25.771552031404365
1760681464.7605612,-29.824872099936382,-0.4162289609565748,1.12190523188051,0.17281786554376696,26.29281585025202,-7.8170534823077045,29.095988240084303
1760681464.7703977,-29.39863752346398,-0.4428831919025919,1.1903400079180624,0.15854242660024484,24.724278230009343,-1.3993607135954045,31.64111887648119
1760681464.7806253,-28.955915732199195,-0.46530892995959366,1.2413290302410869,0.1321444262436028,22.65103166865309,5.295443899308333,33.47797893479824
1760681464.7904987,-28.505856436755515,-0.4792399210993088,1.2697350286726594,0.09461177286754198,20.226128805534994,11.724915088025885,34.73611104995803
1760681464.8005433,-28.054695481055035,-0.4821655758978601,1.2729596226793878,0.047729377626935396,17.653364507555068,17.41153792909035,35.59119241696809
1760681464.8104556,-27.605787358352913,-0.4737979537071204,1.2515177136880096,-0.006039292230386512,15.166445810636965,21.983834119036437,36.24441875126671
1760681464.8210092,-27.159940948686923,-0.45600258167512864,1.2090030796061892,-0.06371656838908038,12.99914323390498,25.2005756143567,36.89682950937455
1760681464.830165,-26.7159599834124,-0.43221943875077373,1.1514157743697653,-0.12201808106587315,11.35121137673858,26.95696935735254,37.72306491446475
1760681464.8401983,-26.27128247678623,-0.4065594140416082,1.086024787471271,-0.17761077691863858,10.357211386973331,27.27466054439406,38.849110402468085
1760681464.850216,-25.82262805441809,-0.3828455999178173,1.020079085353423,-0.22741917036053275,10.065732350682516,26.27960556804681,40.33751206068686
1760681464.8603745,-25.36658528858849,-0.3638485720001164,0.9596998653342208,-0.2689480696965781,10.434303298433058,24.172880330170823,42.181893386289964
1760681464.8703563,-24.900091691834604,-0.3508661360695838,0.9091920661300588,-0.30056120211546844,11.34113647618215,21.19939722115589,44.3109690428791
1760681464.880515,-24.4207740252498,-0.3436760992941498,0.8708546695840141,-0.32164878789686896,12.610315577608842,17.618711032276504,46.600963149729196
1760681464.8903263,-23.92713010387051,-0.3407940386686787,0.8452121938151158,-0.3326391547038581,14.04379544917776,13.680994487512836,48.894411608545
1760681464.9005754,-23.418550996195705,-0.33992026404419623,0.8314883679778872,-0.3348495455946256,15.452590887928102,9.610049849734066,51.022646831405076
1760681464.9106634,-22.895205861995745,-0.3384578007618234,0.8281233134913757,-0.3302127132158497,16.680833107623574,5.593938036701791,52.82881126354142
1760681464.9204924,-22.357834999749628,-0.3340050507485101,0.8331881840791941,-0.32094446854262737,17.619205569876385,1.7825320167463556,54.18815890176757
1760681464.9304452,-21.807510125808935,-0.3247516052200488,0.8446397258807227,-0.3092247007512358,18.207491135576845,-1.7097342052194706,55.022842552139295
1760681464.9404647,-21.24541787422188,-0.3097272961098351,0.8604383580715255,-0.2969495488983643,18.42853370657328,-4.798165513863036,55.309357110640974
1760681464.9503157,-20.672705612837866,-0.2888804175027883,0.8785969770172735,-0.2855830894988723,18.297276924033053,-7.421280392053943,55.07809457312276
1760681464.9602664,-20.09040787782115,-0.2629960302495019,0.8972268081261493,-0.27610665694703584,17.848645038998605,-9.5350038015315,54.405722156997335
1760681464.9704838,-19.49945563045915,-0.23349952681226466,0.9146152074491949,-0.2690438309826417,17.127170256705455,-11.108416626599233,53.40206317308585
1760681464.9806826,-18.90076017273325,-0.2022068587956256,0.9293319309374111,-0.26453183229451493,16.17990533007961,-12.121339312541672,52.193761205002545
1760681464.9905689,-18.295355122703874,-0.1710750334858845,0.9403351234789198,-0.26241231466473597,15.052792600457886,-12.563673525865537,50.90725069741917
1760681465.0001526,-17.684571602494568,-0.14198618396757265,0.9470440691750535,-0.2623225358938471,13.789691130970308,-12.436202312048195,49.653435091198
1760681465.0102162,-17.070216273599257,-0.11658098159678208,0.9493577632709415,-0.2637779391183209,12.432850406424185,-11.752367629129523,48.51599079422776
1760681465.0205796,-16.454722258779935,-0.09614743766947574,0.9476157010531331,-0.26624472282987566,11.023671137612565,-10.540383030150686,47.54446121760001
1760681465.030708,-15.841249074701949,-0.08156508181647243,0.9425110796353775,-0.26920297153569045,9.602904829452935,-8.844951800669067,46.752448231159946
1760681465.0404983,-15.233715019604409,-0.07329709994068424,0.9349735544079348,-0.2721984859672466,8.209837826484856,-6.727913861715997,46.120429879674056
1760681465.0504289,-14.636748658233163,-0.07141372409338326,0.9260396157220125,-0.27487858416584837,6.880393559868759,-4.267343851015933,45.60218509247715
1760681465.0606318,-14.055544537151398,-0.07562414609128455,0.9167261532889802,-0.2770072423980687,5.644440137557506,-1.554893152948421,45.13357306845474
1760681465.0703971,-13.49560850730395,-0.08529851862808276,0.9079195600723301,-0.27845874146275634,4.52287815093772,1.3085920052604354,44.64246265624417
1760681465.0806408,-12.962388404392945,-0.09947752780459052,0.9002902419680175,-0.2791945703833512,3.525241881436846,4.21898099964668,44.058794875598366
1760681465.090416,-12.46080906468135,-0.11688673381043625,0.8942402259919198,-0.27923279461940076,2.6485143307053325,7.075968746251667,43.323945254840424
1760681465.1006281,-11.994760896358768,-0.1359841997262901,0.8898883850279379,-0.27862058446862537,1.8776204469158542,9.790879158597184,42.398672153594724
1760681465.1103818,-11.566616706839921,-0.1550647896749105,0.8870934083223236,-0.2774190037420379,1.1876770664679306,12.294423880808878,41.26901566878769
1760681465.120282,-11.176860750728206,-0.17242519525765265,0.8855106211383363,-0.27570508610797034,0.5476524636667848,14.543448326850982,39.949599622928034
1760681465.1306467,-10.823902853047992,-0.18657132865347886,0.8846762357486223,-0.2735902120160988,-0.07524758871585456,16.525556233580982,38.48392309652931
1760681465.1404545,-10.504123342354898,-0.19643400038994546,0.8841104934731082,-0.27124690239281934,-0.7113000831368531,18.260541657923525,36.94142038782253
1760681465.1505811,-10.212158335244458,-0.20155133795510155,0.8834283978194871,-0.2689309868490856,-1.3848522318660152,19.797845281910043,35.411314377683404
1760681465.1603632,-9.941395149762078,-0.2021756901757335,0.8824446264882532,-0.26698576378755823,-2.112273814866119,21.20979275954908,33.99358057453452
1760681465.170527,-9.684611054903153,-0.19927078115616856,0.8812590897768958,-0.26581966200507945,-2.9014125294244453,22.581060357898437,32.78767151478855
1760681465.1805415,-9.434664690233863,-0.19438361715150804,0.8803108143079122,-0.2658559622601121,-3.752362242972755,23.995476405829205,31.879996481884042
1760681465.1906157,-9.185145556139995,-0.1894012446963392,0.880389631763314,-0.267458687519054,-4.65915057124681,25.521771114248086,31.331445195035744
1760681465.200447,-8.930902707383504,-0.1862269018868826,0.8825982648805546,-0.2708414872472808,-5.611890245858165,27.20018159283087,31.166408387724594
1760681465.2104003,-8.668402169229312,-0.18642690216904526,0.8882625467092773,-0.27596778871321154,-6.5989850120339115,29.03190395006109,31.364728558517008
1760681465.2205744,-8.395894706560279,-0.19090634165820913,0.89879403956108,-0.28245377990811577,-7.609095878147698,30.97325266490485,31.85780025754657
1760681465.2301908,-8.113404425350202,-0.19966917861216524,0.9155158813783082,-0.2894926437485022,-8.632719454253717,32.935990096468636,32.529667125923574
1760681465.240144,-7.822570308880539,-0.21170828607177733,0.939468584630424,-0.2958265375823438,-9.66336549137889,34.79456391748143,33.22349022846195
1760681465.2502048,-7.526385344755394,-0.22505489995320535,0.9712180539773745,-0.2997963816009914,-10.698410144498387,36.39994696454774,33.75323665857771
1760681465.2603984,-7.228880485975422,-0.23699462209206074,1.0106931439336815,-0.29949319517826134,-11.739718548070336,37.59856190846259,33.91989465580444
1760681465.2704427,-6.934793868860882,-0.24443012721236104,1.0570823118298838,-0.29301649836465804,-12.794050391883061,38.25365996708251,33.53099290426105
1760681465.2804205,-6.649253183177668,-0.24434353967636308,1.108814351402635,-0.27881740936853744,-13.873081673956273,38.2658075724373,32.421705308332456
1760681465.2904022,-6.377487227040419,-0.23429061560705292,1.1636344191093853,-0.2560729258826416,-14.992659688687306,37.58905630024616,30.47537429569425
1760681465.3003426,-6.124576831902642,-0.21284991825523192,1.2187660637127022,-0.22501284377881933,-16.17079600638021,36.24000569605282,27.64094676522122
1760681465.3104918,-5.895256408517466,-0.17995593978847388,1.2711305134005053,-0.18711104253910213,-17.42402875150695,34.29814850585007,23.94471630131504
1760681465.3204553,-5.693781798695705,-0.13706445684053073,1.3175855725324437,-0.14506478506254494,-18.7621810840525,31.897271420087318,19.494046039293238
1760681465.3303802,-5.523882473493349,-0.08712492997405091,1.3551530718249247,-0.1025218965685352,-20.182099223611218,29.208960737705276,14.471467829758664
1760681465.3404326,-5.38881164340719,-0.03435948010181957,1.3812211247740132,-0.06357301389262168,-21.661478301275643,26.420286335273776,9.11865343578902
1760681465.3503783,-5.291494213213129,0.01613375350991348,1.3937226476618683,-0.03209112740348787,-23.15419778167674,23.70849451926646,3.7111156531747858
1760681465.3603933,-5.234750716136652,0.058920497067010455,1.3912936802698654,-0.011050825722069554,-24.58859704558912,21.21602842534004,-1.4740022209164507
1760681465.370189,-5.221549768726002,0.08886506980532163,1.3734043703343628,-0.0019748869415059135,-25.869834122681276,19.029340399061155,-6.193239860137371
1760681465.3803942,-5.255219270351124,0.10179259297814848,1.3404430911907732,-0.004631151214039961,-26.88694407390301,17.16466122158921,-10.270321553918821
1760681465.3903747,-5.33953604111205,0.09509327977351102,1.2937315141567698,-0.017048806294749978,-27.52448288748654,15.56313977641551,-13.622508396848433
1760681465.400659,-5.478622891082142,0.0681744693076794,1.2354579445243146,-0.0358568549821484,-27.67772560567411,14.096675140502398,-16.27500618971217
1760681465.4104176,-5.676615880304112,0.022675406526698208,1.1685314238587952,-0.05688232988664399,-27.26938443063979,12.584439920828531,-18.360209973208804
1760681465.4203947,-5.937120501358626,-0.03760895543004383,1.0963729151991182,-0.07589250407897649,-26.264973245054943,10.818596347129144,-20.10088269919321
1760681465.4303448,-6.262542268586469,-0.10710286663282091,1.0226688428981185,-0.08933422362389908,-24.683600662070354,8.596151136193198,-21.77889192218744
1760681465.4405086,-6.653434325229166,-0.17908431803591543,0.9511134073816218,-0.09492289633656077,-22.60139035131566,5.752555485013011,-23.693419062173493
1760681465.4505167,-7.108026768723117,-0.2465010843635,0.8851578698686672,-0.09196604818728557,-20.14597164899177,2.1919058648818552,-26.114379427558955
1760681465.460473,-7.6220695721859935,-0.30285901402109555,0.8277740817012691,-0.08136621883072585,-17.482338448072596,-2.091271916949689,-29.23795981955853
1760681465.4705079,-8.189034927063705,-0.34305218696224593,0.7812386705665263,-0.06532113614229706,-14.79233887093388,-7.002629509544149,-33.15140221071905
1760681465.4804838,-8.800618552291704,-0.3640037871283792,0.7469577803055893,-0.04680442233431943,-12.251503572068764,-12.35322077886518,-37.813167918827716
1760681465.490418,-9.447404230904054,-0.36501487667188676,0.7253677081256203,-0.02894826440035301,-10.007390902347556,-17.879403334816992,-43.05242346630584
1760681465.5002449,-10.119546293298075,-0.3477711481380094,0.7159455714887323,-0.014453969125156034,-8.163069939106897,-23.275085919823926,-48.58877381869194
1760681465.5105412,-10.807373398863888,-0.3160185766902295,0.7173398545721889,-0.005134046195506843,-6.768084356693004,-28.23163797109801,-54.06987996799218
1760681465.5204961,-11.501883576263314,-0.2749694832596806,0.7275962455668855,-0.0016524600882527871,-5.817677931939296,-32.47900989999263,-59.1215511351809
1760681465.5305767,-12.195145198926138,-0.23053094141691677,0.7444299541401443,-0.0034883094301006085,-5.259597282955097,-35.82109613980935,-63.4025547565524
1760681465.5405407,-12.880625898935442,-0.18846058970645835,0.7654921095723926,-0.009109480277870358,-5.006668759163829,-38.15938597937681,-66.65519870550337
1760681465.550408,-13.553451344968595,-0.15356060408822214,0.7885907601901625,-0.016311171793561546,-4.952681297678146,-39.50114617686339,-68.74310814877828
1760681465.560268,-14.210570223885561,-0.12902282490960845,0.8118456586015458,-0.022652183652976284,-4.988902557825924,-39.95108292375123,-69.66968539605222
1760681465.5704024,-14.850789446953241,-0.11602964700639817,0.8337719181947576,-0.025910676567916124,-5.0187745283301295,-39.688056631772994,-69.57420618172623
1760681465.5801709,-15.474651725269155,-0.11368623285131596,0.8532988536228894,-0.02448117655111435,-4.968904068618901,-38.93066191738703,-68.70661179319377
1760681465.590216,-16.08415195000686,-0.11930832568837339,0.8697393977506728,-0.017646449500180152,-4.795255442095267,-37.897172841421416,-67.38582943255213
1760681465.6002676,-16.682319526719436,-0.12902660268518384,0.8827327085280282,-0.005681451174873754,-4.484299302782144,-36.766305469416615,-65.94910590967086
1760681465.6102877,-17.272721436937736,-0.13860834685940174,0.8921836527336567,0.010221564535210748,-4.04962411900202,-35.64526294814942,-64.70100988144996
1760681465.6204424,-17.858957849697916,-0.1443515534927722,0.8982147426244171,0.02818462529057513,-3.5250738589822905,-34.550498741380515,-63.87043041437994
1760681465.630439,-18.444223671370366,-0.14388302994975044,0.9011326419772111,0.04598296773646976,-2.955803516622467,-33.40464722678397,-63.58222979485474
1760681465.640477,-19.03099516124057,-0.13669993188476756,0.9014006066159435,0.06142495341208894,-2.3887604553423962,-32.05042399890631,-63.84747770047916
1760681465.650441,-19.620875385313063,-0.12433949706172838,0.8996051605499572,0.07270228900110756,-1.8640553182487811,-30.27946819077268,-64.57285479376459
1760681465.6604257,-20.21460256081971,-0.1101361860175858,0.8964086132393622,0.07864952289599614,-1.4085148721452638,-27.8716371702227,-65.58646125675165
1760681465.6702778,-20.812196941320448,-0.0986087006642218,0.8924841448417874,0.07887328792829891,-1.0323846354219444,-24.638612256420135,-66.67450245599964
1760681465.6803873,-21.413198897077326,-0.09459171823176744,0.8884343790458668,0.07373923789856651,-0.729610627525845,-20.46502340209136,-67.62161538656288
1760681465.6904306,-22.01693596232883,-0.10227604260344239,0.8846987860114314,0.06423185711897099,-0.4813832993957237,-15.340610852227575,-68.24720907149174
1760681465.7004972,-22.622751822044023,-0.1243399706649581,0.8814619436014246,0.0517249262498989,-0.2618340540294342,-9.378086140367737,-68.4312008330028
1760681465.7105575,-23.230137892899187,-0.1613420754794995,0.8785820106863748,0.03771463878007315,-0.04421102339836607,-2.813232060872136,-68.12483283121091
1760681465.7204025,-23.838729731988845,-0.21150158237292968,0.8755619686774126,0.023569681901892445,0.1942374951704377,4.013709073903674,-67.34545935144007
1760681465.7304788,-24.448162397780433,-0.27092004150279614,0.8715821430716338,0.010342990775998007,0.46999786442740693,10.693381670012254,-66.15759322198333
1760681465.7404702,-25.057811490845914,-0.3342071272933796,0.8656018313212411,-0.0013265704307623566,0.7940810681896925,16.794483812796546,-64.6452520368314
1760681465.7504063,-25.666469038272314,-0.39538324841965744,0.8565232863371208,-0.011211734562164266,1.1752346556169038,21.915487548037234,-62.88211408621899
1760681465.7604337,-26.272010027318682,-0.44886671507425224,0.8433967573534858,-0.019399090719686807,1.6240629125394594,25.73252852929216,-60.90596235349677
1760681465.7703016,-26.87109880147634,-0.4903358746475063,0.8256353808567845,-0.02611817220221842,2.156185496181828,28.03568443824459,-58.70257729535918
1760681465.7804368,-27.458972717132045,-0.5172967548439096,0.8032063274683783,-0.03153625915793223,2.7928671767095747,28.748231565569863,-56.202119792802094
1760681465.7904112,-28.029330940933924,-0.5292720868858958,0.7767686654790347,-0.03557120619648038,3.55838483468833,27.927079005435232,-53.28864335279804
1760681465.8005567,-28.57435171594645,-0.5276258069510221,0.7477353471800069,-0.037778040029386194,4.474452753254238,25.74642980666963,-49.82108080084768
1760681465.8105195,-29.084859599799,-0.5151139034263065,0.7182443202234353,-0.03735238280972115,5.552963829998485,22.46970103819843,-45.66212219782852
1760681465.8204274,-29.550661002546597,-0.49529084546707014,0.691032270792838,-0.03326441819326007,6.788879304364706,18.41611670613649,-40.71004289170793
1760681465.8304026,-29.961058561294095,-0.47190306787998615,0.6692144577748921,-0.024499259118696347,8.155199304878645,13.928071821015676,-34.9279468158179
1760681465.8405082,-30.305540271006727,-0.44837666828899264,0.655984827496298,-0.01034757220701772,9.60156114527488,9.34377961916148,-28.365179944255274
1760681465.8504372,-30.574616609910475,-0.4274663010837461,0.6542610967637116,0.009322834770822954,11.057231540168265,4.977498459593139,-21.166804355132758
1760681465.8605022,-30.760748865961688,-0.41108805392534775,0.6663089282765344,0.03387461039219103,12.438281490079941,1.1073846003528804,-13.568811181751844
1760681465.8704305,-30.859276927586375,-0.4003187783647003,0.6933862877833268,0.06182461504602405,13.657816043191358,-2.0308268639427522,-5.8789186130609385
1760681465.8804548,-30.869218813105807,-0.39551049257539006,0.7354522404018008,0.09089674851993576,14.637500496267815,-4.247235715014213,1.5549634706409565
1760681465.8904185,-30.79378624435764,-0.39644774376047814,0.7909847992729662,0.11819964769420795,15.31841984157994,-5.401393966636989,8.384576068898435
1760681465.9004729,-30.640458553277576,-0.40248066628314333,0.8569520674682282,0.1405133970682483,15.66955602904307,-5.408396478597818,14.304095101038856
1760681465.9101818,-30.42050142389067,-0.4126006539985839,0.9289774787785805,0.154656886873563,15.692747787813934,-4.247987942724001,19.08989395689579
1760681465.9202607,-30.147913756620795,-0.42547410159826266,1.0017248820182711,0.15789006037425363,15.423677604022785,-1.9750434331813729,22.631470650489423
1760681465.9307485,-29.837915296527935,-0.4394863794738097,1.069494095482962,0.14828705190395375,14.9289875535541,1.272193354715551,24.948624303080905
1760681465.940647,-29.505207378710864,-0.4528518265725696,1.1269622531834826,0.12501076265929234,14.299947478343363,5.270752955063289,26.191614232884024
1760681465.9504833,-29.16230524548924,-0.46381285106898157,1.1699433724347283,0.08844024691498113,13.643195243051103,9.722600622414266,26.62335002498403
1760681465.9602249,-28.81823010531748,-0.47089897152925675,1.195994403020138,0.0401444914119735,13.069063851896287,14.277244438378712,26.585415869072264
1760681465.9704525,-28.477769680100593,-0.47317118728923385,1.2047030314911182,-0.01726694066206235,12.678144941133356,18.56577943957419,26.45249952383811
1760681465.9805229,-28.141395900438745,-0.4703623623968207,1.1975675974145603,-0.08037777406471798,12.547259488474637,22.24133464012135,26.581972930727346
1760681465.9905791,-27.805802052209444,-0.462852917975299,1.1775029919393756,-0.14526056875439092,12.716885827249332,25.018663811875474,27.266375606481805
1760681466.0004036,-27.46491794146489,-0.4514838940561611,1.1481267259538346,-0.20782634984858864,13.182849918430358,26.7055521524179,28.696077894320645
1760681466.01062,-27.11119789687493,-0.4372739226245054,1.1130425183245016,-0.26421729942010147,13.895030839594561,27.22070606502471,30.937557959474102
1760681466.0202897,-26.73695720331365,-0.42113833593487304,1.075318240528918,-0.311209413390502,14.764616204788203,26.595937249204088,33.929978625890755
1760681466.0305505,-26.33555281014392,-0.4036964953258134,1.0372631713803968,-0.346565445112322,15.679309200718096,24.96358766603704,37.499715085385276
1760681466.0402822,-25.902254010581878,-0.3852114897086535,1.0004896495052504,-0.36926706947977195,16.523565414359865,22.53246768048869,41.3897260938807
1760681466.0509326,-25.434716294317273,-0.3656567673318694,0.966149168841249,-0.3795716700079261,17.19928539923345,19.556854500608583,45.29859300536812
1760681466.0604613,-24.93304376517199,-0.34486476052044823,0.935197969224288,-0.3788791135922445,17.642070603200587,16.30345837437223,48.922939757127395
1760681466.0702877,-24.39948981568526,-0.3226937610566429,0.9085740013041393,-0.36943984737971797,17.829338280239018,13.020962920533918,51.99692768291201
1760681466.0804858,-23.837892587651524,-0.299154713468978,0.8872306119869471,-0.3539701823419203,17.77885680007383,9.915984141935251,54.323552622516516
1760681466.090449,-23.252967229053795,-0.27446492435515196,0.8720396069690685,-0.33525417962834264,17.53878708295962,7.138167974105433,55.79427328629706
1760681466.1005652,-22.64958286910867,-0.24902931703844333,0.8636224884011275,-0.3158027728421045,17.172288899031617,4.7757181950332726,56.39557615781189
1760681466.1105313,-22.032142620051808,-0.22337732459371315,0.862183003004928,-0.29761572823901317,16.74067870676083,2.861027284478192,56.20295880108963
1760681466.120514,-21.40416291886099,-0.19809491248053332,0.8674001896021744,-0.2820619702514546,16.288926705301726,1.3844665454642495,55.36425971661777
1760681466.1306157,-20.768116294648266,-0.17378525952747242,0.8784110504803634,-0.2698688549444082,15.836222734166935,0.31303866473406866,54.07527460831224
1760681466.1402686,-20.125561405799868,-0.15107312738078107,0.8938800299237294,-0.2611957474509186,15.372879277770288,-0.3902105530440702,52.55121897291118
1760681466.1504796,-19.47753860238038,-0.13064416295767142,0.9121304572613675,-0.2557615900860099,14.863419480465435,-0.7501619048321436,50.99782239967185
1760681466.1605937,-18.825162644738576,-0.11329032797198695,0.9313062920509634,-0.2529975076872457,14.254612372296027,-0.7703185451762626,49.58565679168127
1760681466.1702054,-18.170304354549515,-0.0999256046259197,0.9495377997407621,-0.25220033016877014,13.486579923919795,-0.43208215213354956,48.43072830832996
1760681466.1802645,-17.516229822133567,-0.09154583339386967,0.9650946694268452,-0.2526684052808149,12.504890628558222,0.2974078170632118,47.58345829838918
1760681466.1905859,-16.868065988210002,-0.0891268617722221,0.9765183774375565,-0.25380656307211014,11.271683378829735,1.4507362373718071,47.02703045133006
1760681466.2003434,-16.232984100895493,-0.09347450861280827,0.9827294693154558,-0.255192950706818,9.774228126965234,3.042268428432115,46.6848214118526
1760681466.2106545,-15.620030777871124,-0.10505081662542826,0.983105250734621,-0.25660612543919076,8.029827410158159,5.05082732337588,46.43544997301067
1760681466.2206244,-15.039582638117741,-0.12380472555720078,0.9775220934777252,-0.2580150358958634,6.086508790772856,7.4069638051329045,46.13308585548254
1760681466.2305272,-14.502450749626037,-0.14903643356252894,0.9663574088596516,-0.25953726756940965,4.019491602429369,9.988011210053221,45.63017988183065
1760681466.240261,-14.018714142935048,-0.17932551679774728,0.9504503713540216,-0.26137356118617605,1.9239083456331232,12.622767798410836,44.79969078610931
1760681466.2505212,-13.596414421845273,-0.2125512431846521,0.9310260025510504,-0.26372987494305716,-0.09528623530870386,15.105950847985445,43.554081397894635
1760681466.2605357,-13.24028869283103,-0.24602525667805702,0.9095908692216238,-0.2667408528398031,-1.9349129746231788,17.220777000359764,41.85876461529933
1760681466.2706459,-12.950744092882772,-0.2767389828439426,0.8878081919144079,-0.27040869061363865,-3.505155793893591,18.76646302161272,39.73830421290899
1760681466.280507,-12.723271478593851,-0.30170254918533734,0.8673575856769817,-0.27456879896328,-4.739648393228011,19.586417197196962,37.27454597236323
1760681466.290433,-12.548450763798396,-0.3183267934023689,0.8497844328777178,-0.2788891109632228,-5.602838545882011,19.592595003688967,34.59692305905865
1760681466.3005164,-12.412619197150748,-0.32478510352267437,0.8363477347661816,-0.28290374361749326,-6.093839053335895,18.781956973797172,31.86627648766956
1760681466.3106282,-12.29917000640984,-0.3202921460832406,0.8278810496193922,-0.2860746305272106,-6.246460683686737,17.242105114417942,29.254435924256747
1760681466.3202686,-12.190340018774075,-0.30524936001236513,0.8246859534666405,-0.28786890792772013,-6.125579510623389,15.144806239710142,26.922360438822967
1760681466.3304853,-12.069249145758405,-0.2812272902469396,0.8264791350448408,-0.28783788827776907,-5.820361397506388,12.727975929250402,24.99978467955998
1760681466.340637,-11.921891079356898,-0.2507797012684434,0.8324108427189512,-0.28568590622303075,-5.43511733804666,10.268501196879127,23.56906693787805
1760681466.3506296,-11.7387627336645,-0.21711306021022744,0.8411635221489756,-0.2813224246866356,-5.078691851283737,8.0497398471417,22.65536169026885
1760681466.3604808,-11.51587159979628,-0.1836635397064122,0.8511270973708622,-0.2748961744882779,-4.853323787894728,6.328394429014113,22.22444085055738
1760681466.3703952,-11.254967618674005,-0.15365324303800523,0.8606343043691981,-0.26681324338000373,-4.843920664290011,5.3055203979645755,22.18855230544851
1760681466.3802516,-10.962981879340978,-0.1296996054400439,0.8682277893670487,-0.2577397754260506,-5.108698652808193,5.105622503664038,22.419694309831694
1760681466.3904226,-10.65078535391483,-0.1135367748821097,0.8729218938745127,-0.24858481085076659,-5.67215551600352,5.766263691044781,22.768666026390186
1760681466.400615,-10.331483075345668,-0.10588293618489297,0.8744183527383138,-0.24045384454649438,-6.521307023574842,7.238722560142818,23.08733512138544
1760681466.4105113,-10.018519956142882,-0.10646094633335026,0.8732385184252328,-0.23456338137974675,-7.6059558585894536,9.398452109991455,23.250908437830063
1760681466.420499,-9.723886248267052,-0.11415415412731295,0.8707449154228017,-0.23211231328628712,-8.843426095458168,12.062785474618435,23.176781817045562
1760681466.4305236,-9.456670098807889,-0.12725571328738822,0.8690392069337969,-0.23411501851872213,-10.127690827126406,15.012684606169335,22.83689259676755
1760681466.4403055,-9.222120713242559,-0.14375336880955217,0.8707392368354013,-0.24121064193002886,-11.342213356319316,18.01535716945241,22.261396355255066
1760681466.450593,-9.021283461429732,-0.16159109554177517,0.8786535166921229,-0.2534718220231187,-12.375217664186527,20.845179768470473,21.53280984637802
1760681466.4603517,-8.851177622010972,-0.17886626015077722,0.89538692082587,-0.2702442275371877,-13.13560271683052,23.30134012109732,20.771283042013238
1760681466.4706576,-8.705425909759068,-0.1939478574224334,0.9229254765013053,-0.2900541513981754,-13.56740117820643,25.221620372765607,20.11312583112153
1760681466.4804502,-8.575213041418559,-0.20552591518185417,0.9622590874437161,-0.3106211920568525,-13.660631129789872,26.49245915872647,19.685879729801933
1760681466.4907396,-8.450439549427305,-0.2126165603024332,1.0131050882625077,-0.32900310776316244,-13.456666723592878,27.055647786285952,19.583894186525523
1760681466.5005393,-8.320937786684874,-0.21454960989457075,1.0737874525259983,-0.3418798720985632,-13.046887533069771,26.9117526739542,19.84840184603038
1760681466.5106606,-8.177625416798577,-0.21095885444493553,1.1413037524586702,-0.3459575829644926,-12.56429071111397,26.119860295090188,20.45544414980976
1760681466.520661,-8.013488564457463,-0.20178495461612211,1.2115792009642783,-0.33844683271841325,-12.168795668722893,24.792883041324504,21.31375327776352
1760681466.5305429,-7.824313872910335,-0.1872917460413817,1.2798737457518408,-0.3175504729788988,-12.027928935901496,23.08774152608939,22.27304605656357
1760681466.5411706,-7.60912397119392,-0.16809068503889082,1.3412821039958593,-0.2828848350266054,-12.295272747339029,21.19030650172215,23.141443377806407
1760681466.5502522,-7.370308319602022,-0.14516468960854037,1.39125220108636,-0.23575618272821777,-13.089384108730108,19.29584465772177,23.709255977468818
1760681466.5604832,-7.113474082467028,-0.11987988348901771,1.4260471799345118,-0.17922134992766312,-14.475807605756659,17.586586604673908,23.775439873572395
1760681466.5706544,-6.8470648629088045,-0.09397113523008081,1.4430895589610993,-0.11788203032145458,-16.454373936800113,16.208754492907804,23.172703320317662
1760681466.5807774,-6.581807897383107,-0.06948744136914224,1.4411494810344405,-0.05740014168603835,-18.953328052763645,15.251903618601162,21.787498263968388
1760681466.590504,-6.330054013172794,-0.04868861086404332,1.4203679259146182,-0.003775151117303154,-21.831104472945928,14.733642702639427,19.571889998735056
1760681466.6004028,-6.105070396472565,-0.033892698245947865,1.382135354347611,0.03751801069864551,-24.8858543992371,14.592458093808,16.545502438616797
1760681466.6107447,-5.920334477572367,-0.027278632341176428,1.3288692492484815,0.0623859900018235,-27.872155562328178,14.690296323196419,12.787273451334569
1760681466.6203296,-5.788859637076088,-0.03064947430576712,1.2637435939034005,0.06880485599252166,-30.523678360099435,14.82490559161787,8.418454290108762
1760681466.6302466,-5.722564185760452,-0.04516467163099059,1.1904179315258452,0.05719028052425591,-32.579919098994026,14.750188364153406,3.579908376001721
1760681466.6404743,-5.731680813024832,-0.07106166039205272,1.1127972271869704,0.030355459650263,-33.81446760327698,14.201559263651625,-1.5919995546103398
1760681466.650498,-5.8242014296919775,-0.10740855661281533,1.034832433211589,-0.00695301379490228,-34.06173193409528,12.922952328510597,-6.986090954915313
1760681466.6603534,-6.00536562695622,-0.15195150047320546,0.9603517774637835,-0.0488556548193241,-33.238722767157256,10.692742414895271,-12.529169158571799
1760681466.670491,-6.277226790465684,-0.20112915416500576,0.8929007703940937,-0.08931371457709876,-31.358561178275306,7.347030389487862,-18.187791529695385
1760681466.6807425,-6.638358525249233,-0.2503131036599496,0.8355696031229526,-0.12307704225219805,-28.532987428118826,2.7997219698665954,-23.95810138878125
1760681466.6904476,-7.0837812640540605,-0.29429423662465964,0.7907997120745744,-0.14642220967294242,-24.962448787608846,-2.9410567141155246,-29.8455830044389
1760681466.7005002,-7.605179265262097,-0.32797651050222704,0.760181205620884,-0.1575548199312763,-20.914290207296176,-9.761459073536361,-35.839327856412844
1760681466.7102005,-8.191433018856978,-0.34717396993979166,0.7442727829107918,-0.1566327782061047,-16.69180217311874,-17.437680027482973,-41.88723035241707
1760681466.7204876,-8.829422538164078,-0.34935717761302076,0.7424897034290383,-0.14545233272671193,-12.598772262408527,-25.641914084215443,-47.87877599679837
1760681466.7305298,-9.50499548366704,-0.33418531836928694,0.7531068387822392,-0.1269040767063135,-8.905133492586069,-33.96097786314934,-53.64061598267395
1760681466.7405171,-10.203971215593219,-0.3036977005214756,0.7734082159771645,-0.10433774133365188,-5.818988738664712,-41.928429247616805,-58.94742796040859
1760681466.750527,-10.913070367055791,-0.26210806456790375,0.799983959056897,-0.08096966754184447,-3.468816455043224,-49.0684948972849,-63.54737327452464
1760681466.7603178,-11.620695739094955,-0.21522257992653798,0.8291395726620048,-0.05943188102595188,-1.8975036979969906,-54.94731653414286,-67.19835973728605
1760681466.770368,-12.317519240258848,-0.16956974839684594,0.8573528307691107,-0.041510012567274816,-1.0676483568581414,-59.224709915549205,-69.70873398877056
1760681466.7804794,-12.99684303151695,-0.13137997489400344,0.8816994856023412,-0.028067023250057308,-0.8758475470465756,-61.698463663273465,-70.97444676894146
1760681466.7903202,-13.654709310731844,-0.10558253303869908,0.9001748736933378,-0.019117069190703714,-1.172700859471023,-62.33353143544561,-71.00473254297731
1760681466.8005383,-14.289746504651433,-0.09499579828059704,0.9118620533332457,-0.014003327450176871,-1.7850234030103767,-61.27028132275974,-69.93027038354708
1760681466.8105507,-14.902767757270608,-0.09986595471621926,0.9169302574210809,-0.011636302707014946,-2.5371426604159026,-58.80897199855355,-67.99136928011288
1760681466.8204048,-15.496175651137744,-0.11785340175295084,0.9164795790330031,-0.01075314475173954,-3.268911740576611,-55.37133583241448,-65.50799722846658
1760681466.8304553,-16.073262735439165,-0.14448092437073953,0.9122707663387501,-0.010159702320926813,-3.848965630063065,-51.443959766790194,-62.83725309577209
1760681466.840339,-16.63751958771571,-0.17396462536540974,0.9063904796125911,-0.008919735625878975,-4.182608744202598,-47.51141305161238,-60.326234241969416
1760681466.8503947,-17.192063756603886,-0.20027211369662237,0.9009044129634753,-0.00646533051977031,-4.214480299003871,-43.989150096294885,-58.26872326271656
1760681466.8605094,-17.73928042952736,-0.21820901393030784,0.897545505515621,-0.0026193242688030706,-3.9267596265311004,-41.166654194129464,-56.87271052272859
1760681466.8702588,-18.280721148312697,-0.22433217918800122,0.8974737897838783,0.0024601247041897765,-3.334087750918832,-39.16991083757996,-56.24297077458765
1760681466.880508,-18.817250483260306,-0.21752650635646856,0.9011317633876517,0.008386177406903554,-2.4765502837960125,-37.94925758974689,-56.37959840717172
1760681466.890509,-19.34937725478448,-0.19915305605901387,0.9082080131078386,0.014665525489925698,-1.4120115396878983,-37.29445124102525,-57.190495783844796
1760681466.9002514,-19.877669664448543,-0.17276095389047724,0.9177113788105397,0.020802946173448064,-0.20887110243480947,-36.87425827068113,-58.51387895110514
1760681466.9103072,-20.403139313359517,-0.14343391349661935,0.9281448899070422,0.02636833472051372,1.0600352734974852,-36.29393592765786,-60.14602878629808
1760681466.9205282,-20.927488336496783,-0.11690012903236327,0.9377531026036395,0.03102367728957384,2.322137246309725,-35.16129824235092,-61.869586666727145
1760681466.9304104,-21.45314392039255,-0.09856568245844238,0.9448026086921627,0.03452050702101327,3.5086935438877296,-33.150975864576,-63.478418688328155
1760681466.9402728,-21.983050449476846,-0.09263557621037395,0.9478480120735377,0.03668416639944216,4.5578570837417125,-30.05706427081966,-64.79623622921743
1760681466.9505415,-22.52024410960997,-0.10146532240085795,0.9459376364032532,0.03740089956699265,5.417943759277953,-25.826485438061493,-65.68755754012021
1760681466.9605205,-23.06728671718879,-0.1252443928624984,0.9387257021024353,0.03661851422595287,6.051301485371426,-20.568683890483705,-66.06101010301641
1760681466.9704947,-23.62567090404115,-0.16205592792248774,0.9264778637219635,0.03436176757218163,6.438624639055428,-14.541146033181597,-65.86620784716912
1760681466.9806833,-24.1953161117129,-0.2082894175458266,0.9099781477067854,0.030752886298010373,6.58298057461696,-8.113996636091988,-65.0863084097738
1760681466.9904778,-24.774250905466992,-0.2593130368532651,0.8903617522194429,0.026021600393083023,6.512415299269949,-1.7199951764776416,-63.72870206825676
1760681467.000651,-25.358528946726743,-0.31025776192293425,0.8689089365817716,0.020492407501738707,6.2799200061158,4.201793714394734,-61.816035546721686
1760681467.0105379,-25.942367807972207,-0.35674657381800773,0.846841183752859,0.014548701132061848,5.959835021105726,9.25984953978919,-59.379028362609624
1760681467.021163,-26.518448063395216,-0.39542689383539276,0.8251600177108349,0.008587593586149307,5.640432075159996,13.153811451906883,-56.451565279343384
1760681467.0306287,-27.07828010736819,-0.4242250108645291,0.8045587725036991,0.002987792370032276,5.4133177938883135,15.702557074622643,-53.06770617286457
1760681467.0405395,-27.612549390215417,-0.4423206474599979,0.7854201808470177,-0.001889737720836136,5.3611891753440135,16.85467274836952,-49.259852554154755
1760681467.050306,-28.111388958914308,-0.4499152038598301,0.7678935736842746,-0.005663262972501185,5.54607130730669,16.68244941112745,-45.05745742062393
1760681467.060346,-28.564589066236188,-0.4479142985342952,0.7520297810711696,-0.00787085605438669,6.000284915123869,15.363012300696978,-40.48622488809001
1760681467.0705245,-28.96181398667959,-0.4376485245049393,0.7379420664066357,-0.007925849723803318,6.7219483607222195,13.151477081031562,-35.56840395527846
1760681467.0803275,-29.29292995883015,-0.4207165092877834,0.7259584576076307,-0.005126635465030565,7.675876673223032,10.351012159025553,-30.325162474248465
1760681467.090501,-29.54853507683466,-0.3989670687887941,0.71673383877586,0.0012559285123989582,8.799531576633662,7.283662998441757,-24.781837152509247
1760681467.100473,-29.720718219402027,-0.3745686720061911,0.7112962900174467,0.01181904804967927,10.01255504543164,4.264331134956736,-18.976038470058825
1760681467.1106386,-29.803980130527002,-0.3500726949548999,0.7110085961349784,0.026829732483353807,11.227724628764348,1.5789951162629619,-12.967409563309522
1760681467.120527,-29.79616241990975,-0.32837736215515007,0.717433141036624,0.04603674719322536,12.361108431614367,-0.5325382360931548,-6.846746875402764
1760681467.1305523,-29.69918321492106,-0.31253615892604797,0.7321001250369874,0.06854227968165144,13.339769903464447,-1.889351858371336,-0.7416024410912171
1760681467.1402326,-29.519388134233523,-0.30540963327900084,0.7561975503764268,0.09277135223437147,14.106343366353695,-2.377613929012304,5.184344517856251
1760681467.1504376,-29.26738883672644,-0.30921443382975683,0.7902248529675246,0.11655882639321985,14.620797741129495,-1.9542707153081733,10.739889638272954
1760681467.160777,-28.957357732586395,-0.3250630981854689,0.8336743737293516,0.13735261979464736,14.860402964936977,-0.6464364455392053,15.723033308013846
1760681467.1705344,-28.605846990754568,-0.3526026597741948,0.8848178871762316,0.15250994844184704,14.819155522249787,1.453033745824519,19.944158834790503
1760681467.180274,-28.230278456318736,-0.38984880686630746,0.9406723775535993,0.1596441154431336,14.507711860424722,4.1931447739991725,23.25236532081741
1760681467.1905365,-27.847298270060946,-0.43328195997047375,0.997197331487814,0.1569660400402822,13.954325890823164,7.375054043117156,25.56065725834323
1760681467.2003405,-27.471207547286195,-0.4782287394564105,1.0497352940419395,0.1435594274459079,13.206542853230705,10.764986450208118,26.86545813417561
1760681467.2107272,-27.112672724367314,-0.5194985050449888,1.0936514782859579,0.11953305806222388,12.332642502415736,14.110057439893822,27.25641316576745
1760681467.2205043,-26.7778862515904,-0.5521827860332126,1.125066342320588,0.08601309085613593,11.42125344618236,17.157212079453387,26.91362557685654
1760681467.2305253,-26.468289018916504,-0.5724687388170928,1.1415256618479253,0.044976413170340006,10.57741755625722,19.674744068800692,26.09132388042921
