timestamp,angle,linear_acceleration_x,linear_acceleration_y,linear_acceleration_z,angular_velocity_x,angular_velocity_y,angular_velocity_z
1760597225.5977457,4.862797102132076,0.004796683167139937,0.8182000219382339,-0.1521068862969897,38.47452897278424,-16.57902682294864,-52.09196288409565
1760597225.607748,4.260886087091361,-0.009350934313138125,0.8286204445135819,-0.14151249745384534,41.03782979649415,-12.867890378536268,-55.22974299077408
1760597225.6178174,3.6307059115696885,-0.035364019948433155,0.8438777027130856,-0.1259023197384543,42.507694782436445,-7.510472837088999,-57.79444138252145
1760597225.6277351,2.9785743009020584,-0.06915365452552591,0.864075309697421,-0.10766329871797127,42.78362346553434,-1.2110445529025993,-59.57243401286015
1760597225.6377573,2.3154324206420704,-0.10570485273339514,0.8889545135768012,-0.08920418199327655,41.84642403567704,5.302839785134925,-60.38765454336673
1760597225.647741,1.656161459995824,-0.13975058525006265,0.9177566024556759,-0.07268791573302635,39.75490482920425,11.352214567200958,-60.11825726401246
1760597225.6577528,1.0182827764111892,-0.16648128762959807,0.9491685307010231,-0.059813168957537535,36.640114669725556,16.367264155696894,-58.711111840426966
1760597225.6677547,0.42015891692357693,-0.18219495616427206,0.9813770276329795,-0.05167807041945345,32.69697328060175,19.932247721211997,-56.191771390482444
1760597225.677749,-0.12109669990921063,-0.18479584178509828,1.0122377777567597,-0.04873731865317043,28.17229044586054,21.812026958162114,-52.6676402461762
1760597225.6877947,-0.5917280599005181,-0.17406833915082648,1.0395358775162988,-0.05083931930996192,23.348176850529903,21.958836258807636,-48.32277421437193
1760597225.6977491,-0.9831611742081166,-0.15168081756641738,1.0612815146036036,-0.05731878744175072,18.52073718119512,20.499555835212153,-43.40399640978405
1760597225.7077596,-1.293258251114507,-0.12090849034342786,1.0759695072471585,-0.06712307428636276,13.975328579355804,17.705705543639805,-38.19952948900284
1760597225.7177603,-1.5267755883769583,-0.08610709911003199,1.0827450756572954,-0.07895850632106748,9.961025568502127,13.95038953970601,-33.01274148301333
1760597225.727748,-1.6949086672469598,-0.0520192164965867,1.0814543103440577,-0.09144934819361693,6.6677847466411215,9.657982265932496,-28.13449429316453
1760597225.7377484,-1.8139603824916466,-0.023039642185479617,1.0725962536160965,-0.10330317348923297,4.20987132805653,5.2530021214992,-23.81773858141111
1760597225.7477477,-1.9033386676539923,-0.0025835731944867293,1.0572158982212037,-0.11347112334706455,2.6183630839622603,1.114197657054788,-20.257454647469324
1760597225.757741,-1.9832286581482859,0.0073254308590742796,1.036777439960227,-0.1212825918634802,1.8441502891232056,-2.461476577425415,-17.578039400560925
1760597225.7677605,-2.072338978451183,0.006195328042506616,1.013041178141515,-0.12652789682965077,1.7710739782124754,-5.2822090204106935,-15.829038803817257
1760597225.7777493,-2.1860692745615045,-0.0050440614670147835,0.9879476331852581,-0.1294652911955913,2.2370439641012894,-7.271177820665912,-14.98891314254348
1760597225.7877407,-2.335310913749105,-0.024323020853892707,0.963498997196325,-0.1307414003401639,3.0595684210475302,-8.46369707332474,-14.97547253536636
1760597225.79795,-2.5259297832820837,-0.04879070795653552,0.941625730750718,-0.13123286197162795,4.061455314135873,-8.993578765790563,-15.660892240003388
1760597225.807749,-2.758846017782535,-0.07517182264891514,0.9240342672139573,-0.13183555840600245,5.09264707664767,-9.071237624313003,-16.88890602307016
1760597225.8177338,-3.0305572454798213,-0.10008084665796935,0.9120456181426719,-0.13324191139061348,6.0451255795891194,-8.956291930214961,-18.491878668915447
1760597225.8277328,-3.333953819882647,-0.12029383245357025,0.9064472688953753,-0.1357534289041604,6.859318076229122,-8.927404956557972,-20.30588364479082
1760597225.8377585,-3.6593163152658743,-0.13299881742285496,0.9073862087005207,-0.139171904466595,7.522100539546433,-9.25198449844845,-22.182515728401025
1760597225.8477347,-3.9954245138493447,-0.13604053187028928,0.9143274701214673,-0.14279652437985535,8.057953355463798,-10.15815382696968,-23.996807090102966
1760597225.8577383,-4.330719805022045,-0.12815486330496573,0.9260923743112772,-0.1455293551553799,8.515752881918777,-11.811119985548254,-25.651182547509485
1760597225.8677838,-4.654454051586023,-0.10917021178875769,0.9409775484097505,-0.14606730318328268,8.953928795145321,-14.29568860877772,-27.075829166484446
1760597225.87778,-4.957742868616257,-0.08014324539832275,0.956943382281602,-0.14314263132511099,9.426360164064654,-17.606219083315178,-28.226146067020856
1760597225.8877454,-5.234430219173675,-0.04339410846325224,0.9718516505623053,-0.13576846863403494,9.970674980617815,-21.644800006672696,-29.0780800269945
1760597225.8977745,-5.4816698912072,-0.0024101728878135097,0.9837273507015842,-0.12344826690470707,10.599847937495076,-26.227878164177486,-29.622171051261297
1760597225.9077356,-5.700143661422763,0.038399664611798424,0.9910182851967089,-0.10631668546489294,11.29736895806625,-31.101013027239784,-29.857102304566048
1760597225.9177687,-5.893869903051446,0.07409595264863396,0.9928257034609609,-0.085193118690585,12.015858817530571,-35.960838217643875,-29.783545661933278
1760597225.927742,-6.069607038385138,0.09971402634364872,0.9890792593549055,-0.061546222671833996,12.67881350866499,-40.48266427683663,-29.399131384108607
1760597225.9378412,-6.235912854511434,0.11082896579244528,0.9806300538189913,-0.03738171520632153,13.185113960397956,-44.35149741275876,-28.695372257678056
1760597225.9477499,-6.40196976501631,0.1041100558285521,0.9692381346663245,-0.01506726209138038,13.415974876093284,-47.293703123958274,-27.657199039726606
1760597225.9577453,-6.5763169753631106,0.07778969385170402,0.9574367166410808,0.002902412587798515,13.243996974416781,-49.106199471077424,-26.265301207299494
1760597225.9677653,-6.765638968398474,0.03197688326501668,0.9482655937018512,0.014205510895017783,12.543829259439395,-49.67994128444572,-24.50074877280267
1760597225.9777462,-6.973748573047851,-0.03123939485599268,0.9448833363751254,0.01705384849782921,11.203724032921889,-49.01465110658107,-22.35062112197279
1760597225.9877555,-7.2008788901462895,-0.10792695856040978,0.9500946445738127,0.010577216665090665,9.137142803178808,-47.222439505926566,-19.812898088745595
1760597225.9977515,-7.443366593652103,-0.19268562247364293,0.9658612811121604,-0.0048496472352305845,6.293559811788326,-44.519169474226885,-16.898908944261716
1760597226.0078084,-7.693769551759507,-0.2792235811360563,0.9928862916511145,-0.027442945401994302,2.667601878976114,-41.20398305096068,-13.632233277968878
1760597226.0181165,-7.941411751451839,-0.3610613739013555,1.0303554741776724,-0.05408843842576981,-1.6944024640067619,-37.62906213645125,-10.043949671668232
1760597226.02775,-8.173289199956494,-0.4322588086891948,1.075889882958877,-0.08067560192516308,-6.69150143765536,-34.16315027157585,-6.165245010271732
1760597226.0377803,-8.375210606381222,-0.48804739913456857,1.1257278924248035,-0.10263347303353564,-12.169924312157395,-31.15334251598937,-2.0193285107286445
1760597226.047772,-8.533002878311848,-0.5252683486256426,1.1751265150019075,-0.11557536124356467,-17.93052973374268,-28.88996771423407,2.384896616666718
1760597226.0577722,-8.633604017702654,-0.5425616816965512,1.2189418920913646,-0.11594521546889502,-23.742245029673374,-27.578945916296778,7.0550483678038605
1760597226.0677633,-8.66590659788257,-0.5403076458281612,1.252311143772237,-0.10156076164637248,-29.360927080371003,-27.324828207653123,12.011806077277802
1760597226.0777552,-8.621292302950799,-0.5203674558719326,1.2713240101835002,-0.07196749376075627,-34.55199633466356,-28.12604390067801,17.279577284567182
1760597226.0877619,-8.493879346733028,-0.48569732949931854,1.2735634343477051,-0.028551709913314148,-39.11417919366109,-29.882066549670363,22.8726729873499
1760597226.0977612,-8.280558118407729,-0.43991592140380686,1.2584173912205763,0.025597757220864756,-42.90100708834999,-32.410611329765494,28.779725154494404
1760597226.1077766,-7.980904138852145,-0.3868929939411334,1.2271121538297871,0.08605057105969717,-45.83661343791651,-35.471831518452646,34.94981058179211
1760597226.117758,-7.597038822933373,-0.3304032547519829,1.182474984166028,0.14756189018038843,-47.92296919310219,-38.79594725192507,41.283611092771416
1760597226.1277661,-7.1334737693890995,-0.27386351942204656,1.1284853472572638,0.20469580127856013,-49.23698712506392,-42.11084458020478,47.6319590311994
1760597226.1377976,-6.596939156148197,-0.22015172641675307,1.0697053909629985,0.2524778704328881,-49.91773061581517,-45.16676392361174,53.80260571667295
1760597226.147769,-5.996172140411711,-0.17149607599808067,1.0106897554107503,0.2870150463879501,-50.1458374834137,-47.75598964053468,59.574483159459746
1760597226.1578045,-5.3416320909175345,-0.12942141958802314,0.9554661242210984,0.30601079942656767,-50.11852209201367,-49.72628736051219,64.71749359228025
1760597226.168932,-4.645116868311748,-0.09474615968275311,0.9071542485264876,0.3090785124276466,-50.02367045622129,-50.98767611229293,69.01514071085549
1760597226.1782963,-3.9192746352485246,-0.06763016967227745,0.8677541392612881,0.2977569102024702,-50.01582705130235,-51.512894919228465,72.28712549894232
1760597226.1900592,-3.1770295421061148,-0.047671849477418246,0.8380942703029938,0.2751943734124421,-50.196084024715915,-51.33244518161179,74.40926658272828
1760597226.1978369,-2.4309552170924285,-0.03403674434206294,0.8179079756780576,0.2455706077864517,-50.59762507178467,-50.52524713282078,75.32860881910734
1760597226.2077792,-1.6926312453722183,-0.025584016469029407,0.806010659734985,0.21339855201998137,-51.178800222010445,-49.205876240818384,75.07219185933332
1760597226.2177644,-0.9720107918715251,-0.020958348448097804,0.8005651873076869,0.18285935350248383,-51.8254474307302,-47.509331923707485,73.74851372299895
1760597226.227775,-0.2768267141360231,-0.018637063983863923,0.7994197676515991,0.15728467759892342,-52.36326242244216,-45.5744946287011,71.54114762150881
1760597226.2377534,0.38792061669869504,-0.016951980597260507,0.8004760549641754,0.138845762279259,-52.57948557447751,-43.5277246741208,68.69430735272715
1760597226.2477856,1.0203224329942622,-0.014125585713464053,0.8020194019482271,0.12845584634490298,-52.251552279511586,-41.46818124170065,65.49062845566269
1760597226.2577615,1.6216739978568178,-0.008361464689383645,0.8029439259701818,0.12585271064562942,-51.1790964410642,-39.45627186946722,62.2223112692001
1760597226.2677424,2.196251311268522,0.0019911153197083756,0.8028333560804719,0.1298105589180035,-49.214896724458285,-37.50637374308585,59.158238992538955
1760597226.2777545,2.750707703754999,0.018211705876718744,0.8018966481296311,0.1384330083724686,-46.28987601697845,-35.5849162885258,56.511657825506056
1760597226.2877657,3.2931274464370635,0.04096929570706073,0.8007889371361825,0.14948687001892197,-42.427312123476746,-33.614963659121415,54.41473743744704
1760597226.2977676,3.831866037688587,0.070136607468422,0.8003677294524767,0.16073869211383784,-37.74279122011586,-31.487762638007993,52.90621739412726
1760597226.3077574,4.374369897562328,0.10472276057802565,0.801440966639835,0.17025447620384196,-32.4295577108735,-29.07975597399988,51.935259272534715
1760597226.3178163,4.92617434883381,0.14296150766339938,0.8045583251052805,0.17662554701474215,-26.732648853745115,-26.27128877070132,51.37983278950168
1760597226.3277962,5.49023323874342,0.1825495525437525,0.8098818850604677,0.17909527664381708,-20.917590478556377,-22.96252469396438,51.074364459914065
1760597226.3378081,6.06666228664276,0.22098738580812932,0.8171510152406862,0.17758056344645579,-15.23964471320162,-19.083556222753206,50.84046043905433
1760597226.3477716,6.65290394468701,0.2559480160845058,0.8257340352919591,0.17260158104512835,-9.918332111406134,-14.598191020112393,50.51545507327071
1760597226.3577664,7.244256141004466,0.28559411640588706,0.8347420196541043,0.16514587097123012,-5.12015226685991,-9.502964306351469,49.975020291278724
1760597226.3678157,7.8346572432427735,0.30878096974028135,0.8431732422622238,0.15649591422412237,-0.9505761161750591,-3.8238919098351847,49.147554167067135
1760597226.3777688,8.417589706985389,0.32511475248600014,0.8500601555457517,0.14804599605297714,2.545287783037455,2.3866140812628283,48.01946844386164
1760597226.387775,8.986957864178596,0.3348727896543309,0.8545982331042543,0.14112873197806097,5.3752256836724674,9.051062531493633,46.631742833479876
1760597226.3977492,9.53781125034831,0.3388239086481683,0.8562417822048363,0.13686655597685818,7.5882464240356295,16.066004147146874,45.06911876103627
1760597226.4077559,10.06682094870767,0.33800545420964645,0.8547567040514226,0.1360601904014531,9.26140514429543,23.29971045624435,43.4440280392038
1760597226.4177563,10.572465970499607,0.33351509446284827,0.8502279639793978,0.13912404505353365,10.487319292782235,30.59003322605205,41.87778628376804
1760597226.4277475,11.054939072826745,0.3263606471738141,0.8430295444961108,0.14607394267779306,11.363636466972908,37.744391547791395,40.481709157744845
1760597226.4378314,11.515825091935236,0.3173859940403834,0.8337708422276272,0.15656420219480957,11.984735831057732,44.54355437246701,39.34061714121811
1760597226.4478416,11.957632459931158,0.3072662391333287,0.8232317352041585,0.1699645815950208,12.435352942953187,50.75010913003351,38.5007258876082
1760597226.4578109,12.383269460472233,0.2965494586551981,0.8122924443600854,0.18546747478805076,12.785752041964725,56.12147272040874,37.96328800160407
1760597226.4677665,12.795554473136118,0.28571807054551335,0.8018607775286989,0.20221667708395055,13.088284441420734,60.42633065664319,37.68466193094669
1760597226.4777517,13.196836902088533,0.2752467395984577,0.7928004517920296,0.2194424478847838,13.375322961737458,63.46273955431117,37.58274492559053
1760597226.4877865,13.588783320656853,0.26564075371143026,0.7858663243908787,0.2365745864372482,13.658578879853408,65.07581724738066,37.54886925870614
1760597226.4977608,13.972351993415797,0.2574454149167474,0.7816516664182789,0.2532980118791611,13.929905561550902,65.17281887874574,37.46335246501436
1760597226.5077875,14.347941607931071,0.25122259571143096,0.7805483745502804,0.26952692140054507,14.1639892149103,63.733408280982715,37.21212382232107
1760597226.5177617,14.715663939176734,0.24749674749500583,0.7827153487934178,0.2853046155388475,14.32353088133515,60.813259620911836,36.70154094687794
1760597226.5277784,15.075664439440965,0.24668097259896923,0.7880471384877836,0.30066896806209625,14.367174220731984,56.53995396698719,35.86887377379717
1760597226.5377505,15.428406510777794,0.24900334302617788,0.7961388724263494,0.31553327241385876,14.259475754723125,51.101392677225256,34.68691216902158
1760597226.5477753,15.774845856728616,0.25445879709899516,0.8062557884901208,0.3296111997680018,13.981203130912958,44.728276010446216,33.16245918278403
1760597226.557764,16.116446095948472,0.2628061721214364,0.8173301891037945,0.3423852405912668,13.537880563804652,37.67320584631651,31.329734342187642
1760597226.5677521,16.455018294719864,0.27361409689799615,0.8280134454616721,0.3531082759996815,12.964964475782603,30.189480372698014,29.240604982842072
1760597226.5777605,16.792398882647912,0.2863425887269245,0.836798595864773,0.3608374968684173,12.328898572779302,22.512642788164026,26.95387757546899
1760597226.5877616,17.13000934773344,0.30043853338939075,0.8422065336976234,0.3645071042166431,11.724067898330812,14.847358870751266,24.525587906908978
1760597226.5977597,17.468366752156324,0.3154259268647914,0.8430102360471508,0.363041815894221,11.266212090340296,7.361310571970446,22.001525030132548
1760597226.6077802,17.806634249390175,0.3309811989401084,0.8384653792423912,0.35550471290685215,11.083226858402725,0.18667462692877776,19.41243425163275
1760597226.617781,18.142306617778537,0.34699028276002397,0.828518819031604,0.34126459232421413,11.30443659806229,-6.571382221941377,16.771742721668012
1760597226.6277618,18.471106582153602,0.3635808262213899,0.8139705699191935,0.32015898025146794,12.049309639098931,-12.820740484480194,14.075363941279301
1760597226.637762,18.787122140469364,0.3811137977184392,0.796565465006881,0.29262319869222997,13.41632946969448,-18.465177058796527,11.303153305206976
1760597226.647776,19.083157080948677,0.4001141233605877,0.7789891008147143,0.25975740279539056,15.472521391745548,-23.386789443918435,8.42178266272652
1760597226.6577544,19.35121950793441,0.4211276552218272,0.7647431257789654,0.2233106028709219,18.24405827377744,-27.431047057975228,5.3889963918588775
1760597226.6678069,19.58305502687146,0.44451043518892186,0.7578804448375621,0.18557084236564314,21.708417688948057,-30.397607601164427,2.1592674428727383
1760597226.6777556,19.770643323417282,0.47017674396530096,0.7625932812628557,0.14916393299463207,25.788689871448675,-32.03981056449688,-1.3092506873907777
1760597226.687819,19.906604377013046,0.49734662828278076,0.7826677316930416,0.11677882152029918,30.350804835464498,-32.0751114798886,-5.046868275506935
1760597226.6977537,19.98448792664626,0.5243410401378285,0.8208475509026829,0.09085202085914651,35.20461342952014,-30.207638799109215,-9.064402828947415
1760597226.7078905,19.998941188501473,0.5484766434179287,0.8781843674264922,0.07325187542739384,40.10984976212998,-26.162606991171888,-13.346340859973637
1760597226.7178037,19.945766206980668,0.5661120831482893,0.9534841691799611,0.06500488804385049,44.78794584956847,-19.730582428042162,-17.84658223126321
1760597226.7277758,19.82189113885578,0.5728876514908212,1.0429794680470255,0.06610399109218908,48.940385903617134,-10.817656944948592,-22.48816107788365
1760597226.7378063,19.62528871194316,0.5641749431586934,1.1403503140239561,0.07543314586576683,52.27367764973442,0.5044068129025313,-27.167912959231682
1760597226.7477689,19.354877361561613,0.5357111416875519,1.2371764936000647,0.09083077483237585,54.530021330946994,13.95571373172067,-31.766351541002052
1760597226.7577782,19.010433483850605,0.4843421634194226,1.3238288318179763,0.10929633502944028,55.52142083045154,29.022100821118695,-36.162154178579584
1760597226.7677968,18.592528344234392,0.4087557268853367,1.3907116177747705,0.12732471722856675,55.163410635385276,44.95380370851134,-40.249721438595174
1760597226.7777731,18.102487100299218,0.3100630065310834,1.4296697212451268,0.14133409361034713,53.50294341243005,60.79577057858468,-43.95730275821068
1760597226.7877815,17.54235777720334,0.1920906349997037,1.4352968125303234,0.14813252709490554,50.733767326409954,75.45306981842278,-47.26227761637299
1760597226.797918,16.914878234687585,0.06127448539475333,1.405856712739809,0.14535140941148209,47.192691438062475,87.7894688022823,-50.19969998437276
1760597226.8078537,16.223436866727184,-0.07389395827089307,1.3435903775112303,0.1317731294945058,43.33234659966453,96.75030396282153,-52.860669968996184
1760597226.8177779,15.472033334302779,-0.20382896192208413,1.2543319912643456,0.10750443146572472,39.670485416958094,101.49362725767241,-55.378782255022756
1760597226.8278024,14.66525673992147,-0.3190757593400653,1.146551630750789,0.07398207938382396,36.72145724841764,101.50859558773656,-57.9055209080373
1760597226.837757,13.808310518283044,-0.4115681944881304,1.0300916421884323,0.033818284762878056,34.92044749475134,96.69934377605747,-60.5781959189879
1760597226.847759,12.907122897684731,-0.47565767506519285,0.9149010231237735,-0.009505038742217453,34.553775733831664,87.41701474123572,-63.485975089952845
1760597226.857757,11.968578705107266,-0.5087066223485563,0.8099978424978224,-0.05207822208588242,35.70822896911774,74.43142845284787,-66.64034621533791
1760597226.8677714,11.00088035332234,-0.5111616904934266,0.722763166507035,-0.09009831668660369,38.2492462846149,58.84503521676231,-69.95604273696907
1760597226.8777905,10.01399073559861,-0.48615747651951885,0.6585543016080009,-0.12041358680698626,41.83268114346422,41.96263201564772,-73.2472632263088
1760597226.8877566,9.02004330955341,-0.4387971590428309,0.6205544326685599,-0.14097499458815418,45.94903188661606,25.138279133475976,-76.24188425014667
1760597226.8978088,8.033552867283813,-0.37529253011977687,0.6097603841105862,-0.15110571439706835,49.993488853827365,9.62432941977926,-78.61329185309174
1760597226.9077885,7.0712513697099215,-0.3021321137402377,0.6250457876103145,-0.1515433885961991,53.35073601777534,-3.5540988746172744,-80.02587171629662
1760597226.9177816,6.151418236940275,-0.22540332904124769,0.6632984498317488,-0.1442625347243367,55.480934621738825,-13.682187372591251,-80.18701723878088
1760597226.9279222,5.2926653135558155,-0.1503416372087779,0.7196778728246794,-0.1321224428065752,55.99329726933102,-20.38858359652792,-78.89666510351621
1760597226.9377844,4.512251903268445,-0.08112770646902537,0.7880425127974594,-0.11840185972054708,54.696179934582005,-23.631563298319566,-76.08534066186239
1760597226.947839,3.8241194835755623,-0.02090769482442142,0.8615573058412224,-0.10629010894120249,51.61698647368532,-23.649499106435044,-71.8334983487918
1760597226.9577558,3.236926133123236,0.02802738400143794,0.9334309476386029,-0.09841485810478906,46.99031628656131,-20.891561352832255,-66.36825537498792
1760597226.967769,2.752410039010138,0.06399909977624875,0.9976725902324264,-0.09648710540764628,41.21778717145057,-15.944673238891998,-60.03785053073834
1760597226.9777946,2.364408155377251,0.08574826868871958,1.0497231129664542,-0.10112076024401298,34.8072063429863,-9.468799793407406,-53.26843059773295
1760597226.9878638,2.0587931939149535,0.09238721706459913,1.0868298537700112,-0.11184485291634734,28.301622191862414,-2.1463186078033556,-46.511026294855306
1760597226.99778,1.814468299654891,0.08353523839362346,1.108100239356956,-0.12728880294761236,22.209695251075345,5.3550728956922775,-40.187998502998454
1760597227.0078123,1.6053836857334802,0.05958971155766061,1.1142634274442116,-0.14549517340583198,16.94762754634619,12.410512009061128,-34.647578152192914
1760597227.017795,1.403341793156717,0.022013938432300987,1.1072460744713404,-0.16429988539085724,12.799975496141125,18.462659088431664,-30.132777694539733
1760597227.0277781,1.1811869766642331,-0.02649806898813211,1.0896949152731925,-0.18171450594700642,9.90277779594354,23.046595172996312,-26.76767569659454
1760597227.0378006,0.9158871151909986,-0.08208179408389805,1.064552721434239,-0.19624781116132556,8.248434444442141,25.81544470685185,-24.5607177097427
1760597227.0477858,0.5910362505400678,-0.14001519210845154,1.0347414174676917,-0.20711449982947305,7.708483976722995,26.56408900943623,-23.421943740784716
1760597227.0577884,0.19842399111529418,-0.19523488283997323,1.0029578885391226,-0.21429845451338467,8.068329273114019,25.246242976102362,-23.189352123593295
1760597227.0677924,-0.26151295766436705,-0.24295038514925693,0.9715609357862184,-0.21846519161770492,9.06715842269497,21.979722156978948,-23.659041479040845
1760597227.0777829,-0.7803586933774211,-0.2792290245871073,0.9425211860935832,-0.22074777811045737,10.436654893329044,17.036021405800565,-24.61421381830706
1760597227.087806,-1.3433377793150938,-0.30143676690273397,0.9174098300217238,-0.22245469048429392,11.933344076201475,10.812947562213338,-25.849297823653828
1760597227.0977812,-1.9315851329062739,-0.3084602335380765,0.8974077035417793,-0.22476050670420453,13.361274470675683,3.792222656943819,-27.187003016901674
1760597227.1078691,-2.5246854442980036,-0.30068844550105783,0.8833202244556903,-0.2284386251148224,14.583825984807973,-3.5131173230733834,-28.487684010531872
1760597227.1178434,-3.103090775134511,-0.2797838280136294,0.8755877025596929,-0.23368140618530195,15.52539254567837,-10.614672683315753,-29.651701319082548
1760597227.1277902,-3.6500857569908174,-0.24830890832782027,0.87428641805028,-0.24003266798629494,16.165141803462593,-17.10034622459769,-30.61636533246812
1760597227.1378384,-4.153088702715677,-0.20929249784561185,0.8791230949453167,-0.24643724973386438,16.525759970614,-22.674683899346714,-31.349514117256255
1760597227.1477766,-4.604223227830094,-0.16581711969446933,0.8894319913443297,-0.2513969991026587,16.660007535565025,-27.182588217958166,-31.841818608386685
1760597227.1578128,-5.00023048813934,-0.12069240228643252,0.9041878238826931,-0.2532111103431236,16.637264883247127,-30.61353430013545,-32.09955301244257
1760597227.1677916,-5.341887536296625,-0.07625384447432085,0.9220478848126075,-0.2502676963195899,16.531414232941955,-33.086118487558615,-32.13890123107708
1760597227.1777635,-5.6331403954807175,-0.03429838078301673,0.941432816200217,-0.24134397776932354,16.410710101876123,-34.81545200959162,-31.98209396818021
1760597227.1877713,-5.880153817697961,0.003858918561219913,0.9606487830290552,-0.2258711031966752,16.32986539299296,-36.068306837309706,-31.65503479306653
1760597227.197783,-6.090435637281222,0.03724464833129281,0.9780460845501606,-0.20412834206328034,16.324404983637113,-37.11269785751668,-31.18574650302282
1760597227.207782,-6.272129997460432,0.06505252347111669,0.992201425495975,-0.17734086496573714,16.407376969753237,-38.16946076750064,-30.60298115877618
1760597227.217787,-6.433509137151973,0.08648213088312601,1.0021031251958095,-0.1476567408953996,16.56870089082092,-39.373216880455786,-29.93459771102275
1760597227.2277627,-6.5826422291866775,0.10062716857000299,1.0073117095849906,-0.11798034825348222,16.777539657980867,-40.74886088220744,-29.20566546478837
1760597227.2378895,-6.727189067596687,0.10643455818917409,1.0080657811658615,-0.09165827029008775,16.987774423180635,-42.20742030802915,-28.436546283477874
1760597227.247802,-6.874256503503462,0.10274267476853918,1.0053078482024238,-0.07205132746342696,17.14586590047083,-43.562112279366296,-27.641344210655582
1760597227.257786,-7.030262277664695,0.08839664155910788,1.000616941413377,-0.062063363687217564,17.19947024684318,-44.56221778627901,-26.827057214404167
1760597227.2678592,-7.200767554486294,0.06243001402381826,0.9960500033210382,-0.06371314137634343,17.104677360097,-44.939581546316,-25.993544366070036
1760597227.277787,-7.390258695937029,0.02429335089252253,0.9939063674585681,-0.07782467195761139,16.829956346640987,-44.46053055823802,-25.134105060621614
1760597227.2877746,-7.601876284588272,-0.02590050179314228,0.9964376176343901,-0.10388245856408775,16.355750997942266,-42.97504228463692,-24.23618470401241
1760597227.297776,-7.837105932484966,-0.08715682039701095,1.0055325557831727,-0.14006487986447752,15.669827316500822,-40.45522059525515,-23.281625137510932
1760597227.3078086,-8.095464001158673,-0.1574567428821979,1.0224158861906254,-0.18344056028421823,14.759554248084845,-37.016520628294366,-22.246048968319407
1760597227.3177752,-8.374231422508046,-0.23374209738300536,1.0474036021985087,-0.2302923320238484,13.60305939363258,-32.917519372040395,-21.097345180302536
1760597227.327779,-8.668303770250539,-0.3120593491198124,1.079750235176842,-0.2765217196269979,12.161560017660532,-28.537107983899716,-19.793635988532614
1760597227.3378458,-8.970226021874165,-0.38786548423610906,1.117605682026843,-0.3180836064918693,10.37508909401631,-24.33145957432899,-18.281372659578206
1760597227.347779,-9.270458177652682,-0.4564667422269044,1.1580855776145889,-0.3514039695573982,8.163301375822568,-20.776534905681853,-16.49424660993845
1760597227.3577793,-9.557871461880147,-0.5135321479698086,1.1974588926763745,-0.37373843402354884,5.432131406464683,-18.304631601598462,-14.353456306561817
1760597227.3677979,-9.820415211778458,-0.5556021830094949,1.2314629030241262,-0.38343152538951925,2.0859342239578464,-17.244926429624392,-11.769673407500255
1760597227.3777938,-10.045846619826458,-0.5805058764761141,1.2557501646293714,-0.38003842907913415,-1.9564751669726146,-17.777606220631807,-8.646929772473399
1760597227.3877819,-10.222403820196714,-0.5876121561405714,1.26644345185339,-0.36428214132662,-6.7445402970701105,-19.908938740968036,-4.888616735916971
1760597227.3978589,-10.339331989048882,-0.5778703380897069,1.2607323834081903,-0.33784455552761217,-12.280689306173574,-23.470965072725964,-0.40572344312135133
1760597227.4077618,-10.387224266630495,-0.5536316310452817,1.2374123211304608,-0.30302406296501094,-18.51014542819846,-28.145229917199558,4.872823360007868
1760597227.4178097,-10.358190168396574,-0.5182809668011613,1.197259722806593,-0.26232259039890177,-25.3179843066391,-33.50598254344741,10.988368398124775
1760597227.4277956,-10.245898230456234,-0.4757412817027037,1.1431602938255252,-0.21804277792563664,-32.534274624748136,-39.07533161402338,17.940579228184923
1760597227.4377735,-10.045553080508153,-0.42993503836923397,1.079944918920304,-0.17197721019328763,-39.94677851350137,-44.381437662068016,25.677185305583965
1760597227.4478507,-9.75386335506571,-0.3842934543340109,1.0139293039950383,-0.1252552236334132,-47.319507497589775,-49.01112950561442,34.087462734744655
1760597227.4577937,-9.369042034701199,-0.3413895777383306,0.9521917734490926,-0.07838053871225521,-54.41449225901557,-52.65011595322639,43.00121744715192
1760597227.4678404,-8.890861027320566,-0.30274280791958347,0.901663058244726,-0.03144994782100033,-61.01348011950737,-55.10674300097113,52.19421667603363
1760597227.4777997,-8.32076152275419,-0.26881005611895364,0.8681431315244189,0.015504159371833786,-66.93604447330353,-56.318355736227744,61.39997329813552
1760597227.4877787,-7.662001953591329,-0.23914805152085258,0.8553962726292738,0.062151324744389794,-72.0509585120728,-56.34205223143622,70.32682954920188
1760597227.4977908,-6.919805756104548,-0.21270236098862857,0.8644930601126608,0.10761510152761816,-76.2788120815587,-55.33343728056341,78.67860233977478
1760597227.5077899,-6.101453736755185,-0.18815498195122787,0.8935503837600733,0.15045282704270652,-79.58569630514012,-53.51777769720231,86.17664204485858
1760597227.5177987,-5.216258381256068,-0.1642533772324411,0.9379565228160135,0.188882779605229,-81.96990650847876,-51.15798337276502,92.58095492432214
1760597227.527943,-4.275367977094569,-0.14005478475972458,0.991064777235723,0.22116182861272954,-83.44529483256346,-48.52338656631421,97.70805749911732
1760597227.5377889,-3.291376684373235,-0.11504537853089614,1.0452268103373,0.2459626612761534,-84.02562620537344,-45.86245938323608,101.44359981767079
1760597227.5478554,-2.2777530552565963,-0.08912586274652488,1.092958136046451,0.2626356978330758,-83.71400148431258,-43.38145211886437,103.74857812982584
1760597227.5577872,-1.248133157199141,-0.06248710234315338,1.1280124700822167,0.2713160432052426,-82.50021950653375,-41.22971916404557,104.65892701549184
1760597227.567895,-0.21554999000623112,-0.03542506537917959,1.14618449967898,0.2728891322493584,-80.36694284610421,-39.49158429224209,104.27904615989931
1760597227.5777898,0.8083124549524026,-0.008157329342206428,1.1457294892654206,0.2688422779000942,-77.30303541848143,-38.184165513835715,102.77018459470735
1760597227.5877738,1.81374452682331,0.01929868330396876,1.1273591254609394,0.2610259135364345,-73.32017132928242,-37.26058019687319,100.33469299060978
1760597227.5977979,2.793423754952643,0.047142019845918905,1.09384802854638,0.2513570498963677,-68.46759410764135,-36.618166227083066,97.19723024277343
1760597227.6077993,3.7425444701497974,0.07568644662199699,1.049360669090545,0.24152065895905397,-62.84024609153766,-36.11143351891312,93.58429817975008
1760597227.6177905,4.6586357134956575,0.10517140680524181,0.9986573162888961,0.2327385037536328,-56.57738949674526,-35.56904055641289,89.70401376139212
1760597227.627913,5.541098422340537,0.13555759820530405,0.9463408381279537,0.2256604607440323,-49.85177911540187,-34.813095629606586,85.72860196351779
1760597227.6378,6.390555041635334,0.1663938781045594,0.8962706250992692,0.22039572557777,-42.852439183398,-33.677963947767665,81.78232895732634
1760597227.647779,7.2081487893019816,0.19681656076735826,0.8512134623204796,0.2166600200052767,-35.765968862829624,-32.02533231395142,77.93713843455977
1760597227.6577926,7.994938881776171,0.2256875541841924,0.8127406516104378,0.2139871600550921,-28.7612910225453,-29.753096605654807,74.21699424749701
1760597227.6678886,8.751507836334811,0.2518236912412103,0.7813309932817201,0.21194517189370118,-21.981035889171157,-26.797468514519124,70.61014383967711
1760597227.677826,9.477837827659762,0.2742412974936697,0.7566103152959804,0.21030515415980375,-15.540216153905849,-23.129698065043375,67.08674474280058
1760597227.6877809,10.173444646984956,0.2923445527114708,0.737651999396268,0.2091296558127442,-9.530477839664986,-18.750143259460426,63.618075818079994
1760597227.697777,10.837700408771953,0.3060145049796223,0.723274029885443,0.20877131711064778,-4.02668571667722,-13.682685288519346,60.1932273958135
1760597227.7077942,11.470242824177785,0.3155911490570657,0.7122880890791197,0.2097940627809007,0.907684569601993,-7.971719761146693,56.82983495549136
1760597227.7178068,12.071362472374778,0.321768930496594,0.7036783097534668,0.21284033415472306,5.218898293355947,-1.6825351697027848,53.57690881385669
1760597227.7277513,12.642275710842444,0.3254403219097483,0.6967063580641679,0.21846946920751292,8.865813006402377,5.095570389490248,50.50965015204739
1760597227.7377965,13.185222480790532,0.32752476198586344,0.6909515783570072,0.2269923018821862,11.826094687119264,12.245039662001345,47.717780553257896
1760597227.7478116,13.703367294974406,0.32881547278243356,0.6862999106259917,0.23832929447788256,14.103331274394248,19.61652554517719,45.28998659914253
1760597227.7578402,14.200520415438728,0.3298682429520679,0.6828968714214679,0.25192163621075364,15.732192587142627,27.027630008968476,43.29749995488527
1760597227.7678053,14.68072868203227,0.3309474851757157,0.6810800936122041,0.266723930207102,16.779382468948963,34.2649434449664,41.779680316154284
1760597227.7778075,15.147808224532625,0.33203703047481603,0.6813038472437105,0.2813012158114704,17.33936435483218,41.089884639268476,40.733914572369926
1760597227.7878082,15.604902392590716,0.3329143896880599,0.6840603975974274,0.2940379429753738,17.52522533085515,47.248293066517256,40.11137245133271
1760597227.7977927,16.054145311849712,0.333274992170604,0.6897954294880491,0.30343786563374686,17.456215848164963,52.48313342975075,39.81927981164329
1760597227.8077915,16.496492230713944,0.3328782355444378,0.6988147615090243,0.3084559321747967,17.244270357639344,56.54917289777128,39.72943386072738
1760597227.8178337,16.931743809558473,0.33167704184285873,0.7111891676577118,0.3087749399238432,16.982078493553864,59.22825379863102,39.691768898389725
1760597227.827793,17.35875111399857,0.3298953747925989,0.7266752408514372,0.3049429954839802,16.73501540710618,60.34380881852364,39.55104626328671
1760597227.8377993,17.775753254097378,0.3280344934228487,0.7446727126369875,0.29832507227795796,16.538466243325185,59.77344749678709,39.164341769398234
1760597227.8477945,18.18077853662919,0.32681007726001915,0.7642308643357169,0.29087157546487696,16.400846718007397,57.45871742506065,38.41696919015445
1760597227.8577785,18.572033853422333,0.32703941782436974,0.7841050054041563,0.2847459238902878,16.311234253193785,53.41143144871495,37.23473009096584
1760597227.8677986,18.94821287408877,0.3295063361706134,0.8028548587489239,0.2818764447883128,16.249589290258807,47.71613423034663,35.590833254962874
1760597227.8778167,19.308668183357543,0.33483175549796584,0.8189730241301011,0.28351142742321994,16.197496180779687,40.528366790081165,33.50643066402422
1760597227.8878083,19.653414012022,0.34337391132620976,0.8310332385501382,0.28986327923876254,16.14795730213482,32.0685744544877,31.04443681532333
1760597227.8978114,19.98295436112035,0.3551784179787085,0.8378508025731278,0.2999243399051666,16.11336458213912,22.61200366383525,28.297126163137175
1760597227.9078023,20.297964737184177,0.3699944460417121,0.8386465391260832,0.311513803409719,16.130936087637945,12.475765270208267,25.368944970469904
1760597227.9178138,20.598887768875272,0.3873638769145947,0.8332021411128264,0.3215670954363652,16.26479741537944,2.0051410719711833,22.356951027328186
1760597227.9279094,20.88552249939915,0.4067721635457104,0.821993636956989,0.3266186036599049,16.60390517612461,-8.438283576569262,19.33208537161229
1760597227.937798,21.156686631452033,0.4278268997108881,0.8062901916449298,0.32338295190574906,17.25535516907045,-18.484374039673988,16.324773635528782
1760597227.9477856,21.410011706585532,0.450411319452171,0.7882016284655052,0.30932548473070487,18.33322916882399,-27.757035650855315,13.317872643456433
1760597227.9577932,21.641898741474094,0.47475153160222333,0.7706493876170346,0.28312312121288885,19.943863397224405,-35.87251510718587,10.248651444645086
1760597227.9677956,21.847623002552762,0.5013431949376576,0.7572296705937585,0.24494048464421195,22.16914674700558,-42.43630279702066,7.019620753365841
1760597227.977816,22.0215421400687,0.5307104308855928,0.7519416214363195,0.1964801053154967,25.05005862121352,-47.04288325617937,3.516167448092209
1760597227.9877954,22.157344224537322,0.5630149945542707,0.7587696301273316,0.1408062112731915,28.572965927547415,-49.2827872784785,-0.37237672074542844
1760597227.9978452,22.248276667871604,0.5975847045970154,0.7811359125417376,0.0819776523208865,32.66103790041186,-48.76039402708644,-4.732158812182061
1760597228.007976,22.287318533614535,0.6324710434164518,0.8212740485157882,0.024547520965314023,37.17246838479435,-45.12403192437479,-9.60841104984614
1760597228.0178752,22.267287192464117,0.6641636975844948,0.8796097471123024,-0.027002556733067506,41.90622777608656,-38.10759662546205,-14.995998238268227
1760597228.0278547,22.18089699394861,0.6875775829511203,0.9542638925990402,-0.06881983065318782,46.61514918719007,-27.580545427205852,-20.838238106548964
1760597228.037817,22.020807856783854,0.696387070204217,1.040807906897735,-0.09815501565817987,51.025493364274425,-13.600998113200793,-27.033698712355573
1760597228.0478153,21.779713269635753,0.683720647447237,1.132394611284515,-0.11368997543246145,54.86165853879748,3.535125883748443,-33.44918217692274
1760597228.0577943,21.45051885177174,0.6431573631452823,1.2203484191152927,-0.11567888251764559,57.8742312658782,23.25743589875135,-39.93607486014824
1760597228.067803,21.02665377620476,0.5698960297430061,1.295220441030879,-0.105893216852431,59.86905896997881,44.70617965198504,-46.34690585987401
1760597228.0778062,20.50253879610806,0.4619131364196669,1.34820496262782,-0.08738388119835884,60.73445884777083,66.74804303876554,-52.549272178216604
1760597228.0878158,19.874208554687343,0.3208982022566179,1.372696947624664,-0.06408748918918028,60.463011450778055,88.02926678411941,-58.43498983434893
1760597228.0978167,19.140055012531036,0.15276181131279526,1.3656769027062896,-0.04031779981924989,59.16374016288404,107.0683073859625,-63.92315185944718
1760597228.1079566,18.301625308004567,-0.032449282538051114,1.328574777104042,-0.020202171609519287,57.06035177802051,122.38407693652472,-68.95667023730765
1760597228.1179216,17.364373338540744,-0.2213226623915686,1.2673235143243258,-0.00713801646159886,54.47228395469939,132.64856453762343,-73.49300431812092
1760597228.1278055,16.33823532878169,-0.39851450953019296,1.1914818469894874,-0.0033458761027777093,51.77791195992869,136.84558659877734,-77.49121005485863
1760597228.1378105,15.237887225560542,-0.5486736790354714,1.1125541212994672,-0.009587323737082343,49.363061234345174,134.4123772017524,-80.89884047101138
1760597228.1478379,14.082560049339753,-0.6585321540880347,1.0418761705288433,-0.02510302513268053,47.561992073547195,125.3397528139534,-83.6428361869632
1760597228.1578302,12.895344402892745,-0.7187598213571662,0.988568660107181,-0.04780037132951804,46.60104350338683,110.21081362366382,-85.62776465215708
1760597228.167868,11.701996782155106,-0.7252247319377362,0.9580309810917702,-0.07467043696565354,46.55603556785455,90.16712509624342,-86.74278683512142
1760597228.1778233,10.529345782935295,-0.6794531546732956,0.9512867179275296,-0.10235272058219731,47.33277968234098,66.80318405756034,-86.87646089753136
1760597228.1878338,9.403464424057859,-0.5882742697063478,0.9652672744332669,-0.1277251389080019,48.67601171207293,42.002055694362134,-85.9367888721122
1760597228.1978378,8.347811894786567,-0.46278578170516843,0.993895943411156,-0.14839782800622064,50.20682314034134,17.73479237506744,-83.8730036491001
1760597228.2078066,7.381547558919485,-0.31686061426082945,1.029649036120115,-0.16302498481661867,51.48329216213408,-4.148158636110706,-80.69526184928519
1760597228.2178023,6.518185492372422,-0.16544471110309772,1.0651638759421607,-0.1713957390784621,52.074275645329244,-22.10474307298583,-76.48847256474096
1760597228.2278113,5.764704257008616,-0.0228892736620393,1.0944913040182387,-0.1743082869626191,51.63304958832922,-35.04391418444833,-71.41701475886578
1760597228.2379344,5.121171448173063,0.09847577216408919,1.1137693051773092,-0.17327115977207685,49.95676310147729,-42.407292346273024,-65.71825508083793
1760597228.2478523,4.580894754826297,0.18938062175312548,1.12133357699706,-0.1701097576684705,47.02024066099451,-44.18488045873463,-59.68462211804761
1760597228.2577934,4.131072080026936,0.24419492811419444,1.1174377102883306,-0.16657209173723117,42.97814351992914,-40.87035968217329,-53.63626175266592
1760597228.2679136,3.7538830657957467,0.2610542991406814,1.103775073601543,-0.16401501354581505,38.13633568497703,-33.36938656174326,-47.88840864708012
1760597228.2778604,3.4279437047525425,0.24160766211287069,1.082936428149929,-0.16321919512364283,32.8995536868883,-22.8781345618572,-42.71885304977477
1760597228.2878103,3.1300316771265906,0.19049653339099765,1.0578792931013545,-0.16434585182461225,27.706629512164323,-10.749077568894595,-38.340792156376054
1760597228.2978182,2.836975311209835,0.11467736641934671,1.0314567990921568,-0.16702133558688917,22.965827146497364,1.641915574359623,-34.885022096400164
1760597228.3077905,2.527575825998903,0.02266963304950595,1.0060473748081802,-0.17051682401669993,19.001404993452336,13.016809479527987,-32.393439293891596
1760597228.3178117,2.1844006566382834,-0.07622648153515375,0.9833223128338345,-0.17397671233395293,16.0190254040138,22.29766346656527,-30.823831792978584
1760597228.3280575,1.7952595676161665,-0.17272514963175487,0.9641711219070854,-0.1766430869683037,14.093141756473061,28.68470236292224,-30.064311944618435
1760597228.3378103,1.3541774253316667,-0.2583421267139912,0.9487747586320909,-0.17802914081461368,13.17506871296992,31.706422069569367,-29.95455383201425
1760597228.3478293,0.8617205295400655,-0.32612546403109677,0.9367871003391083,-0.17801169313000167,13.116980276993319,31.23934370724535,-30.310270747472906
1760597228.3579898,0.32461049439051115,-0.3712521817944442,0.9275686374787886,-0.1768368678050598,13.705190444563229,27.49671290377114,-30.947170043635612
1760597228.3678145,-0.24534639159923427,-0.3914078246960299,0.9204177012737133,-0.17505532588254527,14.695929856769931,20.987524572521536,-31.701023301947195
1760597228.3778057,-0.8328902696666115,-0.38688952847374497,0.9147583213996292,-0.17341524567233818,15.848105564189245,12.449640621812861,-32.44145461417292
1760597228.3878274,-1.4212876387264437,-0.3604144902621838,0.9102611117371867,-0.17273823336519992,16.949513666330482,2.7632272573335106,-33.07839726977983
1760597228.3979068,-1.9943833537250468,-0.31665880380980577,0.9068885805001283,-0.17379176736149826,17.834930174081677,-7.14702768111055,-33.56159988397874
1760597228.4078295,-2.538425291016456,-0.26158790596363457,0.9048679189946934,-0.1771626363388798,18.3959843761785,-16.410832311099444,-33.87474624383761
1760597228.4178314,-3.0433997323205646,-0.20166758705568655,0.9046035991401717,-0.18313368045726172,18.583627891157008,-24.30166354875128,-34.02644221298913
1760597228.4278514,-3.503712955109841,-0.14306150337068546,0.9065493458215418,-0.191569007804581,18.404464118156174,-30.306628102843295,-34.04043224419989
1760597228.4378088,-3.9181864329274103,-0.09092279695649887,0.911063732583145,-0.20181988974734025,17.91235202816844,-34.168925153561055,-33.94700410857872
1760597228.4479127,-4.289459733731081,-0.04887128316683912,0.9182754845348761,-0.21267616098161365,17.196681620447492,-35.898335815351224,-33.776791594837974
1760597228.457867,-4.622983918984096,-0.01871642699152539,0.9279838059354822,-0.22240245616772414,16.368641335090985,-35.749291146748604,-33.55731876233378
1760597228.4678516,-4.925826061096812,-0.0004469462634919509,0.9396152256405615,-0.22890079609479447,15.54671087690623,-34.17031341164014,-33.311881256925744
1760597228.4778311,-5.205497414275481,0.007531052216599939,0.9522502418217986,-0.2300159027644649,14.842522943514826,-31.732250049530034,-33.05989884643505
1760597228.4878457,-5.468977338004723,0.007957050069829687,0.9647207363802045,-0.22395041866870535,14.348166334218542,-29.045219126061923,-32.8177493566399
1760597228.4978206,-5.722046278879977,0.004150835264178249,0.9757658368138084,-0.2097075952562259,14.125976040972947,-26.67532005065927,-32.599254057693436
1760597228.5077977,-5.968975313160839,-0.0006000918570396518,0.9842230731517722,-0.18745367326842038,14.201817812627795,-25.071864268030428,-32.41532189458826
1760597228.5178204,-6.212556191716859,-0.0036181836479332566,0.9892249016256726,-0.1587009967054372,14.562711328098576,-24.51419764862889,-32.272653747683336
1760597228.5278368,-6.454402613142472,-0.0033022009064481157,0.9903685136717134,-0.12625127929184396,15.15927544564803,-25.084330205893256,-32.1717487394989
1760597228.537858,-6.695417204389565,0.0005813530257497726,0.987830000808812,-0.09389379871887951,15.912900418379957,-26.66795459538699,-32.10467896818055
1760597228.5478141,-6.936303554603731,0.006824561749266355,0.9824023697897774,-0.06590961689159544,16.726775918084883,-28.98254152862318,-32.053204347690986
1760597228.55781,-7.178009326248855,0.012936780510250198,0.9754484257054066,-0.046473233511725304,17.499066189221153,-31.62759089138007,-31.987806007762867
1760597228.5678408,-7.422011190058118,0.01551845818371555,0.9687706889192206,-0.03905521196246821,18.135893536202726,-34.149278357927194,-31.868111135235292
1760597228.5778391,-7.670387047621718,0.010802870940541536,0.96440970123128,-0.04591554687982927,18.56162959441591,-36.11003814827959,-31.644915825951966
1760597228.588019,-7.925657138041262,-0.004706769760365991,0.9643908067082475,-0.06775404227421282,18.724398585727076,-37.153265625933244,-31.26358297774986
1760597228.5978155,-8.190409085915906,-0.033597613903544286,0.9704488381091907,-0.10356386859235124,18.59558666578823,-37.05432978138273,-30.668119721129997
1760597228.6078482,-8.466753068667378,-0.07700906426759192,0.9837670135404226,-0.1507138816176708,18.163356664532394,-35.75131461003435,-29.804932398447587
1760597228.6178482,-8.75568163453714,-0.13429391623250075,1.0047656268105596,-0.2052520642939088,17.421494341705973,-33.35204292070352,-28.62528220830128
1760597228.6278174,-9.056430234987019,-0.20294633365210576,1.0329666148436953,-0.26237847634205785,16.3561232236328,-30.117462252070116,-27.08583598752612
1760597228.640279,-9.365943949613055,-0.27881661644592,1.066946183871943,-0.3170028114725062,14.933615231803461,-26.424774550284415,-25.147286924622115
1760597228.6478,-9.678549760920854,-0.3565811209162276,1.1043752970707574,-0.36429825086104417,13.093093502443296,-22.716239611855737,-22.771597888381468
1760597228.6578178,-9.985911060527144,-0.4303928022012475,1.142141610667021,-0.4001857047257909,10.746131471913843,-19.44108492303877,-19.918810006518882
1760597228.6678147,-10.2773020679046,-0.4946111832866802,1.1765493023802907,-0.42171018064387816,7.78474036326075,-16.998398889046932,-16.54448355093128
1760597228.6778274,-10.540186271561103,-0.5445016950981656,1.2036032233874523,-0.42728860704541294,4.096901663231705,-15.688418950527307,-12.598736788408159
1760597228.6878445,-10.761022600893975,-0.5768004313758758,1.2193906001288406,-0.41681523341799653,-0.41279988084312225,-15.678346190422472,-8.027602077664287
1760597228.6980536,-10.926173518208511,-0.5900587420667052,1.2205628538726188,-0.3916144024297642,-5.801131481048133,-16.98672940889106,-2.777081430481258
1760597228.7077923,-11.022771542649872,-0.5847137383797034,1.2048859056284267,-0.35423878164706346,-12.067058823851658,-19.487701953716876,3.2001116177802937
1760597228.717805,-11.039423790152178,-0.5628770269318507,1.1717805251099314,-0.30812673068518226,-19.139629341243253,-22.93334568509418,9.93556574664833
1760597228.7278018,-10.96668725961391,-0.5278887863958689,1.1227386296274717,-0.2571522767914567,-26.87599494127436,-26.989780241733072,17.434837556745936
1760597228.7378054,-10.797308578429806,-0.483732280451212,1.0614974686998158,-0.20512058923777896,-35.070817848617644,-31.280775090391135,25.66712201518243
1760597228.7478042,-10.526270871813491,-0.434428196190349,0.9938846723155635,-0.1552775689260957,-43.475970485343886,-35.432130007805036,34.55662237669589
1760597228.757833,-10.150717544468757,-0.38352067183600835,0.9273010716546565,-0.10991005191463053,-51.82718777914685,-39.110839238733305,43.977355769350254
1760597228.7680676,-9.669827578938607,-0.333732740962741,0.8698701897871551,-0.07010854017256975,-59.87275920590999,-42.054842477553805,53.75277253776209
1760597228.777816,-9.08470437176681,-0.28682333665742077,0.829344212667789,-0.03574600195576835,-67.39885344699825,-44.09139323654055,63.66087743740879
1760597228.787813,-8.398317324029598,-0.24363670146308122,0.8119112521224484,-0.005694092646387692,-74.24669671389043,-45.14409902420367,73.44468770593303
1760597228.7978187,-7.615509012889004,-0.20430521574894317,0.8210907659279392,0.021749711797019546,-80.31844671071043,-45.23003685856259,82.82706488412364
1760597228.8078048,-6.743054560837167,-0.16854583074353685,0.856920590599176,0.04830989853730221,-85.57101916316313,-44.44894228291913,91.52840527551422
1760597228.8178067,-5.789735203669965,-0.13597524749724604,0.9156201347795387,0.07519382726307305,-89.99983482367824,-42.966622044629815,99.28540055868339
1760597228.8278782,-4.766367165786782,-0.10636470726165062,0.9898619540485658,0.10272287088073494,-93.61668989830065,-40.994794363497896,105.86900980217185
1760597228.837824,-3.6857147988367838,-0.07977087496123422,1.069701853614463,0.13025552825365175,-96.42714915977331,-38.769546949392,111.09992312243003
1760597228.8478215,-2.5622202546015878,-0.05651460447863453,1.1440927410842239,0.15643423016172944,-98.41286243054142,-36.530339363249695,114.86020287072083
1760597228.8578298,-1.4115054161841007,-0.03702140305447376,1.2027295655593595,0.17967100979632478,-99.52304315971047,-34.50088138099662,117.1003592482913
1760597228.8678124,-0.24964485938342715,-0.02157276705876017,1.2377971591668533,0.19869259099750003,-99.67721863320554,-32.87242281494985,117.84158089920143
1760597228.877853,0.9077355625114122,-0.010042062702928484,1.2451542558782098,0.21294299704550626,-98.77872668585242,-31.789322048632343,117.17300852737401
1760597228.8878188,2.046424654180808,-0.0017007540513026415,1.224672678795566,0.22271293467072287,-96.73584679520248,-31.33667593635384,115.24392508482727
1760597228.8978162,3.1545097114763228,0.004827716556892167,1.1797608743261405,0.22899057385259194,-93.48543452523329,-31.53052414351012,112.25089157933698
1760597228.907847,4.223029198038812,0.011427168846046058,1.1163340553852237,0.23313154001245529,-89.01312056952789,-32.31228255684127,108.42047560769124
1760597228.917841,5.246282595772199,0.02018348170593589,1.0415594327231208,0.2364836337043783,-83.36514207877447,-33.54969771895831,103.9892452855341
1760597228.9278297,6.221754479746445,0.03299735403618916,0.9626584937911384,0.2400831257598191,-76.64959087354508,-35.04599702004016,99.18370157282415
1760597228.9378192,7.1496900985614555,0.05122591467754281,0.8859601167400796,0.24448901991019745,-69.02819125510352,-36.55706389249124,94.20326880977335
1760597228.9478142,8.03242747810846,0.07544772078882787,0.8162996575537564,0.24976206100701676,-60.70218293941988,-37.814269316385875,89.20906460862251
1760597228.9578662,8.873627452035109,0.10539664862733845,0.7567686902201147,0.2555516635111364,-51.896552597426535,-38.54924181052518,84.31997309026599
1760597228.967805,9.677541472920332,0.14005610319312714,0.7087567918608514,0.2612422461268568,-42.845822574324224,-38.517035346572214,79.61586542816089
1760597228.9778185,10.44842393318097,0.17786912055881868,0.6721996997367425,0.26612223849411015,-33.782772501764306,-37.51548117179681,75.14614382246316
1760597228.9878674,11.190144750049518,0.21700780681615287,0.6459510669513951,0.26955102905522893,-24.929859240067884,-35.39991583883181,70.94065202449555
1760597228.9979057,11.906003559273474,0.25564812308808527,0.6282114361120651,0.2710987997295465,-16.492234501440702,-32.09316760233953,67.01972546766916
1760597229.0078444,12.59870121859748,0.29220385677794286,0.61696178830747,0.2706313990545661,-8.651127502387176,-27.59070708896873,63.40075781416845
1760597229.0178561,13.270397208377602,0.32548525651302457,0.6103533917037232,0.26832343108042445,-1.556782138937886,-21.96078944739031,60.09989068539109
1760597229.0278337,13.92277845172913,0.35476521241882003,0.6070060542423658,0.2646066388186408,4.6790442025959305,-15.339616495097447,57.12891544841357
1760597229.0379233,14.557084359875567,0.3797570830328872,0.6061748853458134,0.2600798107351054,9.990053442585545,-7.921973213371223,54.488817770267
1760597229.047836,15.174065815201192,0.40052695028214913,0.607767942112127,0.25540906035141264,14.360177874685924,0.05177593865482397,52.1622891492365
1760597229.0578685,15.773890783655618,0.41737275759160647,0.612228291720498,0.25123871088137606,17.824347876820823,8.311102002494772,50.10782963172696
1760597229.0678368,16.356036457810916,0.4307010779040257,0.6203204078110036,0.24812407562927186,20.463963333736178,16.57164934366151,48.25776211826711
1760597229.0779357,16.91922111787004,0.44092230768186974,0.6328719112084098,0.24649160987260482,22.396727683485327,24.550880110956314,46.52163319466213
1760597229.0878267,17.461425697878752,0.44837309532650543,0.650518082661285,0.24662586038927,23.76161397796758,31.981504371153083,44.79524383589763
1760597229.0978093,17.980036473877366,0.453266522795989,0.6734858501329487,0.24867571177704487,24.700834943303224,38.62152642214026,42.9741952491118
1760597229.107847,18.47211199220514,0.4556691252458495,0.7014407155634796,0.252670923277559,25.341732370951032,44.26029899313578,40.969641640174835
1760597229.1178296,18.93474825042069,0.4555079335235892,0.7334061420699765,0.25854663965545727,25.782227842319045,48.720678705561404,38.72318536691659
1760597229.1278605,19.365493738371374,0.45261438884204,0.7677559882961731,0.2661771829656825,26.083327166750767,51.85813326438279,36.21775820349195
1760597229.1378322,19.762752906978314,0.4468091354814377,0.8022820891821061,0.2754089322424594,26.270775580335727,53.558292282769145,33.48198512958316
1760597229.1478305,20.126112566459234,0.43802158724760987,0.8343458905395532,0.28606382761720767,26.34561028718862,53.734740336252585,30.586759797581614
1760597229.1579244,20.456530714537966,0.4264257547679256,0.8611228860073751,0.2978814877565512,26.300884453151713,52.32872453420425,27.63422793949676
1760597229.1678507,20.756342428201645,0.41256574198426993,0.8799349460491545,0.3103894069496742,26.14018904327172,49.31195136775092,24.740722795958206
1760597229.1778889,21.029062838488237,0.3974445566503614,0.8886411807275262,0.3227311214294623,25.89341617896808,44.69292065849346,22.016192104035714
1760597229.1879346,21.279000270739264,0.38255740499729995,0.8860309989952151,0.33352557123803706,25.62642730719649,38.5265239816863,19.54322737121969
1760597229.1980057,21.51072694399689,0.3698597350135265,0.872147219210218,0.3408500403007791,25.44307940752034,30.926197756647635,17.358992485240016
1760597229.2078927,21.728480095372934,0.361665121127733,0.8484763953226667,0.34240892177995325,25.479452321883187,22.07778514948299,15.443155652117849
1760597229.2179232,21.935573218804443,0.36046847068078725,0.8179756732777134,0.3358796840608217,25.890847460001567,12.254033284184759,13.714248899576884
1760597229.227884,22.133882551090387,0.3686911258115389,0.784937751546016,0.31935898779660193,26.832701283419457,1.82791461652788,12.035646735709783
1760597229.237874,22.323446732224454,0.3883515835801547,0.7547071528538897,0.29180183089065864,28.437473043398963,-8.718207597859275,10.23075447799582
1760597229.2478123,22.502194551767175,0.4206808087425429,0.7332541099619712,0.25335543456770465,30.790696185196598,-18.79157499985966,8.105427505983222
1760597229.257809,22.66580948023124,0.46572078572421827,0.7266053940206675,0.20551692740186817,33.91014007603967,-27.700488610442548,5.474464306329669
1760597229.2678366,22.80774634802805,0.5219604477335855,0.7401402006033291,0.15107450210728768,37.7319082553918,-34.68184852083962,2.1883490693895364
1760597229.2778802,22.919417896438816,0.5860694759420133,0.7777875933881863,0.09382498434302966,42.106222833601976,-38.946866107163885,-1.8437966315410463
1760597229.2878394,22.990554992410317,0.652791650173964,0.8412032187049111,0.03810109610933517,46.803983030581165,-39.74481859701853,-6.638865753698472
1760597229.297881,23.0097188722763,0.7150593844080605,0.9290453919630186,-0.011816891169030256,51.533541799881846,-36.44195146067336,-12.135000369097856
1760597229.307791,22.96492049865818,0.7643843678281487,1.0365032181136558,-0.05230468025383514,55.96601340695214,-28.609457685460153,-18.19881217246065
1760597229.3179095,22.844289861033086,0.7915563742581531,1.1552418722036957,-0.08091157209917912,59.766918136295125,-16.111197585386662,-24.643853994626443
1760597229.3278046,22.63673812459702,0.7876400983478632,1.2739093058947952,-0.09670864856884079,62.631783632523664,0.8209738831934027,-31.25741220965147
1760597229.337887,22.33256687798642,0.7452027096174241,1.3792801759543492,-0.10041040926868539,64.32301062374398,21.538045081856943,-37.830979000557946
1760597229.3478217,21.923999809947233,0.6596393025002975,1.4579912950472964,-0.0942472355113367,64.70464761833185,44.964349055751576,-44.18886478709951
1760597229.357827,21.405637410077144,0.5303967857059565,1.4986611693541496,-0.08160669114882381,63.77078465483787,69.6383772399256,-50.209446445446225
1760597229.3678153,20.77485386241725,0.3618419880687296,1.4940171763010597,-0.06649822068793454,61.66232938005375,93.80892887299422,-55.83457706397363
1760597229.3778217,20.03215631355125,0.16350220066792093,1.4425327762773816,-0.05291921971905716,58.666449532558765,115.58358988971301,-61.06473996445666
1760597229.3879063,19.1815067340968,-0.05053600431914045,1.3490833891053617,-0.044212019233558525,55.19380191262145,133.11695055288803,-65.94047077060544
1760597229.397921,18.230573407504732,-0.2631210357276418,1.2243315794352054,-0.0425075937294347,51.73172702047039,144.81643669185107,-70.51390781180726
1760597229.4079032,17.19084995434353,-0.45622853394781027,1.0829223303451125,-0.04835389284062268,48.77694582333266,149.5366413864505,-74.81715549893278
1760597229.4178128,16.07757394898678,-0.61342011272713,0.940948303355438,-0.060616553745542555,46.75753947517438,146.7310500419745,-78.83530268725272
1760597229.4278271,14.909403170100296,-0.7220301448906647,0.8133435248860608,-0.07670536007214737,45.95869661165997,136.53431019668372,-82.49066144846219
1760597229.4378145,13.707853498112993,-0.7746292072108236,0.7118059018788397,-0.09311546081447462,46.467759867227564,119.75856436831717,-85.64150767609566
1760597229.4478924,12.49654039473921,-0.7695563659844011,0.6436029212887588,-0.10618894095886122,48.15085306025207,97.80226248828525,-88.09494335456561
1760597229.458007,11.30027138320699,-0.710591497458067,0.6113132975323486,-0.11292851122570201,50.66696000640065,72.48600165128973,-89.6310851831604
1760597229.4682345,10.144010525978109,-0.6060242442026549,0.6133159254252276,-0.11166441657055699,53.51790469491702,45.84296001852268,-90.03492838357288
1760597229.478403,9.051705881554303,-0.4674119785119528,0.6447213228889763,-0.10240789870354798,56.126056860212344,19.89789365080808,-89.13198335782991
1760597229.4883409,8.044971978598056,-0.30824485147714886,0.6984547438781906,-0.0868129116498212,57.92654096430213,-3.532677559058858,-86.82315332758866
1760597229.4984906,7.141664353751607,-0.14264031039913552,0.7662986078771944,-0.0677794895484619,58.45767738536897,-22.994271600219495,-83.11332143525537
1760597229.5083768,6.354453437383426,0.015860870771509095,0.8398179828517169,-0.04882370725355231,57.43319108846079,-37.48902965718494,-78.1276860526094
1760597229.5186746,5.689565592776133,0.15532665271678162,0.9111686294939879,-0.03337986452126129,54.78318404339027,-46.510255993866195,-72.11104730817186
1760597229.5286734,5.145883970751946,0.26622074292904635,0.973795504606328,-0.024188447854192132,50.65750176159777,-50.026173430888996,-65.40824820416822
1760597229.5381565,4.714587598938348,0.3419023997576774,1.0229875025174384,-0.022879163700451014,45.393020119825735,-48.42757065245343,-58.42800693019899
1760597229.5478847,4.379464503819248,0.37885366976296114,1.0562102665929285,-0.029804485670081992,39.45331134897815,-42.45401847372539,-51.596078299378775
1760597229.5582225,4.117970725493514,0.3766891742137792,1.0731378915066576,-0.044127551802471306,33.35359110523602,-33.109314997287676,-45.30590458966048
1760597229.568255,3.9030202384887955,0.3380001891151027,1.0753588013621411,-0.06412047113662073,27.585208684982103,-21.57163505695185,-39.87518080297784
1760597229.5784082,3.7053819103871137,0.26805250189249596,1.0658175752383734,-0.08758665339710703,22.552394878554587,-9.100270464101145,-35.51522012806317
1760597229.5878341,3.4964435899267134,0.17433058694755157,1.0481288103305078,-0.11229625719448497,18.530200236408017,3.059834190289792,-32.317196868444256
1760597229.597853,3.251009737964895,0.06591780653967161,1.025923092925324,-0.13633282292983698,15.647490853716787,13.772725738372683,-30.255966697810027
1760597229.6078591,2.9497607674151722,-0.047277042616505734,1.002350599435807,-0.1582886004145481,13.893699874623206,22.099366388191104,-29.208962343813834
1760597229.6179178,2.5810382644166903,-0.15540041056679402,0.9797986291000812,-0.17729418023601679,13.144004737807583,27.370652807493652,-28.985300293925423
1760597229.6279113,2.141722083005445,-0.24955692229030915,0.9598112823181212,-0.1929058856368974,13.195513150379778,29.23683724709878,-29.3591206472403
1760597229.6378894,1.637101713136986,-0.32262603450447946,0.9431574670608384,-0.20489770871874124,13.806892791734507,27.686256747773477,-30.101381328542228
1760597229.6478426,1.0797825042548193,-0.3698860591605686,0.9299823036732032,-0.2130178520723005,14.735089997872048,23.029595701163938,-31.005605365012602
1760597229.6578407,0.48779069236842276,-0.3893635036633967,0.9199873167224031,-0.21677675353212966,15.76468394262015,15.850277800469604,-31.90499729184375
1760597229.6679068,-0.1178545844304268,-0.3818625125718154,0.9126034858894794,-0.21533092000687862,16.727523373533526,6.926279795041525,-32.6803696579277
1760597229.67788,-0.7157583472097478,-0.35067226853375727,0.9071384917350074,-0.20750885470771296,17.512242913442723,-2.8670816049025656,-33.259991483535316
1760597229.6878507,-1.2865859265094395,-0.3009957285756022,0.9028911279524943,-0.19199219471302745,18.06476693191417,-12.660775686764072,-33.613535497919266
1760597229.6978362,-1.8149917213145006,-0.2391857157464946,0.8992327963095107,-0.16762625648628762,18.38179839775451,-21.68830090713643,-33.74272087318277
1760597229.7080412,-2.290824957046156,-0.1719056278225562,0.8956607820952227,-0.13380071514001837,18.499569248869587,-29.36185922072924,-33.671102830421624
1760597229.717829,-2.709543688605877,-0.10534205274197733,0.8918307840417478,-0.09082062912275518,18.47998467146692,-35.31903341455007,-33.43487708185529
1760597229.7278774,-3.0719067138887173,-0.044581449141032625,0.8875753088944993,-0.040184208230777334,18.39597610484246,-39.43528531914482,-33.075718694196105
1760597229.7378337,-3.3831103703107988,0.006771298320685991,0.8829103258546123,0.0153037380364675,18.3175910217778,-41.8029698934556,-32.63579987021682
1760597229.7478414,-3.6515835956087943,0.046698396891989694,0.8780280799755845,0.07163032875538883,18.30017449729304,-42.68268788858191,-32.15448795700325
1760597229.757834,-3.8876575358376106,0.07461053815062152,0.8732723413490957,0.12390415264881371,18.3758669919321,-42.4368221751132,-31.66598050305879
1760597229.7678504,-4.10229896701085,0.09097857933463499,0.8690953837394739,0.16689780589724784,18.54938507919452,-41.4573445190474,-31.19727943379861
1760597229.7778287,-4.306050875778091,0.09684459973267849,0.8660047130070696,0.1957313621874166,18.798534630521996,-40.100101630203454,-30.76627245678743
1760597229.7878432,-4.508263974641598,0.09332381063305177,0.8645197767578008,0.206562444174138,19.079155002139277,-38.63583599834548,-30.38004644013229
1760597229.7978296,-4.7166346880516095,0.08121236081894886,0.8651636985927473,0.197118643730242,19.333392702928922,-37.224580900810444,-30.033729796034287
1760597229.8079093,-4.937001443235696,0.06079227766319225,0.8684991000929954,0.166951471835699,19.499563192815078,-35.915481669208106,-29.710103106590694
1760597229.8179069,-5.1733116726916775,0.03187207597370802,0.8751842139323294,0.11739378461766034,19.52150072050639,-34.669381473873294,-29.380014516043243
1760597229.8278618,-5.427669112332413,-0.005965419385566061,0.8860011269140939,0.051296997995726505,19.35529739145024,-33.397557767797856,-29.0034354649556
1760597229.83785,-5.700398714426478,-0.052991702006592326,0.9018129962254717,-0.02734148241918284,18.971791410299783,-32.00754779272351,-28.53090579320072
1760597229.8478825,-5.990105176302766,-0.10894466644094168,0.9234364873729114,-0.1137699028473156,18.354089091932376,-30.446401857679085,-27.90517045694728
1760597229.857854,-6.2937321658229735,-0.1727212740276811,0.9514490129892231,-0.20284113534947587,17.49059893538123,-28.7328295848166,-27.06294859837732
1760597229.867855,-6.606644732195652,-0.24221862056584706,0.9859721878018866,-0.2893222707924162,16.365202925977407,-26.972159031537256,-25.936905585204126
1760597229.8779507,-6.922758230726323,-0.31435784945485107,1.0264791148478525,-0.3681614830515167,14.94701608843606,-25.351333778310106,-24.45793905935885
1760597229.8879108,-7.234727696209298,-0.38529493714106516,1.0716666593049196,-0.43472862910692517,13.182503797818839,-24.11482232290049,-22.557815238167386
1760597229.897851,-7.534196003006008,-0.45079360171751615,1.119420582153971,-0.48504273369118794,10.992440150114597,-23.52578358302504,-20.172043092561445
1760597229.9078622,-7.812081740270186,-0.5067064464652066,1.1668872153292245,-0.5159858465053347,8.275341813579661,-23.819614909600013,-17.242741160120687
1760597229.9178827,-8.058874529970707,-0.5494845544029039,1.2106539926051458,-0.5254857528365762,4.9177833747672155,-25.15861733762593,-13.721222680499972
1760597229.927829,-8.264902004701687,-0.5766214920620462,1.24703275491769,-0.5126418106179347,0.8106101724690329,-27.596510365541263,-9.570126146155236
1760597229.9378412,-8.420540330125574,-0.586944211344993,1.2724308481477062,-0.4777769177010435,-4.131294748711671,-31.05970842412405,-4.76509510058036
1760597229.9478593,-8.51635653035029,-0.5806950579768159,1.2837807193921391,-0.4224160077865999,-9.949115189987578,-35.3488951993107,0.703837196868466
1760597229.9578357,-8.543191725134035,-0.5593983475502852,1.278978439163137,-0.3492004811059393,-16.623980114209747,-40.160299960847475,6.830963280710609
1760597229.9678519,-8.492214528573367,-0.5255529234108617,1.2572637725944424,-0.2617444862259691,-24.068147340246217,-45.12229726278959,13.593615922626311
1760597229.9778483,-8.354987936714142,-0.48222254680684856,1.2194711311438249,-0.16443402527424503,-32.12582209981568,-49.84047182716052,20.95091940330857
1760597229.9878542,-8.123597719116727,-0.4326057753194203,1.1680961842240407,-0.062171887431636125,-40.584165749305754,-53.943540733573315,28.84265271464003
1760597229.9978402,-7.790884913484723,-0.3796609895880762,1.1071510142325032,0.039921939114748534,-49.19308981730551,-57.123373417384364,37.18819003073899
1760597230.0078468,-7.350809503050744,-0.3258437623669724,1.0418125526620299,0.13683942849754951,-57.69067605582924,-59.1643066856645,45.88535841312884
1760597230.0179148,-6.798946615234187,-0.2729847552223384,0.9778983874791402,0.22402602040325545,-65.82983020268901,-59.959370866248044,54.809090974009386
1760597230.0278606,-6.133082178383487,-0.22230276035541222,0.9212275536044244,0.29771295784728563,-73.40130384932179,-59.51331927716562,63.810041380840225
1760597230.0379264,-5.353837661786922,-0.17451954875706757,0.8769405620031879,0.3552064109929403,-80.2486635619432,-57.934084390511394,72.71380713767151
1760597230.0478933,-4.465224418062097,-0.130029126879017,0.8488637789803806,0.3950842964485414,-86.27218291294103,-55.415287787903786,81.32186948427363
1760597230.057952,-3.475021259705419,-0.08907494832077277,0.8390101458983598,0.41725524717450146,-91.42084013198813,-52.21272889805135,89.41548704223909
1760597230.067949,-2.394892032359307,-0.051899171654587836,0.84730539695309,0.4228681628824002,-95.67421703454708,-48.61762148848641,96.76338005663429
1760597230.0778735,-1.2402026887985032,-0.018840731990766812,0.8715984093034966,0.41410417244373404,-99.01847033538307,-44.929061974085556,103.13323378311604
1760597230.0878923,-0.029533733836921205,0.009632415753001583,0.9079519494523174,0.3939037151587115,-101.42209569728136,-41.42791038201025,108.30623360045267
1760597230.0978842,1.216101712444274,0.03296838919419004,0.9511536943087476,0.3656753605839997,-102.81760404420052,-38.35384820160717,112.09336300049083
1760597230.1078434,2.4743165481483023,0.050660655738690843,0.9953771374384801,0.3330170590792745,-103.09434552180142,-35.886808851194054,114.35206128292941
1760597230.1178524,3.7226392994063486,0.062452462291685835,1.0349334032020583,0.29946371134650207,-102.10562064489808,-34.13336713398089,115.0018156512861
1760597230.1278555,4.939937210811629,0.06857996610660423,1.065027893012855,0.26825841202199596,-99.690307473577,-33.11822540758168,114.03712329540238
1760597230.1378288,6.107827112369486,0.06998922463639325,1.0823764699401595,0.2421362623290851,-95.70607923296724,-32.780895563274505,111.53597641221899
1760597230.1478362,7.211909700833898,0.06844563382220695,1.0855278974113738,0.22311662423281095,-90.06839459435554,-32.97815970656009,107.6618454077392
1760597230.1579087,8.24267448002136,0.06646108135973894,1.074828065925845,0.21231707465513344,-82.78735065198217,-33.49358199781737,102.65742971093022
1760597230.167896,9.195952167582456,0.06700123677610949,1.0520885386550403,0.20981909481127387,-73.99391530683351,-34.055531340837284,96.82938563374917
1760597230.1778836,10.072834374320852,0.07299662140808144,1.0200993155878382,0.21462501951388077,-63.94856828206103,-34.364268861567595,90.52465358258495
1760597230.1878414,10.879039756105373,0.0867456396128647,0.9821249861811996,0.22474475298059185,-53.02883296147648,-34.126676090083706,84.10050831115717
1760597230.1978254,11.623780637044453,0.10934375750951268,0.9414719567468612,0.23743599110524566,-41.69662770429934,-33.09478128317788,77.89170004238713
1760597230.2078724,12.318264754983531,0.14028691957490616,0.9011533164737051,0.24959179371042148,-30.450528849075678,-31.102244507946445,72.17885126309984
1760597230.2178624,12.974037357560409,0.17737373734028183,0.8636402631931704,0.25822843608451396,-19.770875112980878,-28.09211584492543,67.16250379880852
1760597230.2278347,13.601410574875935,0.2169711892379838,0.8306878557597774,0.2609863909170137,-10.06668744793635,-24.12987991243403,62.94673755748942
1760597230.2378502,14.208222888036287,0.2546213836729679,0.8032428651497443,0.25653632891918754,-1.6327727371465646,-19.39801657828891,59.53503254694717
1760597230.2478662,14.799114634208728,0.28587357344236153,0.7814528506103016,0.24479589199556331,5.376428271256127,-14.171625669294858,56.8391306797015
1760597230.258061,15.375406405252464,0.30715845294055555,0.7647832514094116,0.2269116534350067,10.952338624103406,-8.778389933138182,54.69941059496411
1760597230.267905,15.935551894027338,0.3165069392546522,0.7522231900778884,0.20502383884221745,15.216481053895231,-3.549428965736251,52.913239830618224
1760597230.277848,16.476034187789118,0.31395551136670474,0.7425387411924425,0.18188068438753371,18.386524848207465,1.2303887723966955,51.26646243860714
1760597230.287913,16.99250523117332,0.3015568094727491,0.73452435798221,0.1603890580116859,20.730663071574778,5.36382103557321,49.56293515973117
1760597230.297834,17.480941406029235,0.2830040728874215,0.7272099083829562,0.1431835885286284,22.51916785178616,8.766886029302805,47.64779080114531
1760597230.3078432,17.938604203404793,0.26295996127821153,0.7199978974146507,0.13228141079169517,23.98237780047949,11.474168060466617,45.42158457965934
1760597230.3179119,18.364647581768004,0.24623694439630145,0.7127247900878517,0.12886891778039355,25.282540631326093,13.623030759436851,42.844333417902675
1760597230.3278375,18.760291059567344,0.23699583578334998,0.7056547321815327,0.13323883063468264,26.503286900488913,15.420141400034076,39.93037036324565
1760597230.3378487,19.12856375150156,0.23810858996983258,0.6994210578724396,0.14486320928029553,27.656140724480565,17.09726803242488,36.73653668860317
1760597230.3478563,19.473702325724677,0.2507808660935006,0.6949310574453391,0.16256151423320903,28.699716956702055,18.865205083777603,33.3471412554939
1760597230.3578317,19.800341613213785,0.2744674068704337,0.6932435663954303,0.18471340056652416,29.56511991925613,20.874298894445197,29.85910887959691
1760597230.3678772,20.112662861102812,0.3070567804444561,0.6954213772370327,0.20947516324812207,30.180875010172706,23.187670532237018,26.369901387173744
1760597230.3779562,20.413660287013407,0.34526225943064687,0.7023589750906675,0.2349775951348791,30.49218287789023,25.76992230424628,22.969501553686463
1760597230.3879519,20.704655381863844,0.38513526672433424,0.7145953670002161,0.25949890086533667,30.471728211709593,28.490988510510835,19.736468233310596
1760597230.3978856,20.985136501155736,0.4226137776507403,0.7321377350169754,0.2816109662835022,30.12194945826535,31.142469326680548,16.73711746119892
1760597230.408453,21.252936637659673,0.45402635283919973,0.7543336982391846,0.30028986947066416,29.47088169320811,33.46240338099883,14.02635294814511
1760597230.41785,21.504696647283968,0.476491698273021,0.779829549026066,0.3149695806188473,28.564904446026176,35.16395011559224,11.648556607349356
1760597230.4278746,21.736510323928876,0.4881816869096476,0.8066383711605827,0.325515876144074,27.461738917817758,35.963818529429616,9.637242236133352
1760597230.4378567,21.94462465405712,0.4884453706409076,0.8323219971053617,0.3321159761846747,26.225982611474898,35.60738746202166,8.012778765921245
1760597230.4480112,22.12607523433214,0.47781358901819776,0.8542726081288865,0.33511026771782665,24.927851742344078,33.889021448900195,6.7782021454303445
1760597230.4578815,22.279163491960542,0.4579135237666183,0.870066938878845,0.33481385724978563,23.64434335132471,30.667620922404403,5.913780705067421
1760597230.4679143,22.403715399480955,0.4313196768498086,0.8778556881209312,0.33137426128133846,22.4612689692343,25.87853094412719,5.371513532887454
1760597230.477853,22.501091241909513,0.40135525786755033,0.8767399273314533,0.32469416276537894,21.474577895969247,19.54337947881954,5.071092781981637
1760597230.487843,22.573941069112262,0.37184337763947856,0.8670769486665839,0.3144308408264398,20.78968317973161,11.77920406995508,4.898959341749517
1760597230.4978359,22.62572609743551,0.34680064010614625,0.8506547917017897,0.3000744386378348,20.51773893879619,2.8074044993488085,4.711824031998591
1760597230.5078967,22.66005824785842,0.3300723550537296,0.8306822619107992,0.2811003146657284,20.767987920978307,-7.038223627264586,4.345405044050356
1760597230.5178502,22.679946966778452,0.32492627699888027,0.8115623793192346,0.2571771105855453,21.635731212354102,-17.306592730482564,3.628260441135528
1760597230.5278752,22.687074973286624,0.333641954230664,0.7984491056212193,0.2283911100204009,23.186418361241167,-27.431062429295437,2.3996395962062484
1760597230.5378704,22.681238977699753,0.35714522114495073,0.7966212844691501,0.1954296286614094,25.4376720879868,-36.74194467384676,0.5293985356992967
1760597230.547845,22.660074691867894,0.39473511643836506,0.8107364887921336,0.15966508421515765,28.342289142005633,-44.493539845561585,-2.0626337993477537
1760597230.5578353,22.619132692520154,0.4439353599335046,0.8440498334113771,0.12310208342207311,31.77593203467937,-49.90801697103381,-5.39076090153224
1760597230.5681658,22.552295397405413,0.5004865154255438,0.8977007623117643,0.08818407447334285,35.533108279547456,-52.23607356862934,-9.393812037762737
1760597230.5778403,22.452452553214428,0.5584909420027908,0.9701833800948859,0.057487576958350745,39.33417737765144,-50.831346063928756,-13.934137527099299
1760597230.5878296,22.31230667288334,0.6107317663253292,1.0571178031747894,0.033349870674774365,42.844770087468,-45.23245453867417,-18.806673686834
1760597230.5978417,22.125167997480755,0.6491974395126788,1.1514234306288862,0.01748380881391829,45.70736424669798,-35.243814734725746,-23.758368778474285
1760597230.6078491,21.885615689776603,0.6658374092399417,1.2439517736976975,0.010640474621384342,47.58289820349918,-21.004287075522143,-28.51675747329836
1760597230.6178432,21.589939168696745,0.65353824839615,1.3245632215314826,0.012386514239965564,48.19825182508004,-3.0316891445778236,-32.82475769726659
1760597230.6278465,21.236320792939097,0.6072426207642166,1.3835373977981522,0.021056947997105717,47.393431189230995,17.768369111543493,-36.47715621696547
1760597230.6383934,20.824767766271094,0.5250515150757075,1.4131110483542235,0.03391568017308285,45.16084654821897,40.138409023989986,-39.35318640775917
1760597230.6484308,20.35683741303836,0.4090792861986311,1.4088646326215164,0.04750677957186642,41.66871253487847,62.55398261929818,-41.439468336335274
1760597230.6578698,19.83521949335233,0.2658015676369739,1.3706514922368158,0.05812968278720137,37.261705970331235,83.35465487257828,-42.83858431675203
1760597230.6678827,19.263241518450258,0.1056812443880404,1.3028083520522808,0.062349596921529665,32.43474280505212,100.90973244792792,-43.76065987884564
1760597230.6778595,18.644355593820357,-0.05800043139873666,1.213527764060937,0.05747133402978131,27.779997896165472,113.79923893480843,-44.49813858618685
1760597230.6878402,17.98166153837783,-0.2109640123272266,1.1134955201340486,0.04193607249244925,23.912605953977256,120.98476794844191,-45.386794810102266
1760597230.697855,17.277531250824033,-0.3400485528111222,1.014113311076001,0.015610427345398163,21.38567595263124,121.94309354297879,-46.75817517232643
1760597230.7078738,16.533420485134332,-0.43515938779591884,0.9257319360917482,-0.02007963825146666,20.608587153680876,116.73882572136216,-48.88967446487382
1760597230.7178926,15.749967634458901,-0.49062146370561605,0.8562711680697994,-0.062229979287778264,21.782627308299727,106.02099741689206,-51.95846520591316
1760597230.727856,14.92746015335044,-0.5056853153470786,0.8104454535037509,-0.10678994198825256,24.864875742127882,90.9410641128212,-56.00503194526167
1760597230.7378473,14.066683896252975,-0.48416600549192856,0.7896324649557807,-0.14911888182714564,29.566165812432388,73.003799789722,-60.91152544051355
1760597230.7479033,13.170068010382977,-0.4333965452892771,0.792277096373354,-0.18467693563815,35.38353741019241,53.874654569436615,-66.39941862418986
1760597230.7578397,12.242929117657761,-0.36278251781570525,0.8146434171985713,-0.2097258898095753,41.662619833879695,35.17457722689615,-72.0494089568995
1760597230.7678547,11.29454175593392,-0.28225204579038343,0.8517084777425314,-0.22192269642332837,47.68105700051567,18.294786195644146,-77.34366076202114
1760597230.7778919,10.338744907008106,-0.2008491231174701,0.8980141242239171,-0.2207147145238303,52.74072884215061,4.259417501899823,-81.72652093574887
1760597230.7878983,9.3938430260289,-0.1256612837107809,0.9483358473212387,-0.2074667450544364,56.2549685042533,-6.345803904491845,-84.67581252889347
1760597230.797924,8.481661808530696,-0.06121514716120588,0.9980893343156919,-0.18526773358582704,57.818039356127024,-13.373919503584846,-85.77405323531538
1760597230.8078513,7.625753855428329,-0.009403133952375752,1.0434817825071432,-0.15841042491323676,57.24771037757046,-17.054853861641494,-84.76834151792836
1760597230.817887,6.848898146054357,0.0300857908636191,1.0815036987956779,-0.13162239346258614,54.59665491525167,-17.89088413250232,-81.60928860850498
1760597230.827866,6.170182433423302,0.058958065296672434,1.1098965472655924,-0.10921261520242269,50.13322316487375,-16.534672543014963,-76.46273547691118
1760597230.8379204,5.60208046937538,0.07934260550384523,1.127192085584421,-0.09433154745916589,44.29622669040095,-13.674642678821193,-69.6923210783453
1760597230.8478518,5.148012218745348,0.09290948604393387,1.1328249807565338,-0.08850974065767944,37.631554148084184,-9.946622846123523,-61.8155226510794
1760597230.857873,4.800876091883471,0.10031250401511851,1.1272329693005168,-0.0915599084534672,30.72042851609952,-5.881222251485253,-53.43994118828667
1760597230.867871,4.542943509300964,0.10108808110186164,1.1118356897134942,-0.10182858280425276,24.10956381095464,-1.8862444194445476,-45.18974696631439
1760597230.8778765,4.347302609867374,0.09399668038425485,1.0888373006533978,-0.11669753739067619,18.25241192068849,1.7443209456372963,-37.63369306984056
1760597230.887845,4.180754938779623,0.07765682508266145,1.0608872874002657,-0.1331910851555634,13.468477355266497,4.8067080488369225,-31.225479157618732
1760597230.8978524,4.00776778860069,0.05124853602961245,1.0306975628589117,-0.14855109810574918,9.924627336481855,7.160587134151894,-26.264503153769112
1760597230.9082057,3.7948533511090607,0.01507339535116754,1.0007196381633332,-0.16067907731940692,7.6387059066736684,8.70729783651776,-22.880789963271983
1760597230.9178464,3.514661693979845,-0.02916596391949661,0.9729438048036989,-0.16838934633550928,6.502153377096709,9.377279050724717,-21.043244385911382
1760597230.927857,3.14915900522467,-0.07840612572524168,0.9488268856465268,-0.17145735963745865,6.315571390452847,9.127219023824047,-20.586545900488044
1760597230.9378378,2.691469001110117,-0.12854163937450913,0.9293159534432209,-0.17048152678641249,6.829882657126276,7.944784372606726,-21.24978458583695
1760597230.9478316,2.146207154596656,-0.17493542648847182,0.9149227051672103,-0.16660613025031215,7.786032830134448,5.857205816938242,-22.719480964284067
1760597230.9578464,1.5283742621244818,-0.2130181459224498,0.9058098266934925,-0.16117315632490337,8.947742109408525,2.93941727221012,-24.670576660855524
1760597230.9678655,0.8610689165192913,-0.23887480737310052,0.9018644531579845,-0.15537733830315878,10.12404517579969,-0.6821921773817186,-26.800740892531213
1760597230.977852,0.1724152370336786,-0.2497283802430825,0.9027469803382444,-0.14999035102409236,11.180631723952438,-4.833123954513384,-28.855335135593975
1760597230.9879234,-0.5078283189099448,-0.24425274231711427,0.9079139943477297,-0.14520061473256937,12.040880440638546,-9.302076544894636,-30.6421995614398
1760597230.9978626,-1.1515193376213895,-0.2226804560007831,0.9166223200356959,-0.14059047998356775,12.678789797704098,-13.859051479211614,-32.03686210156027
1760597231.0078633,-1.7348592511471945,-0.18670848457928102,0.9279273049266923,-0.13524810505865512,13.106714395558233,-18.277395283273478,-32.97976800912044
1760597231.01789,-2.2403468528122605,-0.1392387332891278,0.9406915547365745,-0.12799026943468864,13.360932751125723,-22.355924117916707,-33.4676861288812
1760597231.0278544,-2.6578560787745147,-0.08401339407717714,0.9536191354264666,-0.117655469390398,13.487684271610894,-25.937167723180043,-33.54158267940185
1760597231.0378325,-2.984872791937221,-0.025213722553220092,0.9653250524576883,-0.10341476221137018,13.531576102047863,-28.91850364246629,-33.27301339363409
1760597231.0478528,-3.226022550636149,0.03291493865779039,0.9744427335916742,-0.08504370240982889,13.527379810006545,-31.254371374892223,-32.75058878471154
1760597231.0578864,-3.392070609998941,0.08636615890031975,0.9797647501832668,-0.0631049296284767,13.495441401736239,-32.949587045596886,-32.06749687696114
1760597231.0678887,-3.4985817729931035,0.1315812233295302,0.9804039360699848,-0.03900653822986637,13.440393916398074,-34.04563139679721,-31.31060885702602
1760597231.0779824,-3.5644044768965104,0.1655660404936328,0.9759538211779928,-0.014921244244483942,13.352615263709371,-34.60322524970599,-30.551455264028252
1760597231.087878,-3.6101061166987836,0.1859385854021551,0.9666213356779424,0.006430074572585951,13.211784841255541,-34.68520425525828,-29.839329690573162
1760597231.097881,-3.6564480930322953,0.1909409828500473,0.9533037975565805,0.022111022678059436,12.991798191133054,-34.34352270800448,-29.19683851839946
1760597231.1078436,-3.722957529504447,0.17945178551481533,0.9375870823047878,0.029382146121445823,12.666133036331148,-33.613214855712904,-28.618223397829105
1760597231.1179256,-3.826631355768986,0.15102516093550097,0.921651327277505,0.02613604890437856,12.21258782053959,-32.51453120521623,-28.07063625064543
1760597231.127875,-3.9807989017200414,0.105965770245666,0.908082572481791,0.011278699196161087,11.616267614350958,-31.062573265670643,-27.498241881345784
1760597231.137885,-4.194173224413123,0.04542536759587016,0.8996018952605043,-0.015023844836330413,10.86988065659235,-29.281985435097706,-26.828660885536102
1760597231.1478763,-4.470139126092831,-0.028512549729870173,0.8987368896572387,-0.05129198844737433,9.970885727089303,-27.223049328234687,-25.980975278093204
1760597231.1578732,-4.806350384343332,-0.11280337389454621,0.9074723944015699,-0.09488653669648885,8.915782934367968,-24.97515411069468,-24.874370657950443
1760597231.1679072,-5.1947260772656945,-0.20350851819704865,0.9269259707462261,-0.14233541913201594,7.69273051034739,-22.674112350895072,-23.43646488675936
1760597231.1778877,-5.62192974071688,-0.29598772244521515,0.9570964950227593,-0.1897643952154687,6.274416802926231,-20.50092759197771,-21.61041004544112
1760597231.1878557,-6.070372625620018,-0.3852230037754184,0.9967300797199662,-0.23335200227863664,4.6134125043426515,-18.67109125393995,-19.359908388433364
1760597231.1978612,-6.519700660220934,-0.4662506879324115,1.0433370304253207,-0.26973972101983573,2.641908901686581,-17.415076602272155,-16.67139037142532
1760597231.2078724,-6.948617804661104,-0.5346463723869033,1.0933788788967038,-0.29635115088659814,0.2768664558079333,-16.952280205855242,-13.552872848184668
1760597231.2178783,-7.336798641676369,-0.5869843889611674,1.1426258151509974,-0.31159687693291344,-2.5696174438301504,-17.46206253327861,-10.02953431275326
1760597231.2278423,-7.666591974643019,-0.6211875159385414,1.1866579578140197,-0.31495672319257173,-5.976144575552475,-19.056450699013933,-6.136760502300849
1760597231.2378526,-7.924245910670175,-0.63669856806925,1.2214472622828543,-0.30693795706667754,-9.99641469953478,-21.759156616121636,-1.9121214422105606
1760597231.2478435,-8.100491528940456,-0.6344399810827913,1.2439214447620173,-0.28891316469635187,-14.644976549634965,-25.494712769837705,2.61182575459259
1760597231.257839,-8.190468008140757,-0.6165712494525504,1.252397918459189,-0.2628524569161708,-19.88699796860602,-30.08992794395553,7.4120576490464165
1760597231.2678602,-8.193105021898717,-0.5860952680893092,1.2467972703840677,-0.23098336289554103,-25.634123505238595,-35.28788250671659,12.47564165339854
1760597231.2778823,-8.110163167585698,-0.5463929384139453,1.2285943366426444,-0.19543292085087996,-31.74752315486588,-40.77266693090562,17.795972457644485
1760597231.2879412,-7.945161653316488,-0.500774715897387,1.200520101303088,-0.15792132964104488,-38.04802193265371,-46.201310886418405,23.36535061536771
1760597231.297918,-7.702402954502541,-0.4521273674635641,1.1660742771710368,-0.11957744456313596,-44.33192499570941,-51.23816797457391,29.165417526235803
1760597231.307903,-7.386250848720391,-0.40270789230914544,1.1289412400642884,-0.08092854757406351,-50.39009734150742,-55.58676073090073,35.157481263724506
1760597231.3178716,-7.0007461197513745,-0.35410094708882994,1.0924179631609647,-0.04207878120331689,-56.02726096488734,-59.0149412763059,41.27487400404637
1760597231.327903,-6.549567759722993,-0.3073186651968556,1.0589583354961343,-0.0030362142746387,-61.078401587830704,-61.37096067889117,47.419147689625596
1760597231.3378778,-6.036279441348565,-0.26298946633226417,1.0299143030939761,0.03591184185275302,-65.41959787654491,-62.590030051711565,53.46120217272749
1760597231.3478808,-5.464751730597889,-0.22156383268468324,1.0055151417410726,0.07392152025457435,-68.97152068710997,-62.69247625541934,59.24751626361409
1760597231.357925,-4.839628012730966,-0.18347070579782887,0.9850771473720581,0.10955591844638096,-71.6953024737432,-61.77523539931498,64.6107305117604
1760597231.3679414,-4.166709791892108,-0.1491893278530739,0.9673843425331529,0.14104887175998249,-73.5821571692682,-59.998325080684126,69.3831075309153
1760597231.3778763,-3.4531691492253875,-0.11923828853219944,0.9511376743360307,0.16678567533579566,-74.63943015961058,-57.56761588516028,73.41100772313804
1760597231.387903,-2.7075388919872965,-0.09410166110947273,0.9353503191474888,0.1857998192055889,-74.87625211031946,-54.715077429519326,76.56850463005861
1760597231.3978965,-1.9394712878283247,-0.0741107324237766,0.9195846025746893,0.1980744325789341,-74.29184401055119,-51.6776816502004,78.7685707512545
1760597231.4078891,-1.159289223362212,-0.05929904344663157,0.9039838745013137,0.20453831367403613,-72.8691718152484,-48.676179983006016,79.97077180400362
1760597231.4178739,-0.377380359548864,-0.04925945116439271,0.8891276735867185,0.2067864347690411,-70.57602839987645,-45.89510483890661,80.184955028834
1760597231.4278722,0.3964931995881316,-0.04304560810961703,0.875792742825226,0.20665163292984556,-67.37437178024274,-43.4656345646194,79.47086899508548
1760597231.4379158,1.1538812671848562,-0.03916271863384819,0.864712744620123,0.20577521070578486,-63.23686614732758,-41.45320632870936,77.93395216349869
1760597231.4478772,1.8882322074725457,-0.03567924766541571,0.8564028842724266,0.2052870033850672,-58.16754494479445,-39.85172026146131,75.71767860568933
1760597231.4578624,2.595288139907285,-0.03046581244952678,0.8510750122779316,0.20564578572283163,-52.2219322839723,-38.58580849639414,72.99289725938097
1760597231.46788,3.2732154444503943,-0.02153403573339968,0.8486331977058521,0.20664020372897696,-45.521307137629115,-37.52195580192871,69.94466458480021
1760597231.477926,3.922432572659549,-0.007412687064350506,0.8487191076925955,0.20752402553541055,-38.2564935073084,-36.488108135091124,66.75730686121454
1760597231.487869,4.5451474301548265,0.012526963635546222,0.850773481497565,0.20725030794635455,-30.678737762722285,-35.299708983734575,63.59891098728807
1760597231.4978766,5.144672671139333,0.037885616179616284,0.854090957554324,0.20476028649762515,-23.078394790227115,-33.78825942601825,60.60698000900048
1760597231.507866,5.724634488486748,0.06724952768220709,0.8578621968022359,0.1992693309394372,-15.755274788774535,-31.827347290130213,57.87730915420139
1760597231.5178807,6.28821516983922,0.09841130205142597,0.8612103965784886,0.190486044107594,-8.986555075810395,-29.35134202813553,55.457971190114414
1760597231.5279105,6.837565274962612,0.12875399053959619,0.8632334470818669,0.17871580647347535,-2.99849703029763,-26.363620114925514,53.34955412067243
1760597231.5378685,7.373489656402181,0.1557192147428335,0.8630592507353095,0.16483501228610303,2.0531271482243123,-22.93355989613302,51.51163839642361
1760597231.5478597,7.8954599273557085,0.17726542539962695,0.8599152866196308,0.15015778336137628,6.091323088885645,-19.18373821863734,49.87431109834027
1760597231.557881,8.40194428893624,0.19222601951554716,0.8532080328916888,0.13623568497642788,9.114806797907324,-15.270315550935756,48.35266473711953
1760597231.5678773,8.8909857478315,0.20049827470976211,0.8426033814868884,0.12463238200498736,11.185659375770907,-11.360509199621891,46.861893708972026
1760597231.5778654,9.360914422867193,0.20303190333323612,0.828095234224424,0.11670957279984727,12.411293706041823,-7.611341801783308,45.3307448267432
1760597231.587859,9.811059065197112,0.20163237891557634,0.8100478651929566,0.11345470887410587,12.924944487729741,-4.153341818746817,43.7115609806006
1760597231.5978599,10.242330306386576,0.19863446962466094,0.7892003467091638,0.1153739884133296,12.868473364649242,-1.0814917996441535,41.98583365257239
1760597231.6078575,10.657577998041738,0.19652242512393375,0.7666277363007022,0.12246311859991607,12.379965683724706,1.5461884602071017,40.16493199333772
1760597231.6178803,11.061666487819316,0.19757046911232437,0.7436614483667121,0.1342539014377222,11.586840151115354,3.7038307033395625,38.28640200943993
1760597231.627873,11.46125451423052,0.20355644822342384,0.7217775811160309,0.14992061955957595,10.603577048158462,5.3892073055460585,36.40682577356756
1760597231.6379545,11.864304690346703,0.21557500573321614,0.7024644299283326,0.16842115244825123,9.532169742977393,6.614270509558991,34.592602007045805
1760597231.6478631,12.279379127649117,0.23395525328652686,0.6870794592738924,0.1886458366484894,8.463219335784238,7.396924167544846,32.91011647626615
1760597231.6579294,12.714800814211042,0.25827402398746363,0.6767062336517627,0.2095499821680686,7.476103586607108,7.755186914263148,31.416654221579112
1760597231.6681354,13.177772278556944,0.2874459939565861,0.6720259439333953,0.23025114022637252,6.637537931953646,7.703820012759582,30.153132703898777
1760597231.6779075,13.673544012599148,0.31986561561717436,0.6732215741759683,0.2500819817347669,5.998778241257442,7.252671439934469,29.13933706710923
1760597231.6878653,14.204720283980015,0.3535770560649891,0.6799293522538952,0.26860496623976043,5.592444333330455,6.405636849473054,28.371835336872035
1760597231.6978726,14.770783018016973,0.3864581046748822,0.6912445047225936,0.28560476806130136,5.430319524618711,5.159319920075864,27.824224210926488
1760597231.7079098,15.367899928111818,0.416414540318939,0.705785341285288,0.3010648891752894,5.5034906777216905,3.5010823853244046,27.448977263174037
1760597231.7179239,15.989052469588035,0.44158342670069517,0.7218229148091733,0.315114088508816,5.78590938965093,1.4069849592774573,27.18011925426316
1760597231.7278652,16.62447423897873,0.4605363574559907,0.7374826502625306,0.3279236656616406,6.241859233532829,-1.1590888685096659,26.93626867461778
1760597231.7379656,17.262344078169885,0.47246350839910517,0.751010059385266,0.3395597398285954,6.836806014697403,-4.2432810330306765,26.62408200054458
1760597231.7478921,17.88964378511263,0.4773132916827539,0.7610696888477181,0.34982545606544463,7.549825090383658,-7.894699195269295,26.14247930150731
1760597231.757886,18.493075195321666,0.47586299304338686,0.7670289202257015,0.35814208437436773,8.384747357929255,-12.152268236886966,25.388007947149134
1760597231.7679152,19.059935382208543,0.46970085825900837,0.7691749195993968,0.36351113374234445,9.376857495519163,-17.02563464141221,24.26133181486123
1760597231.7779028,19.578865185973864,0.4611061144684419,0.7688219497414254,0.364580983465333,10.592551488731237,-22.471795578283498,22.674351547835663
1760597231.7878907,20.040407989164372,0.4528205794715078,0.7682806563137974,0.359818741985275,12.12060865477787,-28.37046082865498,20.55712688910964
1760597231.797968,20.43734030115858,0.4477169018906578,0.7706759954357005,0.3477652068946625,14.055359268063267,-34.50213213092325,17.86370433907094
1760597231.807976,20.764762098578757,0.44838383970998674,0.7796156743058752,0.327331591432821,16.473776759120103,-40.533503244027074,14.576116481753877
1760597231.8179426,21.019958499694237,0.4566648614974636,0.7987283276593496,0.29808499697116536,19.410147871405094,-46.015011636896986,10.706118292908275
1760597231.8279226,21.2020619241579,0.47320144050675206,0.8311108490401361,0.2604685036118986,22.833169116219626,-50.39501265976585,6.2945848412654755
1760597231.8379898,21.3115579554002,0.4970470530164251,0.8787452508152667,0.2159115018944386,26.630723630280215,-53.053807365126765,1.4088631288690714
1760597231.847918,21.349693328489966,0.5254293162418402,0.94196386139494,0.16680296783650075,30.606921683602522,-53.35845254227388,-3.8613248685873858
1760597231.8579268,21.31786099772466,0.5537396097471462,1.0190536425771897,0.116319427337047,34.494190988091205,-50.73600519604829,-9.40872498123911
1760597231.8679814,21.217049522637858,0.5758156656505804,1.1060898876234682,0.06811737404005272,37.98054200062812,-44.7589841263201,-15.113646217139324
1760597231.877906,21.047444943239473,0.5845496795546048,1.1970699696276808,0.025917966233167274,40.74913674826862,-35.23297081699933,-20.849280012755585
1760597231.8879151,20.80825870023315,0.5728029515425926,1.2843782366574419,-0.006969232433380012,42.52463997197728,-22.273191098441888,-26.487677766292293
1760597231.897928,20.49782467996286,0.5345419362857827,1.3595617197490117,-0.028120359549438402,43.11915506968606,-6.355478967445177,-31.907004985730328
1760597231.9080255,20.1139648417633,0.4660382515627944,1.4143439829980164,-0.03639647316659904,42.47013900924854,11.672020957056672,-37.00045203695974
1760597231.917912,19.654572150537934,0.3669124570199488,1.4417560867906607,-0.032193702035974305,40.663459847311664,30.62629040035517,-41.686535266992536
1760597231.9279127,19.1183120524198,0.24077318659937066,1.4372200543620781,-0.017481128888193385,37.936487903009066,49.07940740059711,-45.91959224464005
1760597231.9379082,18.505313118804,0.0952368482605043,1.3993895636584488,0.0044070631862293316,34.65865235932692,65.49595547129834,-49.698274681093906
1760597231.9479213,17.81771618733866,-0.05877780380905616,1.3305559462999208,0.02921479179583269,31.290107975228366,78.40361036860867,-53.06909913842641
1760597231.9579794,17.059984638763083,-0.20841745497189018,1.236489680643591,0.052387335790400155,28.32274666180541,86.57453840184749,-56.122050575631945
1760597231.9679105,16.238940170388837,-0.3406828565452032,1.125712832031357,0.06977703494786656,26.211268820682438,89.19014785566013,-58.97622615105778
