timestamp,angle,linear_acceleration_x,linear_acceleration_y,linear_acceleration_z,angular_velocity_x,angular_velocity_y,angular_velocity_z
1760679970.4937572,-7.159413473215346,-0.0850717865053256,0.9515234983047176,-0.252446470785713,5.509213074017731,0.4308789782701584,10.34498902130894
1760679970.5037532,-6.975387360260003,-0.08729328985812052,0.9488146519198546,-0.25275193176904776,5.271969628368075,-0.6890054745679237,11.079014993515257
1760679970.5135098,-6.8013113939032435,-0.09058762964801528,0.9467833233822507,-0.2528598619274056,5.013609559220293,-1.9017101664782898,11.730132958885344
1760679970.523538,-6.639239594005642,-0.09467098301025882,0.945662940159834,-0.2529977666697322,4.720983673190272,-3.1717256782742114,12.28319650510827
1760679970.533431,-6.490528622525688,-0.09929107646560763,0.9455784449072623,-0.2533609807596196,4.381351238591932,-4.449871172804777,12.729530577224281
1760679970.543381,-6.356018327994814,-0.10426659901592067,0.9465293840077172,-0.25410772997506015,3.9847985726843516,-5.677067469739483,13.066784129686916
1760679970.553644,-6.236248873194484,-0.10950024093403968,0.9483900728351864,-0.2553613168979771,3.526420123118598,-6.790140069267498,13.298204828442975
1760679970.5635629,-6.131630462641475,-0.11495762409802536,0.9509288001131506,-0.2572148975817934,3.0079037753833227,-7.729118931667608,13.431569238249946
1760679970.5737138,-6.0424883589661595,-0.12061435591768767,0.9538436780368971,-0.2597333197307205,2.4382506340849393,-8.445120829557812,13.478043289687976
1760679970.5833673,-5.96894221866794,-0.12638603059751022,0.956808469284737,-0.2629482162498335,1.8334845546890437,-8.907607421262938,13.451220664963655
1760679970.5934765,-5.910636165754989,-0.13206534564812641,0.9595190990531505,-0.266846248783182,1.215353567085693,-9.109728143778613,13.3664889194989
1760679970.6034148,-5.866392581743491,-0.13729048627289184,0.9617312211941862,-0.2713540274000015,0.6091771754363955,-9.07065519318969,13.24073019883804
1760679970.6135604,-5.833894571959719,-0.14155841896364962,0.9632814199116967,-0.2763251313972005,0.04112407364442937,-8.834284469638627,13.092229676054732
1760679970.6235476,-5.809497118899576,-0.1442807390939467,0.9640894435702795,-0.28153430770165355,-0.46471504688272997,-8.464317333399398,12.940592314638192
1760679970.6333303,-5.788230817073765,-0.1448663899856697,0.9641450897408469,-0.28668192342223875,-0.8890768448081289,-8.0364005529444,12.80646902168978
1760679970.643389,-5.764014081661002,-0.14281083104469144,0.9634881964273705,-0.2914093342846095,-1.2197487285833426,-7.628509210457066,12.710940013101661
1760679970.6536522,-5.730048781018307,-0.13777456595516202,0.9621910126638406,-0.29532395090825303,-1.4529926110994635,-7.310980903302222,12.674467785825286
1760679970.6636412,-5.679349111037214,-0.12964061672164565,0.9603488354457853,-0.29803159006917995,-1.5940017795935018,-7.137537496164965,12.715407771111563
1760679970.6736076,-5.605343769906499,-0.11854680719713373,0.9580796107758273,-0.299172881156485,-1.6563534702544869,-7.138359084099585,12.848159034147109
1760679970.683683,-5.502491181254129,-0.10489269231463323,0.9555290753811662,-0.2984597933003232,-1.6605570478856124,-7.315927273914308,13.081152177257973
1760679970.6935625,-5.366849184797946,-0.08932202086864453,0.9528763151744455,-0.2957078504747425,-1.6319181597735652,-7.64400959286014,13.414985803641269
1760679970.7036078,-5.196542162229357,-0.07268172683924037,0.9503349316495115,-0.2908597961887633,-1.5980148284986895,-8.069831945146353,13.841090954779874
1760679970.713596,-4.992074808390619,-0.05596032139175925,0.9481461816135843,-0.28399764955292783,-1.5860944736817213,-8.519173400533408,14.341281751112124
1760679970.7236109,-4.756456685167917,-0.04021187934852308,0.9465617482037074,-0.27534179184799323,-1.620659388527668,-8.903827173724519,14.888433669487537
1760679970.733583,-4.495122833835827,-0.02647406054711819,0.9458154397951329,-0.26523720130789596,-1.721443559343083,-9.130642943953104,15.448352517053962
1760679970.7435648,-4.215656970917577,-0.015688493202949724,0.9460857934897692,-0.2541281172935499,-1.9019250356454833,-9.11123607239893,15.982704363861052
1760679970.7533946,-3.927340505709024,-0.008630041293070254,0.9474552289245828,-0.24252370766561193,-2.1684698392169963,-8.771421081703627,16.45270461239023
1760679970.7637274,-3.640561588976815,-0.0058492303339876235,0.9498745614248928,-0.23095888850324553,-2.5201522052446226,-8.059471312578523,16.823134101530663
1760679970.7734146,-3.366125230334427,-0.007630357147374562,0.953142347943932,-0.21995574788922753,-2.9492344614562676,-6.952397808323932,17.06618010327562
1760679970.7835355,-3.1145107918366657,-0.013966973753837614,0.9569061022700237,-0.20999111134828727,-3.442226594546994,-5.459581409582141,17.164607396952388
1760679970.7933457,-2.8951282628196737,-0.02455623641058595,0.9606882243745516,-0.20147417713549626,-3.9813944229535454,-3.623306396244339,17.11385217213392
1760679970.8035607,-2.7156286630497517,-0.038813246151332824,0.9639353261521613,-0.19473549975293888,-4.546554139291815,-1.516041976313808,16.922781401217584
1760679970.813442,-2.58132412746927,-0.05590532112485486,0.9660861765351039,-0.1900262218179512,-5.116979073132228,0.7653218940068536,16.61304263070271
1760679970.8235543,-2.4947673992659003,-0.07480417475930605,0.9666505002296885,-0.18752508731783407,-5.673246054184058,3.107706084631805,16.217112011031812
1760679970.8335962,-2.455528145741661,-0.09435191603472741,0.9652883577189946,-0.18735007281257915,-6.198859451539174,5.391655787969113,15.775302004563684
1760679970.843584,-2.460186371514955,-0.11333540307881473,0.9618784685981341,-0.18957071593669308,-6.6815103690160225,7.501684677540733,15.332090331083915
1760679970.8537216,-2.5025440039225244,-0.1305630527305184,0.9565643559183931,-0.19421628280934242,-7.113855644663977,9.336103120427778,14.93216414100347
1760679970.8638144,-2.5740372049581315,-0.14493855688429708,0.9497697864788447,-0.20127457258603607,-7.493735396184429,10.815425517056221,14.616537955954055
1760679970.8737643,-2.6643162447593434,-0.15552677847303098,0.9421792059875971,-0.21067735760870276,-7.823794773774787,11.888669480546993,14.41901739233916
1760679970.88337,-2.7619480432039487,-0.16160811770127062,0.9346839007766122,-0.22227135546405105,-8.110545614404964,12.5370997755646,14.363174233069666
1760679970.893434,-2.855189062777208,-0.1627186780396193,0.9282995826816268,-0.23577744724667743,-8.362997363959918,12.775197354206306,14.459906975434189
1760679970.903354,-2.932773189289034,-0.15867467811147715,0.9240652399887866,-0.25074463219598636,-8.591085538829176,12.648830571659966,14.705612037465686
1760679970.913413,-2.984660726442095,-0.14958086499897666,0.9229360408949575,-0.2665083292493323,-8.804200385827151,12.230774094226613,15.080996554221826
1760679970.9234369,-3.0027003228059916,-0.13582399222151714,0.9256846749440477,-0.2821645624517341,-9.010141469618524,11.613881858401667,15.55061448882881
1760679970.9336748,-2.9811642398837335,-0.11805325425172077,0.932825110067422,-0.296571628081676,-9.214778967657214,10.902393826858283,16.06327163182903
1760679970.943726,-2.917126963910242,-0.09714949692225616,0.9445690970480508,-0.30838874981347464,-9.422586106550865,10.202042465734545,16.55348123726936
1760679970.953389,-2.8106662024127895,-0.0741840102897042,0.9608185786774727,-0.31615736830652297,-9.638034014744305,9.609805199570475,16.94413163091126
1760679970.9635074,-2.6648738598691732,-0.05036649929074848,0.9811883962930824,-0.31842545987318416,-9.86764193152973,9.204293183848343,17.15044220919214
1760679970.9736254,-2.4856747289153867,-0.026981663660683285,1.0050469424276793,-0.31390841279269543,-10.122291080580409,9.037828525549644,17.085142631292545
1760679970.9835052,-2.2814637617573417,-0.005314933162313974,1.0315611038414003,-0.30167135306211706,-10.41927562593263,9.131181163607577,16.664632672535426
1760679970.9937584,-2.062586315026272,0.013431039686927207,1.0597369202123583,-0.2813086267647393,-10.783507539801699,9.471669414578214,15.81570525533676
1760679971.0036378,-1.8406948086547519,0.02822729024054949,1.088455852669691,-0.25308925649819863,-11.247332907309355,10.01489851727857,14.482285052198502
1760679971.0135138,-1.628018253996732,0.03831395780758263,1.1165128873912162,-0.21803576559504154,-11.848564432522734,10.68992843386663,12.631565479676118
1760679971.0236216,-1.4365822075329064,0.04329293979008024,1.1426629222171891,-0.17790983945900293,-12.626587730126001,11.40726110518084,10.258901485993075
1760679971.033625,-1.277422134369198,0.04320265425748513,1.1656768375160707,-0.135091934471051,-13.61673515359696,12.06877881476877,7.39082210500575
1760679971.0435603,-1.1598454406614938,0.038552355078090496,1.1844032818536636,-0.09236076791778794,-14.843484467762547,12.578597260840993,4.085580633302713
1760679971.0538383,-1.090811704862983,0.030293062595292165,1.1978310053566723,-0.05259816713763854,-16.31335571322423,12.853635581920559,0.4307865995535758
1760679971.063692,-1.0745068749409024,0.01971270425743257,1.2051492342493755,-0.018460261320044344,-18.00858831908114,12.832551393208893,-3.462113668080665
1760679971.0735867,-1.112177430129233,0.00826106427561821,1.2058056605994867,0.007935750099969285,-19.882747943622316,12.481654546762199,-7.4663947230524705
1760679971.0837991,-1.2022638616770762,-0.002672003852539165,1.1995597190983018,0.02526042705211423,-21.85931262075458,11.796646900248566,-11.451064990867497
1760679971.0934,-1.3408340608901395,-0.011988762136492062,1.1865242532435136,0.033117055824611275,-23.833995450136253,10.799619395571085,-15.293239274971901
1760679971.1037858,-1.5222732920933495,-0.01908314883795551,1.167185800347965,0.03206057164268909,-25.681075841650603,9.531629141588855,-18.890371360588823
1760679971.113848,-1.7401464668455746,-0.023965882792157594,1.1423954599644786,0.023490148839004174,-27.263388913160085,8.042197337744863,-22.17069038668381
1760679971.1235042,-1.988118649795953,-0.027284008979135594,1.1133277688812186,0.009436758050080008,-28.444988254144985,6.3779300451670595,-25.10032503904334
1760679971.1336586,-2.26080721204925,-0.03022207625382495,1.081410734220405,-0.007716158868723001,-29.10501922427048,4.5728733869916445,-27.68601649539762
1760679971.143471,-2.554446476090201,-0.034293265765868795,1.048233048018795,-0.025531657486111924,-29.151146456670894,2.642993196061812,-29.97295547494189
1760679971.1535304,-2.8672726090855183,-0.04104913191550983,1.0154341190238492,-0.04179146019197098,-28.53097528952129,0.5863315268602798,-32.03801619296942
1760679971.1634192,-3.199579549671966,-0.05175409997819933,0.9845812589878209,-0.0547059275152361,-27.240185495231866,-1.6108716265503225,-33.97932956679745
1760679971.1734052,-3.553449308854324,-0.0670829483674569,0.9570390463151852,-0.06304436306331006,-25.32642510894776,-3.9632061735759456,-35.90358059944065
1760679971.183492,-3.9322126429556783,-0.08690298016747318,0.933839925878154,-0.06618637105126518,-22.888316492287615,-6.472610603800287,-37.91256675601707
1760679971.193621,-4.339738563100073,-0.11019485468191789,0.915571383640688,-0.06410696510981023,-20.069235032796836,-9.115487819404716,-40.090475278907064
1760679971.2036588,-4.779675108903238,-0.1351457262275642,0.9023000330856219,-0.057311149145314516,-17.045950056072808,-11.833631773990119,-42.49315729672947
1760679971.2134938,-5.254764937035573,-0.15941576288251041,0.8935527801892983,-0.04673024623267524,-14.012857407639752,-14.531561827177315,-45.14049025130194
1760679971.2239335,-5.7663378833355985,-0.18053898463434787,0.8883688288769818,-0.03358848843339632,-11.163321308043693,-17.081605887423557,-48.012711340799676
1760679971.2336552,-6.314044364109893,-0.19638358057737226,0.885425711259508,-0.019249559752145744,-8.67034629983125,-19.33643699559434,-51.05127549993923
1760679971.2436137,-6.895848678203091,-0.205579900655837,0.8832297889036642,-0.005058772653277239,-6.669121174526108,-21.14717171259418,-54.16429153616566
1760679971.253565,-7.508260391904562,-0.20783131718854725,0.8803472914614219,0.007798370003526554,-5.243743187983928,-22.384022144176175,-57.23599616543381
1760679971.2635212,-8.146749732870921,-0.20404619162896856,0.8756379374303371,0.01840239901825429,-4.419731580174145,-22.956093390273463,-60.13917304009361
1760679971.2734048,-8.806268991995939,-0.19625804594102417,0.8684454789298813,0.02616144307779302,-4.163044948307054,-22.82720229191037,-62.749010037023346
1760679971.2836893,-9.481787179355338,-0.18733293293030634,0.8587047128006187,0.03083003156949359,-4.385458097660983,-22.025383247832718,-64.95667087817779
1760679971.2933614,-10.168744204774299,-0.1804994686916157,0.8469433287371002,0.03249432545880453,-4.95541644994843,-20.644803703774325,-66.68087986384937
1760679971.3036447,-10.863347907416642,-0.17877537421467948,0.8341823055907222,0.031534626233868455,-5.7128938385692125,-18.839846683245405,-67.87608481311703
1760679971.3139396,-11.562670722806583,-0.1843943848544986,0.8217602511363041,0.02857412047848455,-6.486402037981561,-16.811906681511015,-68.53621420534894
1760679971.3237183,-12.26454450366902,-0.1983464050062442,0.8111181694180697,0.02441888507422064,-7.110230429226145,-14.78999364890362,-68.69359315265756
1760679971.3335085,-12.967292110236304,-0.22012657665809973,0.8035809135188312,0.019988668327145676,-7.440224179866916,-13.006742576940367,-68.41316526629919
1760679971.3435633,-13.66936553378755,-0.24775061845816176,0.8001646031869725,0.01623382357996198,-7.366786853799317,-11.672028470868494,-67.7827539756517
1760679971.353815,-14.368977682874906,-0.27804366227919186,0.8014313915712308,0.01403578856266482,-6.824143879095513,-10.947003562210327,-66.90066191263166
1760679971.3637342,-15.063815562645273,-0.3071572834732856,0.807406794563707,0.014097338069835331,-5.795178606914407,-10.921746485775724,-65.86238426751048
1760679971.3733203,-15.750906834969744,-0.3312249366715332,0.8175689465818424,0.01683922999820721,-4.311443472161143,-11.59962810955159,-64.74847953475359
1760679971.383483,-16.42668323203754,-0.347038585039436,0.8309113785200578,0.022325717284082294,-2.4483686575795565,-12.890934454393944,-63.615565226377946
1760679971.3935513,-17.087246762328622,-0.3526230301007367,0.8460711364632678,0.030239617427209094,-0.31624567480577337,-14.617351229348909,-62.49191519989298
1760679971.4038596,-17.728802080033038,-0.3476006240451845,0.861504056325335,0.03991785111185406,1.9518834156578166,-16.52769791647098,-61.37827799920044
1760679971.413457,-18.348178770443177,-0.333277780332061,0.8756807709237856,0.05044324659418024,4.2139302613957526,-18.32385451989237,-60.253499423529775
1760679971.4235408,-18.943342396955458,-0.3124403165947965,0.8872724336254675,0.06077395261797684,6.332462936434837,-19.694282918902474,-59.083588104205965
1760679971.4334724,-19.513791132858398,-0.28890304031701675,0.8952961181309135,0.06988401677909768,8.186965894713845,-20.35119847466136,-57.83224006004115
1760679971.4440856,-20.06075399902038,-0.26690353841657255,0.8991972294413151,0.07688967476761963,9.683525288882084,-20.06664280797147,-56.470634745261336
1760679971.4539402,-20.587138488041877,-0.2504506768955425,0.8988585991686286,0.08114340611890236,10.7611787057243,-18.702650476971403,-54.98452113504932
1760679971.4638097,-21.097211906497396,-0.2427345161889135,0.8945402132614538,0.08228734582214149,11.394559698129365,-16.231373447510887,-53.37717909308998
1760679971.4736514,-21.596038871149844,-0.2456834655824052,0.8867669732964782,0.08026559417802302,11.592899750292581,-12.742268941031304,-51.66768993480812
1760679971.4836302,-22.088735911557713,-0.2597265160988277,0.8761927071226419,0.07530092799583901,11.39592178043858,-8.435089461731188,-49.88494801391471
1760679971.4934237,-22.57964016879086,-0.2837893307895863,0.8634747008847977,0.06784672351020211,10.867568271877323,-3.5992918069502395,-48.05880382860653
1760679971.5036144,-23.071516109526154,-0.31552125863663183,0.8491911048239834,0.058528883967401225,10.088697783319796,1.4175727821176902,-46.21041608566145
1760679971.5133977,-23.564932647718006,-0.35171297282776315,0.8338215658631732,0.04809206792872893,9.149765932723499,6.248217078615955,-44.34408629556632
1760679971.5237355,-24.057925511741125,-0.3888270733037525,0.8177920558739122,0.037358091866901526,8.144137085799795,10.545369150996601,-42.442483032268015
1760679971.5337484,-24.546015437628466,-0.423540219537876,0.8015657839747303,0.02719516038872025,7.162234944999394,14.017393200195249,-40.46638033419927
1760679971.5436165,-25.02258912956885,-0.45319498698064187,0.7857508357075966,0.018489277647088558,6.286434709700868,16.45511324780128,-38.35908229878237
1760679971.5537558,-25.47957966254778,-0.476081879679387,0.771193751672771,0.012105961816370216,5.586525410606262,17.746940262580356,-36.05477522503678
1760679971.5635881,-25.908321875644845,-0.49150989264926875,0.7590332502980243,0.008831218459907284,5.115698383713776,17.88170104169893,-33.489267049785376
1760679971.5737836,-26.300422449033583,-0.4996700949060117,0.7506955551797584,0.00928571739427824,4.907245068902513,16.940805600525575,-30.611064342456025
1760679971.5834904,-26.648484978193338,-0.5013420944040965,0.7478207091431959,0.013815146300667814,4.972362689169267,15.082998104595728,-27.390612858072902
1760679971.5938923,-26.946568585755184,-0.497527526629765,0.7521181526731161,0.022371189446056577,5.299571408366849,12.525573160994574,-23.82584033216883
1760679971.6049337,-27.190325370047148,-0.48910950135245435,0.7651597804846246,0.03440841933716654,5.856169181726848,9.525555678378542,-19.942850541169776
1760679971.6134408,-27.376841634256337,-0.47662896159457047,0.7881292045857357,0.04882864029146966,6.591879178674843,6.363150016681404,-15.791599267346264
1760679971.6237788,-27.50428084079284,-0.4602393551390856,0.8215571124045938,0.06400211578553669,7.4444487008463325,3.328159407732358,-11.437448082275182
1760679971.633422,-27.57147230903852,-0.4398550124589708,0.865084102770715,0.07788293301602908,8.346550074750855,0.7085337928474693,-6.950430306738087
1760679971.6433897,-27.577594977411643,-0.4154558625298412,0.91730063653986,0.08821532175449348,9.233014767916995,-1.2208425499015867,-2.3946627708163235
1760679971.6539302,-27.522068331892772,-0.3874633625777936,0.9757120532624308,0.09280435994527052,10.047284088940753,-2.2112732109233213,2.1796127225262816
1760679971.663609,-27.404691706957227,-0.3570701367726996,1.0368605294262918,0.08980602642584755,10.74605153032904,-2.056823817441627,6.739510593521869
1760679971.673807,-27.225986494550895,-0.32639994275823936,1.0966077828136866,0.0779861514792258,11.301430873881104,-0.6145398187917204,11.26790640225975
1760679971.6836646,-26.987621510664376,-0.29840752723712616,1.1505492480642938,0.056908627041579396,11.700549795549868,2.173296692073205,15.757667744237326
1760679971.6935108,-26.692769578838185,-0.2765009348669851,1.1944987577201347,0.027032609893757827,11.943066708468812,6.258294014491047,20.203796859733654
1760679971.703691,-26.346264887324548,-0.26395870612681394,1.2249590568987727,-0.010288777109580089,12.037525808019575,11.471228336773502,24.595898860352673
1760679971.7136102,-25.95449105379362,-0.2632811623741235,1.2394895876002558,-0.052915233268918914,11.997625005551694,17.518609758776993,28.912724038969394
1760679971.7237642,-25.525002526664387,-0.275630191208182,1.2369108814730647,-0.09813570426449758,11.839476575423253,23.994684899954244,33.11934013848849
1760679971.7334292,-25.065946338209155,-0.30047968422387245,1.2173390184858701,-0.14297729842421786,11.580819129263137,30.410567582275355,37.1665588435809
1760679971.7434428,-24.58539425835964,-0.33554528034461856,1.182094772523144,-0.18455826881584875,11.242668235395596,36.23866873243209,40.99205837119131
1760679971.7541716,-24.090707596705858,-0.377008383696551,1.1335501152111982,-0.22042001556315738,10.852919669838963,40.967007336572856,44.52304281532776
1760679971.7634835,-23.58803712880264,-0.42000094016689954,1.0749555465727827,-0.24878181909844985,10.450282964246918,44.155561141590645,47.68069439302004
1760679971.7736695,-23.082020402056756,-0.45927433467006884,1.0102561990100598,-0.2686860248985368,10.086280805901476,45.48631388686675,50.386674616826475
1760679971.7836938,-22.575694749885198,-0.4899421431509679,0.9438767687440076,-0.28002697827586426,9.82331561632061,44.799922798162164,52.5714676685268
1760679971.7938528,-22.070608345221707,-0.5081697335530215,0.880447400303121,-0.28347749353137214,9.727899026927645,42.114240431232304,54.183672833897845
1760679971.8038437,-21.567087508368832,-0.5116910852138606,0.8244560276789229,-0.280339528966245,9.859657852038907,37.6226138991077,55.19876770681887
1760679971.813819,-21.06460534890499,-0.5000674940756308,0.7798418459591054,-0.2723499227628972,10.258175250175062,31.672585374263996,55.625632208902985
1760679971.8235655,-20.56219208939499,-0.47465685216517894,0.7495783434508515,-0.261469045379039,10.93066604786685,24.728099649468753,55.50932958568291
1760679971.833784,-20.05882904996112,-0.43831941619859827,0.7353181337992386,-0.24967401881844084,11.843653159286124,17.320313324074316,54.929207892641806
1760679971.8436594,-19.553775400777468,-0.39493034483452594,0.7371744694000293,-0.23877230612440925,12.921147896802015,9.993284908133763,53.992165789502934
1760679971.8534765,-19.046788798593447,-0.34879290213443914,0.7536936562839811,-0.23024714048185382,14.050497498611037,3.2510398095610302,52.82176422455763
1760679971.863765,-18.53821666818496,-0.30404878704086025,0.782035120347652,-0.22514310097287063,15.09540199908418,-2.4881387395719496,51.544607558209584
1760679971.8734956,-18.028952629313505,-0.26416815473558725,0.8183330678159864,-0.2239977669395477,15.914064424458132,-6.925583696817256,50.2759298177841
1760679971.8835208,-17.520271164336304,-0.2315789804733631,0.8581789286245541,-0.2268232229760835,16.37938763223057,-9.901310839480908,49.106523537396995
1760679971.8936367,-17.013571882303523,-0.2074698600159459,0.8971474539113196,-0.23313849091708871,16.397746552041305,-11.397172843552124,48.09301719033831
1760679971.903481,-16.5100811183333,-0.191775133814408,0.931292850195662,-0.24205068795740484,15.923155226154279,-11.524876155070663,47.25304712918342
1760679971.914064,-16.01057107739261,-0.18332803012411697,0.9575571928703728,-0.25237915526795796,14.964504276022035,-10.501291022731756,46.56610436083023
1760679971.923403,-15.515162334875335,-0.18014831357259758,0.9740519758352554,-0.2628124230874175,13.584765020374167,-8.614732870182818,45.97985348596524
1760679971.9339442,-15.023270581885576,-0.17981706184952143,0.9801891928490829,-0.27208181235979784,11.892390906253164,-6.186644162590806,45.420715908782846
1760679971.9436846,-14.533740687647656,-0.17988359262541626,0.9766506576181934,-0.2791288155500474,10.026359541351033,-3.5333424735480663,44.80674338330594
1760679971.953813,-14.045181253740612,-0.17824921166545807,0.9651981253446215,-0.2832402394759498,8.137212406842732,-0.932219774215517,44.06049891640552
1760679971.963754,-13.556474209255255,-0.1734788257368146,0.9483472475778151,-0.28412959446404173,6.366964315353517,1.4040131873843444,43.11988705156113
1760679971.97354,-13.067390944044979,-0.16500204703076043,0.9289538105060006,-0.2819548650445452,4.830839946682543,3.3426647796499505,41.9455429521046
1760679971.9835007,-12.579204542001834,-0.15317815178057254,0.9097812260324167,-0.27727591717530975,3.603449929596209,4.83509017367204,40.5242830048752
1760679971.993472,-12.095155423407784,-0.13921408047481237,0.8931232624708463,-0.27096361870051694,2.711267118488317,5.910045519489174,38.868981079906064
1760679972.0035167,-11.620617741897224,-0.12494279556309751,0.880542222390324,-0.26407591534660324,2.1322048601285717,6.658372363922698,37.01584259470065
1760679972.0134604,-11.162841721998072,-0.11249231774336546,0.8727551846973153,-0.2577161562006053,1.8019320604194633,7.212025687164501,35.0202620710202
1760679972.0236466,-10.730225757733011,-0.10390322438614517,0.8696688244124062,-0.25288931169502255,1.6255265641138266,7.720950109769482,32.952226196015864
1760679972.0335383,-10.331197905188212,-0.1007760386730206,0.8705359537045622,-0.25037386832964525,1.4923773031953165,8.33116384345638,30.891638392243376
1760679972.0436265,-9.972921834979996,-0.10403140860312615,0.8741903066368568,-0.2506285552964312,1.2920029022130428,9.166609224910955,28.923230696185172
1760679972.0542214,-9.66012318953524,-0.11383167677782507,0.8793121245458994,-0.25374870033316765,0.9286154039836628,10.316079621243125,27.13030354127527
1760679972.0638473,-9.394312707159777,-0.1296550997037128,0.8846841134970967,-0.2594758863959771,0.33267261790711905,11.825292989261284,25.586779387230983
1760679972.073827,-9.173571980981391,-0.15046640625267477,0.8894100337168906,-0.26725228781847293,-0.5317974258701449,13.693417184334017,24.347977989795442
1760679972.0834017,-8.992916975484084,-0.17491115108545618,0.8930792704959715,-0.2763038368319819,-1.664704976925955,15.87322166063715,23.441621858501456
1760679972.0937803,-8.845116221700286,-0.20147375567144304,0.8958660767228371,-0.2857344608836679,-3.0322104691272984,18.274335454320376,22.861198846725742
1760679972.103535,-8.721750548187881,-0.22856775226348466,0.8985540318268642,-0.2946134494022434,-4.573243238616053,20.769479619560006,22.563597624201083
1760679972.1136472,-8.614276974015945,-0.25456104286756126,0.9024798257772003,-0.30203941923845956,-6.209209825357731,23.203741417778126,22.47201592132024
1760679972.123643,-8.514899933270655,-0.27776857173714986,0.9093973543635584,-0.30717126779605897,-7.855611295149974,25.406872537924496,22.483920734239828
1760679972.1336453,-8.417137172147077,-0.2964579611813482,0.9212700650037585,-0.30922946680889474,-9.434151624860418,27.20825707203374,22.482733845757902
1760679972.1437483,-8.316062792672172,-0.30890448615304766,0.9400041827556175,-0.30748401129833164,-10.883893459340182,28.45369650147246,22.351235570649965
1760679972.1539555,-8.20828795122617,-0.3135072373847109,0.9671410695676727,-0.3012517575222313,-12.17011692662171,29.022641548296743,21.984560243022877
1760679972.1635137,-8.09178549331637,-0.3089534603479635,1.0035383344989652,-0.28992445835754993,-13.28976714029549,28.844130969349735,21.30101412470192
1760679972.1738126,-7.9656724701663295,-0.294402435895297,1.0490847736876627,-0.2730413485700105,-14.272717514225999,27.90954911356587,20.249540610179448
1760679972.1833959,-7.830034960542698,-0.26965282657634376,1.102504841577723,-0.25040685117476474,-15.178499623406468,26.280324808724274,18.813265290383146
1760679972.1935797,-7.685825604794248,-0.23525628528202203,1.1613053419541985,-0.22223493703521685,-16.088624320065126,24.088816861799582,17.00907451505142
1760679972.2041335,-7.5348110201657414,-0.19254928490003279,1.2218974233950994,-0.18928216827848407,-17.095114238573675,21.53099734327806,14.883598968282257
1760679972.2135882,-7.379518538838964,-0.14359573020005012,1.2798946467989716,-0.15292133499426672,-18.28637070491133,18.85037427567709,12.506271797039428
1760679972.223508,-7.223138246444814,-0.09105583913799135,1.3305526549189344,-0.11511404965945501,-19.731997482515784,16.31393895939774,9.960280039061074
1760679972.2336466,-7.069368237744333,-0.038008218152565026,1.3692885554747087,-0.07826315299096455,-21.468640365458924,14.18252261890154,7.3322365332702235
1760679972.243832,-6.92223157968782,0.012253581994432603,1.3922047317584214,-0.04495662294028695,-23.48913136091157,12.679343035804777,4.701329462334242
1760679972.2541993,-6.785926649879414,0.056438632022556834,1.396544774686202,-0.0176426780477498,-25.737068131360815,11.961267714877467,2.1286380198496517
1760679972.263556,-6.664784778974117,0.09147530584670169,1.3810264262951284,0.0017084878004495199,-28.108303918916125,12.097165518037702,-0.3526784423969231
1760679972.273794,-6.563389446329597,0.1147019225919307,1.3460176207547505,0.011899790647237351,-30.459719383150684,13.056681353759728,-2.745421209168697
1760679972.283771,-6.4868580486414595,0.12401397891479471,1.2935374537632225,0.01271143497845316,-32.624323237612764,14.71109550638471,-5.0933911088034085
1760679972.2936707,-6.441216153202862,0.1179784185731982,1.2270776634882363,0.004979458779681595,-34.430516720626805,16.846004071361577,-7.481926075823811
1760679972.3036141,-6.433732153791435,0.0959483955078328,1.151259997344817,-0.009470889585491853,-35.72255779050444,19.183787608512304,-10.032523527376894
1760679972.3137138,-6.473050759810241,0.058209689847984164,1.0713685597041582,-0.028038083043801506,-36.37904621873389,21.41255692994129,-12.890718212208897
1760679972.3237193,-6.5689789976921595,0.0061601346877132625,0.9928147055106831,-0.04768233164014981,-36.32666196985798,23.217705418111038,-16.20739069707492
1760679972.3335612,-6.731839867144171,-0.05752366234082887,0.9205997437658464,-0.06534317465941324,-35.547350566638464,24.312462739673126,-20.11488641079975
1760679972.343763,-6.971407701628579,-0.12882303037783652,0.85883830558078,-0.0783708345756378,-34.07843975922852,24.464817972652508,-24.700514057617976
1760679972.3535733,-7.295555772314245,-0.202525815554501,0.81039585162898,-0.08489663441799387,-32.006425497908644,23.519380883039418,-29.981026283934362
1760679972.363605,-7.708849784586757,-0.2726640295912524,0.7766790230916668,-0.08407445232746387,-29.45601216479522,21.41346635990612,-35.88243865904826
1760679972.3738282,-8.211374350171694,-0.3332342621727996,0.7575968790046186,-0.07614687284061916,-26.57629403133339,18.18649490344651,-42.22978072072048
1760679972.3834686,-8.79805786502644,-0.37908664644367,0.7516866936311803,-0.0623240231895612,-23.525880054823883,13.98101343788265,-48.7507577873518
1760679972.393792,-9.458667423513544,-0.40678655250272144,0.7563776886621033,-0.04450460504833827,-20.45852913089956,9.03314216384809,-55.095599605606125
1760679972.4037275,-10.178511212406368,-0.4152366815008387,0.7683557261595624,-0.024904848241239844,-17.510567824578423,3.6508587187745496,-60.87267988179121
1760679972.413836,-10.939752725912957,-0.4058972562465993,0.783987994616047,-0.005677949584372669,-14.790981598390678,-1.8195485053902412,-65.69628500223371
1760679972.4235048,-11.723139076709652,-0.3825341897804704,0.7997627150582496,0.011400587893317743,-12.374628855854088,-7.035744486345355,-69.23990029498587
1760679972.4334078,-12.50988665667829,-0.35053295662375716,0.8126950848455259,0.025131694422704083,-10.298657947568293,-11.704433791272326,-71.2863243223293
1760679972.443846,-13.283453109672589,-0.31591600271887493,0.8206510490456346,0.034959295836303424,-8.56205752056681,-15.621534199257736,-71.76545639893469
1760679972.4534461,-14.030952967657365,-0.2842698813570903,0.8225475193835263,0.04091879690147961,-7.128355441890095,-18.699513911872824,-70.77205272035815
1760679972.4639976,-14.744037899328944,-0.25980511247014115,0.8184031852441503,0.04349937311892935,-5.931610758066635,-20.97569486919694,-68.5589351886625
1760679972.473785,-15.419147562871858,-0.2447317395264868,0.8092377692321724,0.04345895342555386,-4.885727172391749,-22.59878609299574,-65.50544493877673
1760679972.4837625,-16.057129279236236,-0.2390508617558507,0.7968423595218378,0.04163484109624233,-3.896613381420568,-23.795460703313992,-62.065541082176104
1760679972.4936454,-16.662314601294256,-0.24076676583854406,0.7834604224584306,0.03879322374449358,-2.875977586198878,-24.823219905558897,-58.70396784018757
1760679972.5039968,-17.241221583509834,-0.24644757063116496,0.7714283738310206,0.03554904731481569,-1.7548950938915011,-25.918648453186826,-55.831449217766306
1760679972.5138223,-17.80111287526385,-0.2520185666492787,0.762830694611733,0.03236342151192484,-0.4949992807383878,-27.250617091948765,-53.7502317356546
1760679972.523673,-18.34866491141527,-0.2536496908624768,0.759222678423506,0.02959931486147213,0.9046519725257925,-28.886322812911086,-52.61930474705616
1760679972.5340073,-18.88897614786435,-0.24858028002828253,0.7614557387418933,0.02759841222177447,2.4062895842449388,-30.775269683618724,-52.44469890177889
1760679972.5439434,-19.42506139107787,-0.2357178106676153,0.7696120842823331,0.026737895243409023,3.9379709350913807,-32.75321335223492,-53.09528032011616
1760679972.5535145,-19.95786712890698,-0.21587837202614008,0.7830345770143604,0.027436714071255114,5.4031849110819286,-34.56507603206658,-54.339558562551524
1760679972.5635152,-20.486734570654313,-0.19161525134511723,0.8004318022648748,0.030102615336587354,6.694055197311895,-35.90306533324414,-55.89528088458458
1760679972.5734656,-21.010160357798036,-0.16668620974730322,0.8200418019607646,0.03503396049317468,7.706313558823039,-36.45398102101248,-57.48170192978194
1760679972.5835881,-21.526669271504662,-0.14530100539822138,0.839840645116201,0.04230444845526127,8.354117778074436,-35.94831429457611,-58.86466168696545
1760679972.5935795,-22.035615847009726,-0.13133708449094034,0.8577784928642938,0.05166128894583682,8.582866153419724,-34.20350189451672,-59.88682487713087
1760679972.603804,-22.537765517336837,-0.12770167854887016,0.8720170690556692,0.06246229963248314,8.378391541154548,-31.154699551521578,-60.47906646623556
1760679972.6134863,-23.035561366132253,-0.135960629363044,0.8811341372093087,0.07367120869561118,7.771327221275735,-26.868598628586724,-60.65313903458381
1760679972.6235952,-23.533046404057746,-0.15626908331490966,0.8842592616221023,0.0839259580982585,6.836039066193342,-21.538807659958106,-60.47946423484419
1760679972.6336293,-24.035467736943463,-0.18755491859618956,0.8811158833394255,0.09168849228811561,5.6842585537182195,-15.464580526130325,-60.056391867109625
1760679972.6434617,-24.54862669891843,-0.22784975204684454,0.8719681591064273,0.09547073432341902,4.454289693165049,-9.01744775698761,-59.47818369836977
1760679972.6537771,-25.078057419668443,-0.2746503655308361,0.8574989291293147,0.094109878296937,3.2972273280838365,-2.6019111663167,-58.80834615601472
1760679972.6636655,-25.62812383313642,-0.3252219243035522,0.8386634531339386,0.0870434428140248,2.3618903004547454,3.3835693871474923,-58.063111372473585
1760679972.6734762,-26.201129925540954,-0.3768030942721326,0.8165631107010392,0.07452027099209434,1.7801367789654237,8.58041039560152,-57.20732554127606
1760679972.6836252,-26.796541268044876,-0.4267185269559897,0.7923670381592655,0.05768586917790168,1.6540114265511523,12.695837046936274,-56.16224496125898
1760679972.6934185,-27.410414156042737,-0.472433877390594,0.7672880044866557,0.038501984387425026,2.045920558329619,15.520384849712485,-54.82229761945124
1760679972.7037168,-28.03511923898474,-0.5116019356414512,0.7426006323922192,0.019496701989082314,2.9727939234405576,16.938010071807874,-53.07626342944081
1760679972.7137218,-28.65942852033769,-0.5421464958133316,0.7196793551218083,0.003382787713231743,4.404905142178878,16.930455672410847,-50.827895245073634
1760679972.7237926,-29.26900698939093,-0.562412410858269,0.7000309117661218,-0.007383507839979243,6.269577565791017,15.577195564678002,-48.01174948493326
1760679972.7335117,-29.847310384947562,-0.5713781706697912,0.6853001320256721,-0.011014681059178227,8.459354064490832,13.051361123570771,-44.60160064657034
1760679972.7436306,-30.37683602217151,-0.5688890345580063,0.6772344057164073,-0.006694183849248367,10.843463595725057,9.611033042096674,-40.610773695825614
1760679972.7538188,-30.84060640783382,-0.5558370048456857,0.6775975321720705,0.005285176535778289,13.280812924500424,5.584651617706059,-36.08553806995989
1760679972.7637632,-31.223699069108864,-0.5342046761246847,0.6880267213555398,0.023563289016579274,15.632512073931895,1.3494311927504838,-31.094009900172374
1760679972.773755,-31.51459531725832,-0.5069138479032774,0.7098302768288647,0.045914612535436425,17.772215792255455,-2.6973001756212502,-25.713626588811717
1760679972.7839565,-31.706129376070145,-0.4774718639643473,0.7437321929140345,0.06955962049778261,19.59325185510458,-6.172158363197758,-20.02015730770164
1760679972.7935243,-31.79588490858542,-0.4494696838779119,0.7895863960389661,0.09152054067814129,21.01239877448452,-8.74153515178319,-14.080505606594047
1760679972.8037236,-31.785993666732708,-0.4260337479067411,0.8461065607518644,0.10895973713885725,21.97102995632257,-10.154221978151138,-7.950483254193294
1760679972.814021,-31.682410561023683,-0.409353762318733,0.9106803965678159,0.11945859145775785,22.43494600864679,-10.265750359728788,-1.6775674439767165
1760679972.82358,-31.4938383619633,-0.4003948845805728,0.9793487149533274,0.12122042211884304,22.394386154957555,-9.050713951835696,4.6923748159446586
1760679972.8333733,-31.230529245306496,-0.3988585232097713,1.047019098754361,0.11320076125662999,21.865322080134558,-6.601643322986027,11.10618526382832
1760679972.843632,-30.903187785306592,-0.4033926294975769,1.1079473086599885,0.09517506549469519,20.89223340742394,-3.115484990518496,17.49462221296782
1760679972.8537126,-30.52214280730573,-0.41198846574444625,1.1564599322184608,0.06775050186318846,19.5513894848887,1.129303795059572,23.766143385855777
1760679972.863694,-30.096861507011536,-0.42245732999432567,1.1878194674714107,0.03232330280795425,17.952589943409137,5.800961545788215,29.80547551207064
1760679972.8736415,-29.635779820362846,-0.43287062623589156,1.199065461436716,-0.009019585902201165,16.23674260245724,10.54373651568137,35.47837424873275
1760679972.8834345,-29.146349950760406,-0.44186549342019976,1.1896279308633972,-0.05365794400814969,14.566969304240732,15.004902670742682,40.642645170652365
1760679972.893615,-28.63517568568734,-0.4487519754389855,1.1615309664901816,-0.09865795760834327,13.112402687740397,18.857591220455127,45.16393526529776
1760679972.9035473,-28.108117220480626,-0.45340280396542504,1.1190987018939798,-0.14104771821531834,12.026285450390617,21.819354512983338,48.93351438527701
1760679972.913581,-27.57028901459825,-0.4559683951561203,1.0682170345391793,-0.17812282806973007,11.422497991686773,23.667727426935098,51.88468067708719
1760679972.9234662,-27.02593326560594,-0.4565258061372417,1.0153315975247024,-0.20773927220577904,11.35597382883792,24.254291017949658,54.004638448194086
1760679972.933454,-26.478211873614068,-0.4548051838069309,0.9664209453525711,-0.22854697291539838,11.811914694728046,23.51774929313961,55.33948520593495
1760679972.9435964,-25.92900346250357,-0.45011072091581006,0.9261623800848677,-0.2401261878804567,12.706579395757968,21.49479346647639,55.99104607475824
1760679972.9534936,-25.378805102511222,-0.44147240136424565,0.8974311171527216,-0.24300296157952506,13.899595985424975,18.325876586845208,56.10558622410845
1760679972.9636066,-24.826817530391097,-0.427970283166987,0.8811742537683109,-0.23853635995165706,15.21515660256217,14.25224771829116,55.85581532314246
1760679972.9734848,-24.271246692393035,-0.40910946998189046,0.876608587114809,-0.2286910787488141,16.46774538899715,9.601188267258673,55.41885746683681
1760679972.9837396,-23.7097988591359,-0.3851143828817274,0.8816317359343616,-0.21573328931256822,17.48752835458583,4.758377152110811,54.95369611576031
1760679972.993804,-23.14029662347169,-0.3570489002876912,0.8933226005904458,-0.2019070852552482,18.14115987191737,0.12918759248082629,54.58175360243498
1760679973.0035856,-22.561309779780736,-0.3267291252644406,0.9084315894308125,-0.18915298491851648,18.34520074369149,-3.9063751679247307,54.37364096639401
1760679973.0136127,-21.97268440543517,-0.2964534157744719,0.9238009195633463,-0.1789152203880689,18.07109714739493,-7.038330379008281,54.34388632904383
1760679973.0234885,-21.37586699979529,-0.2686162055427479,0.9366906601695788,-0.17205821223896967,17.34225615559283,-9.063604690158298,54.45397496000119
1760679973.0339823,-20.773955662697414,-0.24529262796541831,0.9450077468124697,-0.16888593776056546,16.224877710033763,-9.908788151614557,54.62267688899152
1760679973.0435212,-20.171460257837342,-0.22787993646012566,0.9474433108320572,-0.1692384808475506,14.814797912671263,-9.634752006110523,54.74164331839988
1760679973.053546,-19.5738083698827,-0.2168649131351802,0.9435241543322382,-0.1726307963576108,13.222733299194912,-8.422205663106082,54.693718375927155
1760679973.0639286,-18.986682352871444,-0.21176111131529338,0.9335838753512556,-0.1783996900079385,11.560087992962464,-6.540475497140272,54.371316318920016
1760679973.0736454,-18.415304307356045,-0.21122843691849622,0.9186618873881259,-0.18583344903405732,9.92698548482323,-4.304545904009848,53.692468967233346
1760679973.0835087,-17.863793073188447,-0.21335126720153097,0.9003439468854951,-0.1942694463280179,8.40352471062977,-2.027243146045418,52.61265594613746
1760679973.0934205,-17.334699289270645,-0.21601737857431236,0.8805630400775339,-0.20315438039798034,7.044585036956029,0.025949536364981166,51.13119971990634
1760679973.103642,-16.828787864579844,-0.21732026913541333,0.8613823410747746,-0.21206870232120154,5.877963870240826,1.67267049531464,49.291738242264
1760679973.1138031,-16.34509269058337,-0.21590814148542467,0.8447815749399176,-0.22072178956392596,4.905309201577522,2.8351294142704933,47.17697973410931
1760679973.1235356,-15.88122533900919,-0.21121960213112412,0.8324645815331445,-0.22892743276247615,4.1052069669613465,3.544846722265869,44.898533559526015
1760679973.1335356,-15.433882857755544,-0.20357042316773055,0.8257004437016243,-0.2365696540453581,3.437828126865975,3.930955943859541,42.58308986801303
1760679973.1439009,-14.999472698931518,-0.1940820454343637,0.8252058378292297,-0.24356721675262358,2.850633171095062,4.194647662023344,40.3566119840154
1760679973.153655,-14.574758606459579,-0.1844688794608441,0.8310745124383719,-0.24984291924384944,2.284698683370946,4.574055832739688,38.32852052847008
1760679973.1637132,-14.15743188140095,-0.17672488300104391,0.842760280497895,-0.25530205353093666,1.6812493614591286,5.304953453225555,36.57803876041131
1760679973.173582,-13.74652622705776,-0.17276524244879476,0.8591192191541713,-0.25982320674592047,0.987961525284334,6.583005467162522,35.14481891678575
1760679973.1836646,-13.34261761229074,-0.17408308492326352,0.8785125805383664,-0.2632632239323949,0.16456982999989403,8.532986744246097,34.02555944195155
1760679973.193473,-12.947780039444023,-0.18147551251488264,0.8989654156363758,-0.26547616536007246,-0.8127210341529785,11.1893086204027,33.17751858677181
1760679973.2036376,-12.565300964546338,-0.19488140808078414,0.9183696675154495,-0.266343463723009,-1.9485050848626138,14.490508433536968,32.52871319625955
1760679973.2137115,-12.199193027872802,-0.2133575706302372,0.9347153066693402,-0.2658099306910047,-3.227500533715898,18.288262103522445,31.99331822511992
1760679973.2235997,-11.853568860442975,-0.23520086588215838,0.94632800160542,-0.2639192853838745,-4.6160714217903305,22.369247104336182,31.489546565955784
1760679973.2337117,-11.53197084772333,-0.2582029222708257,0.952086550922018,-0.2608442122209781,-6.065755952707019,26.48606210358477,30.956362638966215
1760679973.2437756,-11.23676295515475,-0.28000007124097226,0.9515903065014155,-0.25690718722330785,-7.5183033656681575,30.391701758995918,30.365153592726735
1760679973.2534187,-10.968688719024033,-0.29845579323480603,0.9452505061751982,-0.2525853455726329,-8.911560437932641,33.87126465989527,29.723299852079304
1760679973.2635863,-10.726673070884647,-0.3119938068135249,0.9342911920291778,-0.2484860828266048,-10.185577726237948,36.76517099834973,29.06844460713084
1760679973.2735548,-10.50790038191997,-0.3198013639018835,0.9206597575120875,-0.24527778585652862,-11.28844925306621,38.980338926478,28.45463768344377
1760679973.2836883,-10.30815039987387,-0.32185432829814425,0.9068570670828355,-0.24356998310235267,-12.181546891069319,40.4889331596593,27.933618250300103
1760679973.293513,-10.122332647074776,-0.318770638861453,0.8957019671866104,-0.24375796598656205,-12.843900612344228,41.317321554436305,27.535619873221084
1760679973.3036337,-9.945136698137485,-0.3115502120065937,0.8900492160789907,-0.24586758070663509,-13.275499427145647,41.52970749330069,27.253966277054076
1760679973.3136363,-9.77170867542971,-0.3012809908453951,0.892485318187822,-0.2494440912867954,-13.49926178580494,41.2111396052674,27.036612235520554
1760679973.3235528,-9.598266827908402,-0.2888797672408952,0.9050314485883907,-0.25352055595899226,-13.561381260597376,40.45354546830987,26.786212514337983
1760679973.333906,-9.422578739462136,-0.2749113660630802,0.9288843714604776,-0.25668231073228753,-13.529732833140745,39.346785317081235,26.368768175950443
1760679973.3440623,-9.244241466198375,-0.25950839280730215,0.9642245610413469,-0.2572247261914678,-13.490056398125907,37.97511869308502,25.629642620289555
1760679973.35359,-9.064733793010392,-0.2423989264801745,1.010115827583336,-0.25338637336604614,-13.539739887406855,36.41826560376202,24.41478691521714
1760679973.3635058,-8.887242679295124,-0.22303643811064341,1.0645122536853961,-0.2436282558143866,-13.779236533532773,34.75547184872339,22.594324940811244
1760679973.3735347,-8.716298901802752,-0.20081266649409213,1.124376367092022,-0.2269201367455381,-14.301501772597192,33.07056001629799,20.08520990051624
1760679973.3834634,-8.557286519507464,-0.17532194507015086,1.185899814134287,-0.20298808650528946,-15.180316672192617,31.455792310576527,16.86951769370125
1760679973.3936296,-8.415913227062802,-0.1466360538625573,1.244807683637696,-0.1724759394651867,-16.45887771969792,30.012511937568824,13.005174726119765
1760679973.403604,-8.297737849133698,-0.11554168784335242,1.296720195240297,-0.13698014628663768,-18.1403834776137,28.847016612175533,8.62661067129742
1760679973.4136357,-8.207841358849732,-0.08368824809873068,1.3375387516682047,-0.09893383480405249,-20.18233113398228,28.060934196436897,3.934014693695605
1760679973.4238455,-8.150697415049898,-0.053595006719728076,1.3638188381800538,-0.06134012584497208,-22.495766016602744,27.736436408639776,-0.8285015317145941
1760679973.433874,-8.130252153171593,-0.028479241449972582,1.373093719049428,-0.027382623007443173,-24.949917920174453,27.917851002332668,-5.4036704510738
1760679973.4438646,-8.150170725348573,-0.011895030110548876,1.3641195520683802,3.209349320931545e-05,-27.38176876515186,28.59248773849697,-9.55683825372314
1760679973.453798,-8.214162239008969,-0.007214686778094717,1.337019781304231,0.018723474873354677,-29.6093928395332,29.674531283412648,-13.111493616581319
1760679973.4634485,-8.326266554613607,-0.017031401215340303,1.293312824918166,0.027590599077227308,-31.44753955635732,30.99631658709965,-15.97871158348772
1760679973.4734793,-8.490983421002227,-0.04259629659533655,1.235814208823828,0.026791956990256185,-32.72387059711784,32.31086240128278,-18.174994577218065
1760679973.4835143,-8.713149562206015,-0.08341092525083665,1.168413653758904,0.017704796398118533,-33.294392224669195,33.30805959026912,-19.824390999203857
1760679973.4936562,-8.997520596759337,-0.13707197271666635,1.0957383930444389,0.002667013611778763,-33.05681372211275,33.644536032329064,-21.143185782950724
1760679973.5036483,-9.34808482270018,-0.19941680242156665,1.0227262315353929,-0.015443248020867453,-31.960754829664747,32.98440227896183,-22.408483441922424
1760679973.5139644,-9.767212351799273,-0.2649632110111889,0.954147193128404,-0.0336976063030319,-30.013917157705794,31.045508374457057,-23.914990668682425
1760679973.5237064,-10.254808506286981,-0.3275884533463267,0.8941288708515512,-0.04957190122150888,-27.283551653210154,27.64418886550862,-25.926645598132254
1760679973.533638,-10.80767436636895,-0.38135482237525475,0.8457489363087983,-0.061274502076156694,-23.89283082832754,22.73112747943962,-28.631050453796707
1760679973.5435908,-11.419261002446774,-0.42135941206287886,0.8107519788994951,-0.06789479644668239,-20.012105774936728,16.411945791337075,-32.10470931728284
1760679973.5534096,-12.079929839469063,-0.4444669866001299,0.7894302976893922,-0.06936692305211223,-15.845510878249831,8.948164880331959,-36.29567839218488
1760679973.5638149,-12.777714291654794,-0.4497879188458352,0.7806860341874766,-0.06628936775848798,-11.613940786366244,0.7369525512512656,-41.02740733060373
1760679973.5737522,-13.499453691329215,-0.43879689853344034,0.7822669478709691,-0.059669006734792696,-7.535961782799961,-7.728827736777517,-46.02367341535229
1760679973.5839686,-14.232083237099165,-0.4150511946065508,0.7911417332978011,-0.050661062320708695,-3.80859613061405,-15.915681861010656,-50.9503847345308
1760679973.5935147,-14.963842663523476,-0.38354906259248717,0.8039585743170727,-0.04035801527754816,-0.5900551226095458,-23.312417253871846,-55.46667307733425
1760679973.6036437,-15.685211881964447,-0.3498514446631671,0.8175175857291073,-0.029653370616493646,2.0135815091898226,-29.491821169029738,-59.275992626537125
1760679973.6138015,-16.38946692927401,-0.31914846180807355,0.8291857432758082,-0.01918329409428577,3.956017200227229,-34.1613216154927,-62.16826852725592
1760679973.6236386,-17.072838153999275,-0.2954631417592665,0.8371931781159676,-0.009336517547175799,5.251572380567282,-37.19398282750501,-64.04629183750684
1760679973.6338155,-17.734319574361944,-0.28114204262478365,0.8407721591650228,-0.0003171513587595587,5.9690212152293975,-38.63438068057181,-64.93291465630718
1760679973.6438847,-18.37521611399111,-0.2767023003434052,0.8401297478825437,0.007762038333219219,6.2194624554257265,-38.67875658052182,-64.95933505455528
1760679973.6537166,-18.998528016758613,-0.28101712000210866,0.8362741063893668,0.014788870724539046,6.140302244151113,-37.63407070612782,-64.33803641819907
1760679973.663424,-19.608267599431485,-0.2917547812988458,0.8307366079859729,0.02060101755305686,5.877929896650897,-35.86459400710716,-63.326150652022136
1760679973.673862,-20.208790741123998,-0.30595315442027354,0.8252441464509341,0.02499996802239684,5.571516155916091,-33.73640382980125,-62.18591101405957
1760679973.6838038,-20.80420885960627,-0.3206093593841437,0.8213976248631484,0.02782571734218264,5.3397428950610255,-31.569346236950967,-61.148512152001224
1760679973.6935894,-21.397927950744908,-0.33318239952075757,0.8204051067177061,0.029059303440665107,5.2715114681596384,-29.60325684034349,-60.38634278447306
1760679973.7038407,-21.99234051913777,-0.34193743119816844,0.8229045604019923,0.028907395236756294,5.421024863835021,-27.981511405488856,-59.99656832998768
1760679973.7137084,-22.588676156706867,-0.34609848450342073,0.8288940425608725,0.02783107146714237,5.807153342593954,-26.751354152656262,-59.99687372322509
1760679973.7237182,-23.186999782693448,-0.3458159049335296,0.837768454926297,0.02650264941251798,6.416609131570677,-25.87767593404236,-60.33227123951393
1760679973.7338212,-23.78633498828092,-0.3419883572493827,0.8484444743344828,0.025698396510832326,7.210134809952925,-25.26536247574758,-60.890531097271996
1760679973.7437913,-24.38488411870265,-0.33600093928664976,0.8595428544996749,0.026152731915615585,8.130691415942408,-24.785069430660283,-61.523096848864576
1760679973.7534933,-24.980315584499582,-0.3294472260572616,0.869593406211866,0.028408523213584082,9.112565274131608,-24.29810801289396,-62.068225651251545
1760679973.7637286,-25.570089233594118,-0.32389201817325597,0.8772326784740684,0.032699201291461505,10.090386736218242,-23.677614006623717,-62.37337214510443
1760679973.773733,-26.15178832986661,-0.3207056248583958,0.8813734682101081,0.038891781186754966,11.00720263252148,-22.824764582787235,-62.31431404166023
1760679973.7836826,-26.72342025918436,-0.3209699602528801,0.881332838047362,0.0465047716330246,11.820894944258306,-21.679994256224383,-61.80905314725647
1760679973.7934349,-27.28364116539692,-0.32543469345011355,0.8769078858594669,0.05479460728417032,12.508361576370365,-20.229678238355543,-60.82510301364806
1760679973.8034134,-27.831858804784936,-0.3344947604734515,0.868388001069508,0.06288681693413391,13.067008745035912,-18.508661056335058,-59.379478004448295
1760679973.8137517,-28.36817705138981,-0.348166748947627,0.8564952721239895,0.06992029991789157,13.513332582102292,-16.598622373690816,-57.531577058330264
1760679973.8238683,-28.893164050056072,-0.3660551870966263,0.842256410261075,0.07517527349301863,13.8787409441713,-14.621965911335776,-55.37013206782585
1760679973.8335612,-29.407451372754753,-0.3873154309750083,0.8268275705427078,0.07816441265629256,14.203225553126794,-12.730955474991541,-52.99628688199836
1760679973.8438222,-29.91120172727442,-0.41063380454113774,0.811308202108035,0.07867868686147993,14.52789225802859,-11.092263809940663,-50.50548046506336
1760679973.853731,-30.40351500337736,-0.43425382935393353,0.7965834696203276,0.07679040690788506,14.887565097642097,-9.867816307740027,-47.970969179051885
1760679973.863816,-30.88187061732471,-0.4560763408852925,0.7832272903505808,0.07282268653717933,15.304661783921942,-9.19359590672677,-45.431500339714184
1760679973.8734722,-31.34171979739489,-0.47385033153107864,0.771485785075488,0.06729658812578322,15.785330860540803,-9.158752228103129,-42.88493149219066
1760679973.883509,-31.776336914691836,-0.4854514521046235,0.761347573048879,0.060866914281711974,16.318492439926214,-9.787801614717159,-40.288637296553134
1760679973.893834,-32.177009351565175,-0.4892181286695623,0.7526915436371097,0.05425605521197761,16.877965668714506,-11.028799155904682,-37.56652564281475
1760679973.9036396,-32.53359100592632,-0.4842871654100143,0.74548397620005,0.04819157193543688,17.427331303314766,-12.749988731633161,-34.62154396404301
1760679973.9138806,-32.83537416848843,-0.47085282380966254,0.7399798626542615,0.04334769055077665,17.926642850918547,-14.746520865991707,-31.351819985631174
1760679973.923748,-33.072165963220556,-0.45027675608641515,0.7368750336240253,0.04028677480483784,18.33968993267494,-16.757428206664642,-27.668133421655327
1760679973.9337826,-33.235408807665024,-0.425003314581123,0.7373601432512688,0.03939711838490188,18.640363120274458,-18.491394948594326,-23.510286134745364
1760679973.943533,-33.31917168191228,-0.39827696749292296,0.7430440204527715,0.0408281655567284,18.81683555401382,-19.658319806141005,-18.860110361914863
1760679973.953784,-33.32086050636685,-0.3737017500840798,0.7557384898440114,0.04443108992518094,18.872729686159623,-20.002639029006257,-13.74927175501921
1760679973.9638505,-33.241543080221334,-0.3547154880178478,0.7771244526122818,0.049718411751670015,18.825070539418622,-19.33407200960758,-8.260614121997039
1760679973.9735599,-33.08584541350349,-0.34406861199298233,0.8083456402925158,0.055858549973633875,18.699506775182503,-17.551848016681543,-2.5225218386282515
1760679973.9836075,-32.86144078810159,-0.3433975873670905,0.8495993947772095,0.06171841647829085,18.523884272468816,-14.65937757338105,3.30334283361984
1760679973.993568,-32.57821100631947,-0.35296709279457905,0.899809604304446,0.06595918070928931,18.321677421721407,-10.767549570381505,9.039559970282992
1760679974.0038633,-32.24720418357338,-0.3716260545531259,0.9564693566354238,0.0671784552797978,18.10691604290578,-6.086204869765158,14.513363792928006
1760679974.013599,-31.879539882464453,-0.39698541206731097,1.0157239196770158,0.06407900634669939,17.88199752433863,-0.9047012084011425,19.576831941597373
1760679974.02385,-31.48541432703053,-0.4257857720998698,1.0727269607041214,0.05563447683874068,17.639121959978773,4.436303943440202,24.123504029550222
1760679974.033665,-31.07333168940891,-0.4543891073363035,1.1222485396075879,0.04122322019584256,17.365135374530904,9.578764408616157,28.098583362311988
1760679974.0438392,-30.649637518066214,-0.4793108283292093,1.159449947062508,0.020714348857552165,17.04852961254291,14.18307544167223,31.50113021390249
1760679974.0535166,-30.21837322625517,-0.49770957865466037,1.1806803525369987,-0.005494074534057763,16.686509797501348,17.961631273733953,34.37829654347436
1760679974.0635064,-29.78142115517955,-0.5077610239280607,1.1841151171145852,-0.036480700737330764,16.289734964556857,20.705894989717486,36.81310919120701
1760679974.0737143,-29.338873581633017,-0.5088511897138902,1.1700721776059604,-0.07085533264484795,15.882879407377743,22.303433412416926,38.90824421211257
1760679974.0838006,-28.889537255055654,-0.5015474931138711,1.140922455754558,-0.10687333310630018,15.500561192770997,22.74289148738438,40.768657364998944
1760679974.0936353,-28.431480722555523,-0.48735603875358324,1.100628147964547,-0.14261208383921567,15.179889186476299,22.106952118298707,42.485909268173245
1760679974.103697,-27.96254616156042,-0.4683365910114696,1.05404606651393,-0.1761915621841887,14.952036274013771,20.555296941856728,44.12652374876561
1760679974.1134713,-27.480774178668838,-0.44668427627666435,1.006177343664486,-0.20600268091866583,14.835324598727716,18.30090056990128,45.72579911029065
1760679974.1235418,-26.984717392467854,-0.42437816296889497,0.9615220386864847,-0.23089801581658748,14.831428725539359,15.583493669294462,47.287391569985886
1760679974.1335232,-26.473638445596023,-0.4029537796152055,0.9236315749177048,-0.25030274886393383,14.925022744072045,12.643859426451595,48.78798382131973
1760679974.1438456,-25.947599949750163,-0.3834081352812606,0.8948776377753421,-0.2642198828285448,15.086123689185959,9.701980071163398,50.18560053226014
1760679974.1534948,-25.407461480217588,-0.36621315012820455,0.8764016610892972,-0.2731304416713546,15.27390058072169,6.941081564287513,51.42969312432115
1760679974.1636305,-24.854804602749542,-0.35140118057435404,0.8681882817259968,-0.2778184179929184,15.440868664497795,4.498503023838249,52.47100846532015
1760679974.1736617,-24.291810632028817,-0.3386876892048353,0.8692149849661497,-0.27917003401792767,15.536915186443006,2.463230169957957,53.2694786096657
1760679974.1836002,-23.721115823986832,-0.3276026085004257,0.877651777443297,-0.2779989039618674,15.51314020036642,0.8790352674844731,53.79888717546
1760679974.193708,-23.145664477597467,-0.31760925546536756,0.8911012043976282,-0.2749337235624462,15.325766066059842,-0.24843291901466538,54.04781274861265
1760679974.2038069,-22.568573316520343,-0.30819727884797926,0.9068710882322679,-0.270382113150453,14.940275984934644,-0.9425011343016552,54.017204473323105
1760679974.2135017,-21.993012782011434,-0.2989442221998779,0.9222628868688721,-0.264562983091,14.335576027061057,-1.2460197014417584,53.71573001613503
1760679974.2236805,-21.42210381410373,-0.28954714699523304,0.9348480752534722,-0.2575855662912527,13.507561544936749,-1.2129213954622693,53.15454326213019
1760679974.2338216,-20.8588224494376,-0.279828838189696,0.9427018859574036,-0.249547133362854,12.471252480701875,-0.9015084398761661,52.34320420590179
1760679974.2434518,-20.30590009688853,-0.2697227668816477,0.9445691336141615,-0.24062256565391277,11.260779607762913,-0.3695884654418449,51.28812147585994
1760679974.2535102,-19.765707940405434,-0.25924122071937433,0.9399473057182615,-0.23112557519418545,9.926917186586618,0.3288846468350556,49.99415367608535
1760679974.2636201,-19.240123379900208,-0.24843527492232262,0.9290842799763386,-0.22153031459683506,8.532387681263451,1.1462453201942921,48.469053825307434
1760679974.2735322,-18.73039514414687,-0.23736201002778806,0.9128994656039162,-0.21245013394454443,7.145602738536127,2.043159091360491,46.729502090334705
1760679974.2836335,-18.23704555059446,-0.226077174161958,0.892845720917227,-0.20457626282038302,5.833725307406026,2.9904959667289823,44.806810808700504
1760679974.2937393,-17.759861723625963,-0.2146643084619055,0.8707336265961044,-0.19858480036814435,4.65592925148044,3.9708069930708363,42.75022920221908
1760679974.3040845,-17.298021110249824,-0.2032945614147672,0.8485395465268617,-0.19502698123653925,3.657558159435317,4.978803791241511,40.626242189042586
1760679974.3134944,-16.85036582816271,-0.1922923191346443,0.8282154896984695,-0.19422370516335652,2.8656375885351157,6.020172509344958,38.51329178515267
1760679974.3235362,-16.415790544336748,-0.18216972867996178,0.8115134784172151,-0.19618705740149775,2.285976940928531,7.108406319707167,36.49268188243215
1760679974.333471,-15.993654514823938,-0.17359519360403505,0.7998315192775519,-0.2005868542630096,1.9019852883299926,8.260038997256988,34.637643115815095
1760679974.3435483,-15.58409165025564,-0.16727996922323077,0.7940848092387981,-0.2067711259757698,1.6753237997996508,9.489451159891306,33.003240585520146
1760679974.3536417,-15.188095867114233,-0.16380111910327014,0.7946073719980447,-0.21384073459695102,1.5485544307492027,10.804938999865998,31.619766501588916
1760679974.3634982,-14.807317713658335,-0.16341943089471303,0.8010967243707181,-0.22077365126264475,1.4499273982050382,12.207630582500457,30.4914143322922
1760679974.3737564,-14.443613925714367,-0.16597755332075997,0.8126232326255377,-0.226591945317924,1.3003134544585488,13.693932040263865,29.600536376196107
1760679974.383831,-14.098498676344501,-0.17094948431560691,0.8277276321208369,-0.2305566625863546,1.021996364121002,15.260668089099726,28.916108804301942
1760679974.3938208,-13.7726899413254,-0.17764878348648078,0.8446168886198263,-0.23235790211222257,0.5485996999747637,16.91054421803554,28.403833322067253
1760679974.4040704,-13.46589602771157,-0.18552188293268188,0.8614415501643411,-0.23224864630588743,-0.1650834793550172,18.654807192747924,28.035054102041887
1760679974.4137247,-13.176876667489033,-0.19440593070890824,0.8766093389026968,-0.23106902766405624,-1.134980160742964,20.510596119409552,27.792337846414824
1760679974.4237578,-12.903703526446018,-0.20464244633400996,0.8890738485763252,-0.23013092500619706,-2.343045846690842,22.492383583469948,27.670756267851164
1760679974.4337654,-12.64408748565861,-0.21699576602925502,0.8985389528281751,-0.23097209110871594,-3.7373386283003533,24.59931015282585,27.675117537791632
1760679974.4436471,-12.395651419813712,-0.23239820153272994,0.9055360391587493,-0.23502743828139072,-5.237441695004686,26.802040163266437,27.814202228140253
1760679974.4536676,-12.156088507282982,-0.25160034142748666,0.9113572682877101,-0.24328820590768624,-6.744797550736057,29.03327353393633,28.093314910041865
1760679974.4637532,-11.923217037381074,-0.27482516319215106,0.917856826600498,-0.256020732192427,-8.156493690608954,31.1851730517698,28.506331934974483
1760679974.4736776,-11.694988571072106,-0.30151122623432824,0.927155584921262,-0.27259867610663835,-9.380301820746126,33.11522785405487,29.0282340976285
1760679974.4835525,-11.469515951562396,-0.33020079061273877,0.9412978585203018,-0.29147640784849604,-10.348541151264724,34.66018568402229,29.6090723074229
1760679974.4935257,-11.245168427191988,-0.3585973467211593,0.9619120967733101,-0.3103071280701966,-11.02864190211908,35.65615472653717,30.17040587718714
1760679974.5036967,-11.020746393880886,-0.3837881296767087,0.9899228050690453,-0.3261912064262954,-11.42896294846421,35.96195762979196,30.605315458386148
1760679974.5136292,-10.79571167356562,-0.4026013714174943,1.0253515578769499,-0.3360273650914673,-11.599226703997697,35.48225893928801,30.782957271128982
1760679974.523806,-10.57042265265976,-0.4120458416302863,1.0672326311171232,-0.3369295846166645,-11.625678566177948,34.18681302546841,30.558182591697967
1760679974.533645,-10.346313464166787,-0.4097627217915723,1.1136548679183602,-0.3266641383890865,-11.621653821937919,32.122425078220076,29.785978407891957
1760679974.543496,-10.125962611960043,-0.3944114113423373,1.1619269342970315,-0.30405261607629563,-11.714630412877664,29.414998325299262,28.339491542824344
1760679974.553597,-9.913015486220873,-0.3659189129658453,1.2088485304356822,-0.26927920518308407,-12.031113263407654,26.260419265055138,26.1293898022533
1760679974.5636985,-9.711953247562414,-0.32554997757253107,1.2510552295794273,-0.22403899773571745,-12.680894144148253,22.904875290270223,23.121553263314453
1760679974.5734737,-9.527733215077719,-0.2757945089321775,1.2853908532096183,-0.1714755305158008,-13.742367164997043,19.617136117035795,19.349800990936888
1760679974.5836706,-9.365357093113857,-0.22010556607167922,1.3092530375029388,-0.11588366120363489,-15.250593343775453,16.656860986307912,14.920651253400694
1760679974.5935352,-9.229445963240172,-0.16254436807004477,1.3208595914571337,-0.0621961647276994,-17.189622930491335,14.243698770554841,10.007975912816745
1760679974.6036239,-9.123908896424092,-0.1073944954425768,1.3193966543366271,-0.015321690250935476,-19.490184544217733,12.53167917099362,4.83676998621307
1760679974.6138804,-9.051781976453547,-0.05879870508013569,1.305031807841831,0.020555897834236198,-22.033292826168005,11.592284957815744,-0.3429908442993597
1760679974.6237154,-9.015286489009304,-0.02045370014313799,1.2788013890498149,0.04258866035428858,-24.65968947331924,11.407956215911609,-5.289486450380739
1760679974.6335688,-9.016112285545585,0.004623817688813735,1.2424055484980705,0.04967346086640893,-27.184366823513848,11.875997927952284,-9.804487931087353
1760679974.6436684,-9.055880694520596,0.01426747963420659,1.1979607881302983,0.04258749946071866,-29.41476294496999,12.821331882513727,-13.765267602008178
1760679974.6539185,-9.136689438196068,0.007289932937743959,1.1477631491615647,0.02383114500135908,-31.170633628354118,14.015541549533078,-17.147063659707744
1760679974.6636827,-9.26160271297106,-0.016407401259247972,1.0941054526280392,-0.002791550494144909,-32.303232729899555,15.199333834087334,-20.031261704698483
1760679974.6736848,-9.434938154540333,-0.05573734327402532,1.0391711492896538,-0.03278150638522137,-32.7113968572974,16.10585343007582,-22.5965661046017
1760679974.6837363,-9.662229151207926,-0.10836502268655544,0.9849990425168197,-0.061637295046480974,-32.35245624781524,16.48304849316512,-25.093199444235665
1760679974.6936088,-9.949805041715326,-0.1707300064553916,0.9334872769061411,-0.08551153883396696,-31.24649878343432,16.114173629941725,-27.803111649492344
1760679974.7036796,-10.304019910885682,-0.23821216966904543,0.8863951786273746,-0.10171817973265243,-29.473309894782414,14.83612198048238,-30.991832867498964
1760679974.7136703,-10.73024902195956,-0.3054854316517853,0.8453106418102386,-0.1090091105296824,-27.162246362751514,12.555269384104085,-34.85951776670823
1760679974.7235506,-11.231832380695428,-0.36706000743784595,0.8115690456592607,-0.10758805036934609,-24.476306099840166,9.259842728305888,-39.499475754806355
1760679974.7337775,-11.809159116515547,-0.41795501023120024,0.7861304384715491,-0.09888497253779084,-21.59257542850989,5.026859361811541,-44.87175026096276
1760679974.7439015,-12.459056265176834,-0.45439246966416214,0.7694438290282406,-0.08516128700923493,-18.681849197356907,0.021081178934255873,-50.79707050885061
1760679974.7536778,-13.1745891670518,-0.4743798081734901,0.7613437955260918,-0.06904203669113339,-15.890342490981887,-5.516244890266564,-56.97310319070703
1760679974.7636833,-13.945316137926316,-0.47805401422145266,0.761023940126566,-0.0530708300511143,-13.325995798484826,-11.289698126368654,-63.0110455167605
1760679974.7737858,-14.757974395728615,-0.46769152685275883,0.7671116163324228,-0.039359475005957385,-11.051004923228312,-16.981780312810614,-68.48701407647745
1760679974.7836716,-15.59750822826041,-0.4473404200261474,0.7778386145798669,-0.02936803275118097,-9.081072846429773,-22.29127757466678,-73.00010742193196
1760679974.7938905,-16.448291694462583,-0.42210624036650884,0.7912759372322417,-0.02381509129668704,-7.390768565812699,-26.972481726256728,-76.22793695020817
1760679974.8039758,-17.295364703153272,-0.3972103739778701,0.8055849174042201,-0.022693360449818026,-5.923576763394706,-30.86873062779969,-77.97098799281845
1760679974.8137956,-18.125508296038905,-0.3770123138450949,0.8192343197953845,-0.025358199433926018,-4.60484019772864,-33.93367457438693,-78.1791878061577
1760679974.8237152,-18.92802996850326,-0.3642108656551139,0.8311445534547713,-0.03066372106567986,-3.3557129069689595,-36.235006502165945,-76.95703954951617
1760679974.8339403,-19.695194218256457,-0.3593993319582871,0.8407423664008353,-0.03713201279430404,-2.1062954722268588,-37.93820616212517,-74.54707975965134
1760679974.8436723,-20.42229698091041,-0.3610619756262578,0.8479325909369912,-0.0431451163718433,-0.8063001672070557,-39.271755381726294,-71.29474212946462
1760679974.8535576,-21.10743401695259,-0.36599676096984907,0.8530075674168831,-0.04714427595225341,0.568015779320837,-40.47935876257795,-67.6005052733574
1760679974.8636284,-21.751049312593555,-0.37006114304225884,0.8565171682153334,-0.0478134770542244,2.0112946196035524,-41.76781127887591,-63.867021860626856
1760679974.873883,-22.355368768621286,-0.36907979349032183,0.8591180123877741,-0.044224126433441265,3.490852559322099,-43.26038484523262,-60.44942509014466
1760679974.8839548,-22.923825130049547,-0.3597334345701808,0.8614173322590297,-0.03592818127571289,4.952172723585793,-44.96461982158158,-57.61605034600035
1760679974.8938732,-23.460561927992938,-0.3402659370099808,0.863829706067779,-0.023001128366421066,6.327173266756633,-46.7605612100636,-55.52457804908395
1760679974.9039,-23.970070663332642,-0.3108917365272954,0.866470475485839,-0.006042904898834769,7.544147138577053,-48.41165810986301,-54.215635170625745
1760679974.9136972,-24.456974311994518,-0.2738430709600587,0.8691095670818433,0.013859643386092598,8.538165237821193,-49.59671394660664,-53.6228977359485
1760679974.9236846,-24.925931457434714,-0.23305770709144805,0.8711988823496867,0.03521370430600063,9.26066454152687,-49.9580754752245,-53.59629771154497
1760679974.9337475,-25.38160801257334,-0.19356793669229122,0.8719691568310967,0.05625209519307913,9.687000529038787,-49.15894133329004,-53.93335998241329
1760679974.9436517,-25.828653070598758,-0.16070249138227213,0.8705750462218205,0.07511460567869695,9.821005203314918,-46.94133137987546,-54.41305189103579
1760679974.9537838,-26.27162232858424,-0.13924264966893954,0.8662547041539231,0.09006314199693032,9.6960136189637,-43.1759494049422,-54.82676044458721
1760679974.9637585,-26.714812173561445,-0.13267463882770497,0.8584657848003137,0.09970077460711484,9.372296847571167,-37.89598967869425,-55.002010166295875
1760679974.9734766,-27.16199289843723,-0.1426559035778532,0.8469673046812731,0.10315900680001786,8.931311498340541,-31.308948399857243,-54.816159585720385
1760679974.9837763,-27.616055089683623,-0.16877328515172357,0.8318356666173973,0.10022188288945952,8.467613938195784,-23.7836065900419,-54.1993374905175
1760679974.9937046,-28.078606485611385,-0.20862472313933403,0.8134258588495469,0.09136701095703309,8.079592233358875,-15.813167212411873,-53.12792245132625
1760679975.003539,-28.549575729517358,-0.25820594801891883,0.7923056587953312,0.07771813321198295,7.8602186097372915,-7.959402009093981,-51.61148675617732
1760679975.0135872,-29.026890733271504,-0.3125332156291623,0.769196190048569,0.060918300892080016,7.8888106325698,-0.7858533962599553,-49.67698817288115
1760679975.0238304,-29.506298378182798,-0.3663914604024542,0.744946306208078,0.04294432663103434,8.224432393924655,5.209965125536394,-47.35399321441615
1760679975.033664,-29.981377440419692,-0.4150770361606074,0.720553778370059,0.025890186281148628,8.901216674170737,9.655205162193688,-44.66396682321089
1760679975.0437808,-30.44377076610908,-0.4550124524876837,0.697226984189818,0.011748802272505762,9.925640379838804,12.342588665260553,-41.615421879953345
1760679975.0536938,-30.883631248652023,-0.4841424396632886,0.6764611964300388,0.0022180127924377505,11.27566521245693,13.248218761487903,-38.20528702457497
1760679975.0638647,-31.290245105078068,-0.5020653051016262,0.6600889832367974,-0.001451937855474838,12.901632614905726,12.525053245679057,-34.4255021357517
1760679975.0737486,-31.652771441087,-0.5099013686677387,0.6502599925115727,0.001437131038111513,14.728814995220601,10.474832790933556,-30.272827207557523
1760679975.0839624,-31.96102393880909,-0.5099434164334304,0.649314380674849,0.010972098531647772,16.66152011409708,7.504327286814151,-25.75932254906581
1760679975.0937738,-32.206219030946,-0.5051645574385328,0.6595352317082055,0.026607186461147937,18.58860633613866,4.073410776725222,-20.92097345239942
1760679975.1034977,-32.38162019293865,-0.4986713425192076,0.6827940609501457,0.04717503481937809,20.390220017441763,0.6426337864846421,-15.822397163321941
1760679975.1135807,-32.483014591743185,-0.4931861815163944,0.7201339766640286,0.07093180429009312,21.945547391616813,-2.373145105726639,-10.556326982133733
1760679975.1236715,-32.50896717129392,-0.49063081149663734,0.7713613264985673,0.09564545404600458,23.14137487671823,-4.640432516249487,-5.237511993294207
1760679975.1338828,-32.46081599673941,-0.4918692097135432,0.8347333889877827,0.11873905269174503,23.881220058749534,-5.929649216790819,0.008247801036702026
1760679975.1437895,-32.342407668099455,-0.49665397665555094,0.9068322146127574,0.13749539012003925,24.094672589478456,-6.124179097660289,5.058109164512763
1760679975.1534877,-32.1596192127588,-0.503797597894365,0.982698769087767,0.1493145637536957,23.746340061605693,-5.217216901592965,9.806560484266981
1760679975.1635044,-31.91975794606479,-0.5115511704752119,1.0562641929898855,0.15199729203372317,22.843437024593772,-3.2989562851452217,14.177210471517187
1760679975.1734982,-31.630952171216254,-0.5181176868295394,1.1210580655025184,0.14401403773895885,21.440657373775977,-0.5374664623420249,18.129539248231513
1760679975.1837296,-31.301627317203536,-0.52217020920698,1.1711057260430422,0.1247211672434577,19.6406970530081,2.84310619992459,21.659408879248605
1760679975.1935365,-30.94010760954366,-0.5232197115343382,1.2018616891660399,0.09449555567521112,17.58887028805352,6.58375818944159,24.79379894698621
1760679975.2036047,-30.554319256703874,-0.5217121362130858,1.2109818592101163,0.05476641649359491,15.46087884645276,10.409124851547586,27.581697177243225
1760679975.2135386,-30.151531548623275,-0.5188234785571734,1.1987380690478777,0.007924072725517378,13.44404684181442,14.042732218883575,30.08369009850018
1760679975.2235005,-29.73807684301716,-0.5160228895203985,1.1679472440838876,-0.042908603944872635,11.71414460528993,17.220120118899814,32.36239961458437
1760679975.2337878,-29.319034597503556,-0.5145442082604911,1.1234189030728685,-0.09423112955032112,10.411823255121801,19.70189028790674,34.47496229928789
1760679975.2438757,-28.897923455447742,-0.5149294961284452,1.071068785719199,-0.1425956031877739,9.623749063691834,21.288381744655407,36.46788341316624
1760679975.2538996,-28.476485740403977,-0.5167839766140416,1.0169348136190781,-0.18503077089442535,9.372916072267326,21.83603031222486,38.37411790469159
1760679975.2637177,-28.054647902299894,-0.5188154534648572,0.9663278738596327,-0.2193788258140329,9.620288881073469,21.273316742052444,40.212072662946866
1760679975.2735639,-27.630700555160015,-0.5191402250439662,0.923270460234298,-0.2444908293740782,10.276794806282554,19.612689573538788,41.98621273151018
1760679975.2837732,-27.201685009358954,-0.5157537072069823,0.8902670358397952,-0.26026140749407145,11.22200722316899,16.95470283739484,43.688972029205
1760679975.2938035,-26.763924313285518,-0.5070190794907211,0.8683547307082917,-0.26751283527435393,12.324562801381385,13.481829579920847,45.30368828129876
1760679975.3036911,-26.313609546933474,-0.4920355250414553,0.8573292483738432,-0.2677615408321268,13.459705315398509,9.441518573455102,46.80830447756651
1760679975.3137057,-25.847347948669324,-0.4708001094158611,0.8560374210315698,-0.262917761982962,14.520998859163353,5.1204540161926735,48.17955354907221
1760679975.3236334,-25.362593699863336,-0.4441486852335885,0.8626631020779267,-0.25497808057581844,15.425462818064288,0.814038867889127,49.39718870189691
1760679975.3336532,-24.857909699634178,-0.4135239291329615,0.8749801831016941,-0.24576550559646942,16.1133397140532,-3.2037459574532954,50.44756931130573
1760679975.3436904,-24.33304483605011,-0.3806557173406563,0.8905790806168691,-0.2367526498657585,16.544825384434308,-6.705143078058181,51.32575458772907
1760679975.353899,-23.788849755078914,-0.3472465577722769,0.9070804415566002,-0.2289776118723555,16.696168707969786,-9.524574974881336,52.035404145737516
1760679975.3636785,-23.227085947028797,-0.31473699180945885,0.9223390616089957,-0.22303976880437892,16.556797243473955,-11.56444094954626,52.58627978095875
1760679975.3735561,-22.650199189917213,-0.2841917796098383,0.9346261017219336,-0.21915120546790315,16.12802668182423,-12.791617193323685,52.98983657802916
1760679975.3836856,-22.061124304190248,-0.25630903678398964,0.9427688929508127,-0.21721928107333432,15.422960488324106,-13.227098849853624,53.25404202121415
1760679975.3937976,-21.46316532118946,-0.2315217357714542,0.9462281435498712,-0.21694109348497018,14.466676873538376,-12.93195468519002,53.37893396680815
1760679975.4037066,-20.859960640645355,-0.2101404917156387,0.9451004595342138,-0.2178954106487754,13.295773169759581,-11.992691067075594,53.354361822982185
1760679975.4134727,-20.255507404631256,-0.19248155207516526,0.9400460384935156,-0.2196206469171617,11.956652572330675,-10.508442508831624,53.16082934673386
1760679975.423889,-19.65419499236729,-0.17893495314023092,0.9321530308427091,-0.22167074482478252,10.502391945775845,-8.58139106117046,52.77351886010723
1760679975.433798,-19.060792602922024,-0.1699514469831706,0.922757949155823,-0.22364606521548488,8.988453428449226,-6.3107449658625345,52.168679125538205
1760679975.4438806,-18.480350888187154,-0.16595553573143798,0.9132450193695133,-0.22520302808032436,7.467804164975475,-3.78972160393801,51.3308571950577
1760679975.4535055,-17.918005034345224,-0.16721630159506112,0.9048485613804089,-0.22605206496261765,5.986153357292419,-1.1044531796218247,50.25914089902046
1760679975.4637017,-17.37869600277076,-0.17371982141151485,0.8984825725144777,-0.22595600316392167,4.578002849720574,1.6663662056383757,48.97076231608053
1760679975.4737124,-16.866849708503697,-0.1850839903873172,0.8946196568413379,-0.22473890324981058,3.2640652229094433,4.452007579167822,47.50107916818364
1760679975.4841106,-16.38606633480668,-0.20054147540146822,0.8932363520456807,-0.222309224976933,2.0503800637053966,7.190866141448792,45.899925741178514
1760679975.4940395,-15.938871516840374,-0.2189956639022988,0.8938339856257829,-0.21869373642297388,0.9292033286853824,9.832253135124947,44.2253112385705
1760679975.5044873,-15.526567478291208,-0.23913491192570052,0.8955341919393264,-0.2140730122362102,-0.11849899511530035,12.338466260011135,42.536128312537286
1760679975.513817,-15.149198932135445,-0.25957805140787693,0.8972373570484937,-0.20880719434777079,-1.1193173636507432,14.686541442275306,40.88569231270928
1760679975.5237558,-14.805623909234448,-0.27902211572498287,0.897822165437179,-0.20344127817236957,-2.1029227310234577,16.868957790193843,39.31751110043996
1760679975.5335624,-14.49366295553053,-0.29636968382120665,0.896356713218619,-0.19868110596347321,-3.0974201057220045,18.892574512484085,37.86385074711107
1760679975.5437212,-14.210295629077175,-0.31082181155012795,0.8922880243406717,-0.1953339502077725,-4.12512356217335,20.775259496013323,36.54672601334154
1760679975.5540643,-13.951877971603292,-0.3219277123999718,0.8855789682075077,-0.1942119809716191,-5.199304586168174,22.540057300475453,35.38021816365207
1760679975.5638926,-13.714361950420516,-0.32958411177933705,0.8767700772137652,-0.19600410558656906,-6.322353940028365,24.20734408089454,34.372707001156286
1760679975.5740237,-13.493503227255445,-0.3339804518650273,0.8669569675908468,-0.20113110098712708,-7.485608342694536,25.78614282523599,33.527748712151705
1760679975.5835245,-13.285048454848658,-0.33549601705510634,0.8576885063123609,-0.2096082777262537,-8.67084651340209,27.266405175229234,32.84284046622299
1760679975.5938044,-13.084902572933462,-0.3345705589043037,0.8508025186927022,-0.22094574847756138,-9.853209550926437,28.614310736310767,32.306000520658166
1760679975.6036267,-12.88929084444177,-0.3315823163995968,0.8482218515485228,-0.23411513616599772,-11.00511372141967,29.772276957772824,31.890780392073896
1760679975.6135092,-12.69494172727247,-0.32676701516485424,0.8517340193067333,-0.24760120384443907,-12.100631909895759,30.664425686135747,31.550903087534127
1760679975.6236963,-12.499313880613922,-0.32019646551746533,0.8627754865080524,-0.2595393881699807,-13.11981178548393,31.20698016063354,31.216112019447248
1760679975.6337342,-12.300868094375973,-0.31181215869699475,0.8822404651820661,-0.26792163831089766,-14.052438847758596,31.321862813136008,30.79092856032036
1760679975.6437485,-12.099347746704062,-0.3014883264198191,0.9103347890491313,-0.27083960778282595,-14.900800842126936,30.950977406312603,30.157775100447655
1760679975.6535506,-11.895993564546767,-0.2890895321030954,0.9464953303431035,-0.26672878179235265,-15.681042441189154,30.068477085707936,29.185319073374462
1760679975.6638076,-11.693597375055608,-0.2744941509813647,0.9893911423842915,-0.2545789132334283,-16.422728271726132,28.688760679333374,27.742008700632876
1760679975.673461,-11.496309602796323,-0.25757531405674544,1.0370129123891743,-0.23408372999669094,-17.16630665029085,26.868883977647663,25.713735296631796
1760679975.6837919,-11.309162031374818,-0.23815808336794828,1.0868439168140966,-0.20571440503380056,-17.95834545216968,24.7052904691208,23.02353007783784
1760679975.6939387,-11.137342824363158,-0.21599446352999388,1.1360914110737106,-0.1707132862930736,-18.84473304426676,22.325927862116316,19.65036075861939
1760679975.704137,-10.985342914150891,-0.190803257959681,1.1819457319351412,-0.13101242794915732,-19.862483448132938,19.879549613090912,15.643619541316207
1760679975.7135375,-10.856152639075765,-0.16240202452856062,1.2218287636989655,-0.0890836458189579,-21.031258885369233,17.524055468010136,11.129967832149264
1760679975.7237241,-10.75070265472891,-0.13091926250542396,1.2535961791112138,-0.04772630101869057,-22.346059085265942,15.415160256184256,6.30994538075536
1760679975.7338514,-10.667708370638078,-0.09703464195132849,1.2756689544130004,-0.009801331069206108,-23.77255900606068,13.695841971662283,1.4431469241628563
1760679975.7438576,-10.604002849543523,-0.06217168704424362,1.287085751566639,0.022072085480040235,-25.24623265085327,12.486316879458178,-3.177390275491589
1760679975.7535822,-10.555346661257452,-0.028568344851938203,1.2874836509567615,0.04582898654132641,-26.67575605119953,11.873998886012425,-7.259020340199582
1760679975.7634726,-10.517602699610942,0.0008261567485468489,1.277026509568701,0.06023968995957444,-27.950432189053938,11.903131650954851,-10.547336227185074
1760679975.7737215,-10.488076685336715,0.022641725887305654,1.2563068508060482,0.06511032115388779,-28.95073453337322,12.564497290828012,-12.862733748885965
1760679975.783732,-10.466766468637097,0.033534361853640636,1.2262487184953947,0.06135337601989072,-29.560635621658687,13.786608130214406,-14.1300693645455
1760679975.793757,-10.457249893002363,0.03071893338298869,1.1880347473757409,0.050891880442081906,-29.68016704874965,15.430701462056067,-14.396403737476996
1760679975.8039267,-10.466980819825277,0.012492659498825717,1.1430705597983786,0.0363892692640045,-29.236620500015665,17.292211500252773,-13.833367098804432
1760679975.813935,-10.506854601062841,-0.021347285420401346,1.092985287428186,0.020836385235355245,-28.192973845851057,19.1108637570899,-12.722855895720874
1760679975.823893,-10.59003507950439,-0.06926979644480184,1.0396519815628515,0.007064696948438582,-26.552528114380266,20.590177243784023,-11.42713209774658
1760679975.8337307,-10.730184450088927,-0.12800993837022911,0.9851997464407747,-0.0027217828148298857,-24.359280565360176,21.425367825668815,-10.346593546852986
1760679975.8437498,-10.939379387462116,-0.1928268255445218,0.931984478598125,-0.007300720523348574,-21.69409447880422,21.336887003247956,-9.870334738802686
1760679975.8539565,-11.226098793206097,-0.25801277712336484,0.8824906270667197,-0.006595190048467182,-18.66718992073267,20.10541137460861,-10.32599506594027
1760679975.863906,-11.593690577208845,-0.31760348369390684,0.8391538780124482,-0.0016076888361796467,-15.407886272759443,17.603210529501858,-11.93603156528327
1760679975.873764,-12.039638700895804,-0.3661853838683319,0.8041210136466198,0.005864221909409081,-12.05288428877479,13.816695326274983,-14.787078145780962
1760679975.8837113,-12.555769328503892,-0.39965753376822344,0.7789895174065397,0.013667225566344062,-8.734626019558368,8.855825123895197,-18.817295996750502
1760679975.8937085,-13.129315914886334,-0.4158056776142326,0.7645846752340616,0.019785015765685577,-5.5713048796390465,2.947963573404188,-23.823876492877623
1760679975.903848,-13.744584417200752,-0.41458726766405507,0.7608295141675028,0.0227714563615095,-2.6598188346478633,-3.583606309235067,-29.48973656696947
1760679975.9137733,-14.384873419737923,-0.39808687791442227,0.7667441291265722,0.022029225567404952,-0.07236468447049962,-10.353590898330088,-35.42553353207908
1760679975.9238853,-15.034315028461013,-0.3701585853880049,0.7805818034932649,0.017881200704000205,2.1434238479764325,-16.95604222655524,-41.22084717934782
1760679975.9337258,-15.679380048720708,-0.33581522832794397,0.8000778785433899,0.011436502412933872,3.961672984428469,-23.007298015160213,-46.49702552062289
1760679975.943607,-16.309895025619443,-0.30045664211677964,0.8227622973063464,0.004304325136906011,5.374173833468313,-28.18492473981409,-50.953940718210525
1760679975.9546454,-16.91951884434235,-0.2690542920320037,0.8462749064598841,-0.0017605645837389322,6.3863699711556885,-32.25803447507119,-54.40380795992998
1760679975.9637797,-17.50570666828664,-0.2454242934746496,0.8686263080268743,-0.005195970369393468,7.014344153052966,-35.105449154649754,-56.78722513974053
1760679975.9737978,-18.069245144540847,-0.23171436377859772,0.8883639190664723,-0.004893333782106013,7.2830815448175334,-36.719390180292386,-58.16948625510312
1760679975.983741,-18.613478517531185,-0.22819575295577518,0.9046266805307468,-0.0003530675379573641,7.2257724098309,-37.19403121524155,-58.71857869542469
1760679975.9934776,-19.143364169251743,-0.2333919600284561,0.9170952614554264,0.008270050647542585,6.883653716150979,-36.70056401651812,-58.669441013427075
1760679976.0037687,-19.664498186085886,-0.24450647672674378,0.9258631190955611,0.02022279533663656,6.3058368766104005,-35.45299270892355,-58.281296078027786
1760679976.0138316,-20.182236568677062,-0.25805287593474,0.9312660451695061,0.03429455484408323,5.548655011787144,-33.670856620689996,-57.79565550324259
1760679976.0238185,-20.701009059468124,-0.27055956255157765,0.9337126594698277,0.04901838971267488,4.674231809581543,-31.545747697427277,-57.40184206893612
1760679976.0335906,-21.223886324692725,-0.2792217516114801,0.9335537909989565,0.06289657026393654,3.748161769688964,-29.21756984654499,-57.214955659561824
1760679976.0438101,-21.752422571182343,-0.282395238371787,0.9310147913612034,0.07460915733871878,2.836345092305308,-26.76423217935342,-57.26865339011543
1760679976.0536351,-22.286757615042603,-0.27985933366544796,0.9261955485194523,0.08316855308077743,2.00114395278029,-24.205496216306482,-57.52242399902218
1760679976.0635457,-22.825927300123322,-0.2728146626028558,0.9191249651194745,0.08799838271129858,1.2971691589239136,-21.518787902494434,-57.88060690423034
1760679976.073926,-23.368302448059517,-0.26362341124372207,0.9098452959519022,0.08893641622047443,0.7671831078611178,-18.66262693842111,-58.218569987351586
1760679976.083691,-23.912059017167525,-0.2553420387045728,0.8984983602425587,0.08618022765669284,0.4387489420145083,-15.602312765674453,-58.41051284662582
1760679976.0935957,-24.45558050457964,-0.25113331022308466,0.8853887288550994,0.08020364577692762,0.32226331029302363,-12.332664851472693,-58.35350243355212
1760679976.1037722,-24.997709810079627,-0.2536669624300854,0.8710067197815584,0.07166932382678343,0.41083917644587636,-8.893677206046004,-57.98355753145096
1760679976.1135087,-25.537799500054902,-0.26461900974199143,0.8560048063632757,0.061351989043197094,0.6822048976914541,-5.376534038451833,-57.28159378673547
1760679976.1238737,-26.075550946241847,-0.28435766298428067,0.8411324268435757,0.05007574176130594,1.1024365967396144,-1.9192260378309336,-56.269343984477494
1760679976.1338706,-26.610676671330527,-0.3118649466227371,0.827143178917788,0.03866268706685124,1.6310034120782544,1.3072270862355728,-54.99742751648468
1760679976.1436467,-27.142457935387654,-0.344896675812392,0.8146930076518965,0.02788970278209102,2.2263350020945407,4.119440780212695,-53.52907376543191
1760679976.1538215,-27.669292929794768,-0.3803393712064052,0.8042481180187545,0.01845245395092803,2.850986429511123,6.345730583208504,-51.92335859617566
1760679976.1639614,-28.188334499908763,-0.4146898855764437,0.7960179555414196,0.010937797678093499,3.475530472057512,7.849782261298798,-50.22128146162659
1760679976.1738937,-28.69529952213889,-0.4445682661695642,0.7899230215689195,0.00580572536914317,4.080551235189132,8.550446240787485,-48.43692521359229
1760679976.1835623,-29.184499176702506,-0.46717831032699375,0.7856014224159391,0.003379929019106739,4.656495245501277,8.434952062631824,-46.554664989283346
1760679976.1935396,-29.649097770781943,-0.4806498108411528,0.7824541728290265,0.003843972193108012,5.201585905190609,7.563904082449013,-44.53219654834152
1760679976.2036314,-30.081566033769064,-0.48422527688607575,0.7797280662523037,0.007240697817224238,5.718439882511399,6.067621351399432,-42.30821633095627
1760679976.2135837,-30.474261360483357,-0.47828586341380724,0.7766341619122816,0.01347599277327973,6.210326236680186,4.134566915243671,-39.813013849361
1760679976.2237215,-30.820049026017937,-0.46424043357978867,0.7724965516931328,0.022330386697459858,6.678058759069757,1.9935998124376808,-36.980064334408155
1760679976.2335765,-31.112877489466264,-0.4443211392154268,0.7669191610697782,0.03347949462251274,7.118258242293609,-0.10758392118702344,-33.75688994709176
1760679976.243618,-31.348235003224897,-0.42133274699510875,0.7599492695306778,0.04651826916908518,7.523248327890529,-1.9252538501654206,-30.113889213879826
1760679976.2536006,-31.523438659658527,-0.39839121067366384,0.7522073348694885,0.06097915200796327,7.882342466046418,-3.2413101701395504,-26.050385444363656
1760679976.2637186,-31.63773637156757,-0.37866772944331484,0.7449466474125541,0.07633418384650853,8.183922056348239,-3.8818818775944974,-21.597674333948994
1760679976.27367,-31.69223363576528,-0.3651388345854101,0.7400075818708646,0.0919768208981489,8.417585539784623,-3.731533580085836,-16.819234448456054
1760679976.2836103,-31.689684069573286,-0.3603365786319528,0.7396428377687467,0.1071890870919644,8.575745985047655,-2.7424311994072226,-11.80843924150427
1760679976.2938223,-31.63419512684522,-0.36609375260808386,0.7462115859767047,0.12111000797375061,8.654296886393704,-0.9384360556584931,-6.684093746498647
1760679976.3036273,-31.530889650042084,-0.38328493713528294,0.7617686097046061,0.1327270583841938,8.652292378003459,1.5855442525495425,-1.583976233307127
1760679976.3138626,-31.385535172499385,-0.41157853563052593,0.7876051630123962,0.1409098162373658,8.570964228321655,4.668691057169606,3.3436164960989965
1760679976.3237584,-31.20412804515023,-0.4492417090152246,0.8238260031869915,0.14449391632407116,8.412757001272688,8.09409083397407,7.950402978883239
1760679976.3336685,-30.992422091085725,-0.49307247756405387,0.8690639637423634,0.14240800363484835,8.181261003534484,11.603915947358578,12.100638749963542
1760679976.343609,-30.755426126737675,-0.5385508911849177,0.9204297199452722,0.1338229825318574,7.882788682706106,14.920662860038695,15.6850346054287
1760679976.3538733,-30.496941990090082,-0.5802811256296649,0.9737621548911581,0.11829533873979572,7.529792607662964,17.77425927484632,18.63473005834928
1760679976.3637998,-30.219244956032043,-0.6127279240539384,1.0241827575927618,0.09587569625754518,7.145458513967218,19.933058299041953,20.933209268048465
1760679976.3739042,-29.9230000408062,-0.6311471806937001,1.066874692040528,0.06716133740472943,6.767897770747377,21.234532521668118,22.623616504024344
1760679976.3836396,-29.607459530196962,-0.6325114382491288,1.0979246121015185,0.03328679386373244,6.451778818800253,21.609755275579595,23.809184408076728
