timestamp,angle,linear_acceleration_x,linear_acceleration_y,linear_acceleration_z,angular_velocity_x,angular_velocity_y,angular_velocity_z
1760598455.0952609,-4.263222060196813,-0.04131566235180924,0.9818402722725715,0.025411869516598927,-2.145167073129185,-4.722638835078879,1.4296925767865791
1760598455.1052423,-4.164176895973257,-0.04001026692969173,0.9816095324756406,0.025978521331762282,-2.1481217919400715,-4.091174370082284,1.2296163136491178
1760598455.115234,-4.0699525487208446,-0.03963176096465905,0.9815330150325101,0.026508627615945704,-2.1589356196051726,-3.408063513489187,1.0428711588791593
1760598455.1253138,-3.982542951160535,-0.04015173836554215,0.9816085619365184,0.027038791734469273,-2.1781481712390947,-2.7000351256303228,0.8756536502189347
1760598455.1353261,-3.9035738180169117,-0.041467890230493513,0.9818120703511267,0.027615186539619904,-2.205909303596545,-1.9945047983983302,0.7328141592583142
1760598455.1452353,-3.8341567065306887,-0.04341290447963669,0.98210166019186,0.02828590914276156,-2.242007596223932,-1.3173888023872338,0.6176211674013332
1760598455.1552796,-3.7747941564294276,-0.04577244797997097,0.9824252260398874,0.029091850371065937,-2.2859103774330745,-0.691047160954419,0.5316461690599386
1760598455.165317,-3.725356028656359,-0.0483115450697358,0.9827300065890376,0.03005745685606048,-2.3368151826808212,-0.13251998822565098,0.4747616585965329
1760598455.1754873,-3.6851376814866246,-0.05080592413064019,0.9829719370991463,0.03118278566636558,-2.3937132326069244,0.34779632010999156,0.4452435111833616
1760598455.185264,-3.6529950757999208,-0.05307257389777803,0.9831224083784301,0.03243834757693784,-2.455463688766569,0.7469115232319551,0.4399705240271329
1760598455.1954327,-3.6275350298464715,-0.05499312860665212,0.9831709612131673,0.03376419695387564,-2.5208740372357434,1.069351751063964,0.4547148837655113
1760598455.2053218,-3.6073259996941096,-0.056525030234135125,0.9831238617305041,0.035074245195245414,-2.5887783262558064,1.3265649948920044,0.4845158647163779
1760598455.2152336,-3.591090001065815,-0.05769825278484051,0.982999770453647,0.036265753895704814,-2.6581024852237074,1.5356231537646148,0.5241227393621357
1760598455.2252386,-3.5778419138398965,-0.05859912259232125,0.9828245243081288,0.037232627457032645,-2.7279056749150405,1.7172958043728508,0.5684796041993729
1760598455.2353363,-3.5669575600061005,-0.05934629756609226,0.9826270320056115,0.03787999577981553,-2.7973893584002516,1.8936571870270664,0.6132062374346426
1760598455.2452803,-3.558171338331656,-0.06006564545442857,0.9824371127095451,0.038137244407787194,-2.8658721477874938,2.08546676600424,0.6550121802598811
1760598455.2553394,-3.5515208933637754,-0.06086996148257143,0.9822843982147222,0.03796730098850295,-2.9327377817745,2.3096108137130003,0.6919739641928317
1760598455.2652318,-3.547266127681813,-0.06184720981894641,0.9821965783872871,0.03737121233697549,-2.9973723790084112,2.5768906726883136,0.7236119912456568
1760598455.275216,-3.5458117525727997,-0.06305837677113259,0.9821959601538548,0.036388249397336175,-3.059111755084898,2.890395751939248,0.7507268307003528
1760598455.285296,-3.547656477608079,-0.06454339623397867,0.9822947461138247,0.035092655614968875,-3.1172204682739655,3.2446284745927714,0.7749980455221523
1760598455.2952638,-3.553379365400786,-0.06633140405778,0.9824904364454164,0.03358862189882659,-3.170923458442712,3.6254726132790736,0.7984070464582376
1760598455.3052413,-3.5636587802745074,-0.06845062215660587,0.982762857423171,0.03200490160284674,-3.21950691465959,4.011013107130531,0.8225989131934971
1760598455.3152459,-3.579306182893922,-0.07093364734257958,0.983073785742024,0.030489431069783753,-3.2624938564160413,4.373120357392814,0.8483245643094747
1760598455.3252769,-3.601288236542032,-0.073815164903535,0.9833694008633733,0.029202796226181695,-3.2998833571083455,4.679625550114765,0.87509750585446
1760598455.3352194,-3.6307069579841356,-0.07712054618357875,0.9835851822367747,0.02830850378196426,-3.332426648948319,4.896869364020389,0.9011675547886826
1760598455.3452365,-3.668709943552331,-0.08084562622349399,0.9836526542237103,0.027958584998432897,-3.36190291471261,4.992415587850146,0.9238687509542793
1760598455.3552418,-3.7163132501574316,-0.0849307269032037,0.9835076840279278,0.028274751277157922,-3.3913519170526683,4.9377600432613225,0.9403456935774626
1760598455.3652542,-3.774139554326933,-0.08923536901987252,0.9831004812786506,0.029327153096611935,-3.425217822009177,4.710897379211522,0.9486045303939838
1760598455.3752146,-3.842100836004276,-0.09352254958242044,0.9824073211444017,0.031114122482152128,-3.46935915721027,4.298610802414978,0.9487779120632102
1760598455.385238,-3.9190807610598926,-0.09746128801749934,0.981442989894906,0.03354705964367857,-3.5308869204559077,3.698321784256599,0.9444472535844678
1760598455.395234,-4.002688706217142,-0.10065289069215289,0.9802714646736492,0.03644491195839244,-3.617810119502841,2.9192937882163066,0.9438394520795547
1760598455.4052503,-4.089158890004415,-0.10268091193452436,0.9790111924808238,0.03954224720944836,-3.73849794661181,1.9829500806942972,0.9607131274785171
1760598455.4152613,-4.173452108494303,-0.10317854849219257,0.9778312540040389,0.04251349597275368,-3.9010097637610324,0.9220708498068081,1.0147723377524456
1760598455.4256,-4.249584944741789,-0.10190136586137273,0.9769361855144824,0.04501373333929637,-4.1123924066320106,-0.2212869241892204,1.1314947655306493
1760598455.435256,-4.31116484511094,-0.09878857840830794,0.9765402170590101,0.04673382903633086,-4.378087587333428,-1.399127251546293,1.341338522191299
1760598455.4452558,-4.352055521316494,-0.09399385453814443,0.9768350469657633,0.04746502772304414,-4.7016146917690635,-2.5618223172238994,1.6783904420815017
1760598455.4552498,-4.367048640137964,-0.08786911065745771,0.9779572143198662,0.04716490836254583,-5.084679936005768,-3.662795350995239,2.178613560183274
1760598455.465238,-4.3523928902947135,-0.08089398923048102,0.9799607328095601,0.046013525987973515,-5.527801119630258,-4.662748068873436,2.8779056865444117
1760598455.475327,-4.306046819866778,-0.07355931430816451,0.9827989525215316,0.04444617446221964,-6.031427421883395,-5.532545301616928,3.8101684633245494
1760598455.4852226,-4.227583126188411,-0.06623090828284137,0.9863183895684065,0.04314852934667491,-6.597386839329937,-6.254062963988436,5.005502521078052
1760598455.4952323,-4.117766127897654,-0.05903316737885037,0.9902667455078835,0.043002301101890815,-7.230337951321802,-6.818746312884124,6.488511883476666
1760598455.505242,-3.9779179227882633,-0.05179133934249521,0.9943162693535165,0.04497709171468778,-7.938788924139392,-7.2242187550961665,8.276584073139418
1760598455.5152676,-3.8092448569242876,-0.04405522022388949,0.9981015721646558,0.04997741217152121,-8.735237029638453,-7.4698329188348245,10.378001883932141
1760598455.5252264,-3.612296183686691,-0.03520245000739515,1.001269248655562,0.058667783777394455,-9.63511181674201,-7.552350629656067,12.789875839214533
1760598455.5352564,-3.386680421851738,-0.02459793740123688,1.0035361054512617,0.07130563841036014,-10.654451969246484,-7.462891116400092,15.496092986799281
1760598455.545281,-3.1310950257706316,-0.011773179618729486,1.00475231940474,0.08761136183897661,-11.806536116059288,-7.186007299615759,18.46564544924274
1760598455.555272,-2.8436514666530304,0.0034151855232541764,1.0049631020145615,0.10670562015781002,-13.0979366301175,-6.701423635993703,21.651775589850196
1760598455.5654204,-2.5224131510739842,0.020686004258417625,1.0044562143247986,0.12714484311018814,-14.524627151231513,-5.9886493914762555,24.9923601865761
1760598455.5752637,-2.1660180018962496,0.03932183614658501,1.0037757723690575,0.1470714918639934,-16.068854533014925,-5.0342428148437754,28.411868518043182
1760598455.5852273,-1.7742411185029536,0.058254572175350815,1.0036824073252513,0.16446281870616963,-17.69747708176255,-3.8408451330508906,31.825068183091563
1760598455.595235,-1.3483702888910991,0.07623504553906123,1.005051618504113,0.1774300986516596,-19.36230903563688,-2.436369814308234,35.142406840829075
1760598455.6052315,-0.8913129509869289,0.0920529207319283,1.0087227308405484,0.18450973474423185,-21.002655983537576,-0.8812450039154974,38.276666076471024
1760598455.6153157,-0.4074151802752126,0.10476074405960314,1.0153292318723244,0.18489658804033024,-22.549758468560576,0.7283838748873445,41.15010961610611
1760598455.6252868,0.09796406713947915,0.11385463307567942,1.0251479665530787,0.178585078889778,-23.93245186889112,2.263059159694875,43.701045862886524
1760598455.6352358,0.6190332463103793,0.11937596164348505,1.0379981145110202,0.16639912454431463,-25.083161226236008,3.568718645277326,45.88863881983552
1760598455.6452663,1.150192882309064,0.12191996627138663,1.0532059049286866,0.1499087116808408,-25.94345938749606,4.481393720883823,47.69502204842853
1760598455.6552322,1.6866016740363161,0.12255822813664353,1.0696348111491059,0.13124736567268835,-26.4687718332418,4.8465888629425535,49.12428112942146
1760598455.665242,2.224606097032085,0.12269438062247257,1.0857706197362351,0.11285757890843119,-26.632225717559816,4.541116651600972,50.19855282252783
1760598455.675238,2.7619865281352443,0.12387601228319475,1.099850423795443,0.09719792016038599,-26.42788094647344,3.494398591622694,50.95214275969956
1760598455.6852427,3.2980018950495813,0.1275854784093258,1.1100305566379642,0.0864457733530112,-25.873475950050764,1.705766991903353,51.42495683506084
1760598455.6952589,3.833239294842145,0.13503297465099187,1.1145898591368517,0.08222821241431856,-25.012366521334986,-0.7456966702138745,51.65653064046866
1760598455.705356,4.369295791302209,0.14697785674792307,1.1121542064411576,0.08541550022034239,-23.913799857411757,-3.701586966433979,51.681575192308216
1760598455.715263,4.908337481516263,0.16360533648219946,1.101911191233357,0.09601296551536066,-22.67048001521237,-6.9362267573265735,51.527446461132705
1760598455.7252285,5.452594819874753,0.18448081692973756,1.083772356334147,0.11317685646259032,-21.392758336029033,-10.17963727580802,51.213499610934164
1760598455.7352326,6.0038609080230545,0.20859244412199104,1.0584419068070083,0.13535413631638837,-20.199506432172218,-13.148491046418759,50.75198036344006
1760598455.7452881,6.563058900874964,0.23447682175872328,1.027366132674961,0.16051475886046992,-19.206424139074503,-15.580383735844796,50.14989962744186
1760598455.7552252,7.1299344102575,0.2604068832697043,0.992563796423906,0.18642417998647576,-18.5130184519702,-17.26600033913691,49.41120494652722
1760598455.7652967,7.702909292295068,0.2846090683761728,0.9563668317249528,0.2109038213218948,-18.189788412733815,-18.074094627674366,48.53854592346195
1760598455.775235,8.279108132928181,0.30547393659073463,0.921121275144674,0.232045168950391,-18.267302476651928,-17.965518341579088,47.53410092618549
1760598455.7852368,8.854544033970804,0.3217307141917915,0.8889026000022567,0.24836626463122782,-18.728804219028188,-16.994497345107973,46.399298219401985
1760598455.795268,9.42443194339467,0.3325678012253052,0.8612894924781078,0.258913661135192,-19.50764604817473,-15.297489975237895,45.133727796257226
1760598455.805335,9.983589816057389,0.3376938338078167,0.8392239141800993,0.26331454248409525,-20.490235725759433,-13.0718366591079,43.733925941140875
1760598455.8152843,10.526890119530353,0.3373446219456389,0.8229697521009428,0.26177955942404296,-21.524441644573315,-10.547724537038267,42.19285764583702
1760598455.8252773,11.04973077813759,0.3322469437315972,0.8121683498838543,0.2550548568388456,-22.432763708528636,-7.957610989285329,40.500753397361365
1760598455.835263,11.548496772595865,0.3235491533711475,0.8059748122050424,0.2443240671196305,-23.029146433913123,-5.507206074816026,38.647532782959
1760598455.845246,12.020975444699289,0.312722966417735,0.803245652466662,0.23106610429407617,-23.138010580397466,-3.351567773905115,36.62651064942502
1760598455.8552608,12.466672460284467,0.3014356483439435,0.8027410908554735,0.21688077154296342,-22.613794696792493,-1.5789893096733916,34.438600987510654
1760598455.8653133,12.886962754894025,0.29139286668816017,0.8033064085380127,0.2033014545110334,-21.35901878067644,-0.2042894987441897,32.09594737858018
1760598455.8753364,13.2850158841541,0.2841617913555555,0.8040043799082293,0.1916213600813541,-19.338657640352622,0.8280068111809659,29.623884734780304
1760598455.885273,13.665464395079965,0.28099648522392706,0.8041831652220038,0.18276183195824794,-16.588519549294997,1.6311922024304388,27.0603847479503
1760598455.895274,14.033829838852121,0.2826942075298223,0.803479638854161,0.1772038607428879,-13.215560069676176,2.3562597207527287,24.452640233628692
1760598455.9052436,14.395768256035463,0.289507184413206,0.8017730411891494,0.17498951597474768,-9.38887981978321,3.166881262073285,21.85112979303393
1760598455.9152787,14.756231704394457,0.3011224748714277,0.7991135823912712,0.17578535907788045,-5.321619069018994,4.213143097608305,19.302189686212046
1760598455.9252532,15.118658972406076,0.3167095866695658,0.7956529578599212,0.1789893473976361,-1.2457774898000014,5.608089817803541,16.840548846227872
1760598455.9352667,15.484308778775846,0.3350268156880532,0.7915979357449051,0.18385768157421417,2.6163569305685876,7.4106915102798565,14.483290017533074
1760598455.9453313,15.851835711836356,0.3545729197949545,0.7871951532487557,0.18962895439189004,6.079494409350829,9.617646704745386,12.22633165724476
1760598455.9552608,16.21718096594734,0.3737660747206955,0.782739850853792,0.1956289254009281,9.01670753397834,12.164794682716945,10.043976110493428
1760598455.965263,16.573802015641338,0.39112432690616467,0.778590672846482,0.20134709050246266,11.371385450724661,14.937193917326429,7.891518929181899
1760598455.9752777,16.913203137054925,0.4054157897510486,0.7751710308426881,0.20648264056501586,13.158224596359167,17.78545018643859,5.710451295567839
1760598455.9852602,17.22567289028014,0.41575088211409644,0.7729441672514756,0.21096159653493987,14.45379753709045,20.544974771983618,3.4354485556765426
1760598455.9952505,17.501107293161265,0.42160433880575604,0.7723607345274849,0.21492924296891996,15.37892175812225,23.054724578886145,1.0021517002225258
1760598456.005288,17.72980383352145,0.422773708962839,0.7737897885115971,0.2187217599979724,16.076043592450898,25.17251256302889,-1.645267023111477
1760598456.0153332,17.903140033616,0.4192947967453001,0.7774513296635944,0.22281813381608287,16.685202667007868,26.784845649316182,-4.547626988023855
1760598456.0252614,18.014084988989886,0.41133986576360454,0.7833682991073344,0.22777115050146818,17.322043747803754,27.810203994540032,-7.72598652381723
1760598456.0352552,18.05752268144903,0.3991233921698214,0.7913500741270808,0.23411914331599037,18.06093236003195,28.195696007786914,-11.178969760453832
1760598456.045265,18.03038960178563,0.38283663220553416,0.8010120747554312,0.2422887911545887,18.925493065247345,27.908138038926026,-14.882245775608608
1760598456.0552356,17.93164933432738,0.36262891736256747,0.8118302580621212,0.25250687662704463,19.887772091930305,26.921702536216095,-18.789980443149354
1760598456.065247,17.762144893392115,0.3386488656311764,0.8232252739144371,0.26473780743059333,20.87585318153188,25.205100897260717,-22.837890732089726
1760598456.0752478,17.524381527126778,0.3111481504528435,0.8346668539388334,0.2786558469878696,21.788469651247606,22.711591325621008,-26.94742653684629
1760598456.085237,17.22229199508542,0.28063302248434857,0.8457838348828044,0.2936537683829731,22.5142759221119,19.37485464926413,-31.030579706594256
1760598456.0953147,16.861022032965035,0.24803041991992267,0.8564610854849908,0.3088824948919248,22.9530225393108,15.113010345748213,-34.99485106001834
1760598456.105328,16.446752660638033,0.21482487158206232,0.8669037502846191,0.3233055554105868,23.035788559341057,9.84182646609147,-38.747982266554395
1760598456.1152592,15.986557677773948,0.18312368849433883,0.8776516811605769,0.3357464628417026,22.741600397703333,3.4966108585644835,-42.20216576889555
1760598456.1252592,15.48828445456216,0.1556185116033535,0.8895316115291356,0.34491914523466244,22.108232713956387,-3.9394340406428063,-45.27755505173125
1760598456.135393,14.960442156144444,0.13542485970363516,0.9035421848467133,0.349455351436944,21.235651592486143,-12.40412629526774,-47.90500206707422
1760598456.1452467,14.412078085579079,0.1257939541341777,0.9206789909990738,0.34795719718492296,20.281205840433,-21.72725769088419,-50.02807911513486
1760598456.155246,13.852616765912485,0.1297048116334896,0.9417216203234177,0.3390968281307045,19.446238366667423,-31.60880108318346,-51.60462222044735
1760598456.1652765,13.291630703471478,0.14936414188811953,0.9670171264325859,0.32176670408475216,18.954483711179137,-41.60946726281287,-52.608213270982446
1760598456.175268,12.73851280035541,0.18566754520391696,0.996299974312419,0.29526605102857134,19.02366630884794,-51.158002402346774,-53.030084029511144
1760598456.1852887,12.20203243111358,0.23770183456445917,1.0285870510741364,0.25949679899810707,19.83310500696699,-59.57822640976314,-52.88176861898401
1760598456.1952648,11.689780126562129,0.30238613057224784,1.062178626338475,0.21513433130230344,21.491591757387052,-66.13664427672009,-52.198414063880115
1760598456.2052972,11.207536260796156,0.37435197713460394,1.094781615032564,0.16373323929800518,24.010918570356807,-70.10861395751645,-51.04205217938953
1760598456.2152743,10.758632387614488,0.44614739783009266,1.123748716104523,0.10772879239644631,27.290692035392187,-70.85785760644806,-49.50353583269238
1760598456.2252738,10.343404130853655,0.5088169356725736,1.1463989201803926,0.05030554293589545,31.119073818016233,-67.92097731341711,-47.70150536961582
1760598456.2352593,9.958854487250955,0.5528607039038432,1.1603621162556954,-0.0048740632895035805,35.19164077018,-61.086034246952174,-45.776880022017394
1760598456.2452571,9.598647055387291,0.5695096327605872,1.1638863666117418,-0.05406161837028654,39.14698234551223,-50.452801019860246,-43.88204993217917
1760598456.2552648,9.253520291501035,0.5521688482388606,1.1560643144326526,-0.09389107191129281,42.61383756858397,-36.46280172312307,-42.16514963148136
1760598456.2652776,8.912149970767471,0.49778408867619345,1.1369615339961525,-0.12185927212911439,45.26168239401829,-19.890293993117915,-40.75136861682375
1760598456.2752566,8.562392184719764,0.40781214267958066,1.1076454268479057,-0.13673913863255016,46.845640084404806,-1.7907508806234842,-39.7248371679806
1760598456.2852612,8.192734769403852,0.28848256456188853,1.070114561117087,-0.1388378092301571,47.23779625468239,16.58993692101562,-39.11560553062078
1760598456.2952785,7.793705571031637,0.15016424142076515,1.027128214994725,-0.13002080283468395,46.440157674937964,33.935945701863766,-38.8959374568142
1760598456.3052747,7.358966043984249,0.005877405191937488,0.9819455592009828,-0.11346136227921297,44.578523090105286,48.99719735382078,-38.98822189206444
1760598456.315311,6.885877231810681,-0.13075952281261768,0.9380004387209586,-0.09314139731855459,41.88001860533376,60.722778564433426,-39.28359540802283
1760598456.3252957,6.375453395449743,-0.24768482578570833,0.8985517323995801,-0.07319993325049118,38.639136331509235,68.37380697646311,-39.666914051735034
1760598456.335253,5.831777566857986,-0.33615438394477926,0.8663562083923546,-0.05726216353476373,35.17790589403185,71.59915586914192,-40.04144061766741
1760598456.3452783,5.2610873103395095,-0.39173406540335504,0.8434095267868387,-0.04788023375737768,31.80585380618733,70.46218152924533,-40.34656532836928
1760598456.3552678,4.670800102157725,-0.41437886826217724,0.8307894921233144,-0.046193469133653235,28.784945585069313,65.4141556360391,-40.56407030471179
1760598456.3652642,4.068717418303702,-0.4077083186408535,0.8286154615092075,-0.0518773000056602,26.303705685871375,57.21921203222522,-40.71194899043251
1760598456.375268,3.462541611763243,-0.37777728070810557,0.836117186141776,-0.06338758147524132,24.463140716519913,46.84425543721104,-40.82836280704333
1760598456.3852727,2.8597034245802315,-0.33171083016900654,0.851792018735897,-0.07842869389853958,23.27518109925976,35.333317550869545,-40.950934845878066
1760598456.3952513,2.2673830431147954,-0.2765203867471435,0.8736208868226071,-0.09451320747033186,22.672490687216,23.687612845404825,-41.09759207671237
1760598456.4052494,1.6925542261650728,-0.2182903494324402,0.8993084685733822,-0.10946652752391386,22.527014747789792,12.769432581730102,-41.25435475822864
1760598456.41527,1.141900410816064,-0.16178039364510216,0.9265133155811672,-0.12176451878672072,22.67376050688912,3.2409368991360856,-41.373149969434486
1760598456.4252887,0.6215240196391368,-0.11037671183112446,0.9530422262338304,-0.13065747517014614,22.936096819150514,-4.459919189014211,-41.37969559182647
1760598456.4352703,0.13645951497857273,-0.06626835838751183,0.976998008749738,-0.13610292385403538,23.14921691152906,-10.11203271265239,-41.18875407684917
1760598456.4452653,-0.3099245850987145,-0.03071979015562267,0.996882933703194,-0.13857743051864096,23.17912572344072,-13.683013777121063,-40.7224048064069
1760598456.455247,-0.7165054804766466,-0.004339181422129641,1.0116643702063113,-0.13885044497056764,22.935409687229416,-15.29181849382843,-39.92677868297793
1760598456.4652767,-1.0848274734063248,0.01271706477649998,1.0208050254294856,-0.1377849137653607,22.37700591218215,-15.171084473716126,-38.78373735774558
1760598456.475251,-1.4192436027167081,0.020624705139139877,1.0242553257210043,-0.1361964401708624,21.511116994541904,-13.633690435514074,-37.31568985790501
1760598456.485249,-1.7266995030985208,0.019849130323291702,1.0224056726195714,-0.13477328919197948,20.386225266148962,-11.043980769455212,-35.583497238425224
1760598456.4952471,-2.0161426361960353,0.011154327563928711,1.0160014847327863,-0.13404303609678603,19.08077251519192,-7.791747804733518,-33.67877090701178
1760598456.5052445,-2.2976113699583043,-0.004371694503073311,1.0060310653510247,-0.13436763252416833,17.689443121970303,-4.266753277367256,-31.71260774862207
1760598456.5152462,-2.581129407773579,-0.02531336277237172,0.9936025405086377,-0.13595191335506734,16.30909969719611,-0.8327783178968312,-29.802931049593656
1760598456.5252533,-2.8755843727997106,-0.049978119967130724,0.9798285373423326,-0.13885603673902722,15.026274092627757,2.1979508791963096,-28.06229544895864
1760598456.5352762,-3.1877839324730357,-0.076514027823641,0.9657337994805297,-0.14300676296507278,13.907740502460893,4.587451092410569,-26.587505277787937
1760598456.5452726,-3.5218483743440303,-0.10308020007334,0.9521927605027496,-0.14820485526275873,12.995136916960144,6.188402761144665,-25.45187965296763
1760598456.5552492,-3.879024680796273,-0.12803381587589097,0.9398958966026714,-0.15412726273639438,12.303921690900783,6.951125013184343,-24.700569286578432
1760598456.5652757,-4.257917051788182,-0.15008935821070624,0.9293395565264132,-0.16032461711009963,11.826252168856083,6.919162235590239,-24.348996045900474
1760598456.5753076,-4.655047632828058,-0.16841260014178794,0.9208337026864127,-0.16621760557944007,11.53678488555679,6.213466689155433,-24.38420674528028
1760598456.585243,-5.065608320956928,-0.18262967292169072,0.9145224340403567,-0.17109930794786513,11.400048595352532,5.00724162754446,-24.768678038021665
1760598456.5952659,-5.484247893083278,-0.1927530530814808,0.9104116266756589,-0.174152776475637,11.377991856059293,3.495202850881072,-25.44589529556926
1760598456.605283,-5.905755049415166,-0.19904478739589643,0.9083977940888701,-0.17449260850536377,11.436523057380192,1.8619557147083272,-26.34690338446368
1760598456.61526,-6.3255392059141515,-0.20185014165361037,0.9082937653295301,-0.17123632532051258,11.550247420130997,0.25422612671059514,-27.39703487883523
1760598456.6252549,-6.7398668669580175,-0.20144125032326207,0.9098493741201303,-0.1636065500627254,11.705048199499615,-1.2391009516855813,-28.522163200232086
1760598456.6352885,-7.145869457866812,-0.19790894782769577,0.9127674251689285,-0.15105777261472778,11.898546582785723,-2.596536026271333,-29.65404646347171
1760598456.645261,-7.541386772984501,-0.19113225626366287,0.9167158033900742,-0.1334125794297702,12.138725755049892,-3.8621227182439273,-30.734532593847124
1760598456.6552851,-7.924741209052334,-0.18084120658940045,0.9213360255650053,-0.1109853013357559,12.441118723053204,-5.132734435084731,-31.71853004343708
1760598456.6652687,-8.294546894353186,-0.1667705960098732,0.9262482193807692,-0.08466919672042454,12.82501792607715,-6.5365823929500495,-32.575717113795996
1760598456.675248,-8.6496405092903,-0.14887948817886743,0.93105340188661,-0.05596435751023923,13.309226589783153,-8.206243480368082,-33.290994090044144
1760598456.6853085,-8.989176716617576,-0.12758681862012317,0.9353355510038037,-0.026923918087664197,13.907878219265157,-10.250346108718286,-33.863679601287075
1760598456.695258,-9.312870817761908,-0.1039573414532937,0.9386681335424378,2.062079773088525e-07,14.626710877744198,-12.728266462237942,-34.3054250465621
1760598456.7052772,-9.621315377582455,-0.0797754570709624,0.9406329951370316,0.022214292212610544,15.45996469033127,-15.631765586675987,-34.63682886083029
1760598456.7152808,-9.916266417129703,-0.05746850518679532,0.940862789671869,0.03731321292727329,16.38800112677227,-18.876568992016384,-34.88284344137965
1760598456.7252803,-10.200795920684737,-0.03987580091380071,0.9391175720006396,0.04342194334329029,17.3759513408253,-22.305598505007683,-35.067270244872205
1760598456.7352843,-10.479234730065144,-0.029892887559186922,0.935396225837909,0.03947247379807444,18.374003810186352,-25.703995726529307,-35.20683751618181
1760598456.7452466,-10.756871288296141,-0.03004601385938164,0.9300624193210782,0.02535589648726103,19.31995813535339,-28.82432887142941,-35.305465403818594
1760598456.7552507,-11.039416610775293,-0.042069714310913185,0.9239428382141348,0.0019211783843975532,20.14419596328845,-31.418684242386455,-35.349349131536734
1760598456.7652936,-11.332288061287526,-0.06657002686117978,0.9183497531940492,-0.029176312703061168,20.776404466170362,-33.27304247260176,-35.30347301330729
1760598456.775293,-11.63979919825527,-0.10285027430275104,0.9149974275714072,-0.06574548856272625,21.152572402196746,-34.238722467377116,-35.11009002773531
1760598456.785307,-11.964363705889953,-0.14894649498802884,0.9158111522275638,-0.10539348821053132,21.220307097844355,-34.25594364628186,-34.68953391785266
1760598456.7952676,-12.305822189276356,-0.20186582954155974,0.9226517101585698,-0.14584930304072,20.940695985433912,-33.36575241738521,-33.94351378479706
1760598456.805261,-12.66098082362615,-0.25796153348872275,0.9369910081368898,-0.18519918527871762,20.28586782097564,-31.708434181932518,-32.7608232833043
1760598456.8152912,-13.023418646533347,-0.31334675749741503,0.9595833614937244,-0.22197581875756586,19.232807656713337,-29.508603870180476,-31.02515282938704
1760598456.8252637,-13.383589428667326,-0.36426993380367956,0.9901862856323603,-0.25509284438928853,17.755267479933067,-27.049016277799385,-28.624399344498837
1760598456.8353143,-13.729223177152386,-0.4074292541431465,1.027388560462979,-0.28367476791999185,15.816299966156167,-24.636604734458714,-25.460592217495517
1760598456.845431,-14.04601586314913,-0.44024317680266883,1.0685947226586527,-0.30686595841298075,13.36385300962294,-22.5653106738683,-21.45938129187739
1760598456.855288,-14.31856972815613,-0.4610890093786243,1.1101962297084178,-0.3236994506494522,10.33109474179668,-21.08077534495874,-16.577961555240684
1760598456.8652651,-14.531504238995888,-0.4694870909239527,1.1479364113839794,-0.3330768396227071,6.641954106666905,-20.3517383732765,-10.810345464939253
1760598456.8752925,-14.670610593052096,-0.4661791158714173,1.1774500332546547,-0.3338685687022044,2.2211103740058578,-20.45198083893214,-4.189167239872246
1760598456.8852692,-14.723892854076572,-0.45304987694872256,1.194926676014394,-0.32510432357243435,-2.993328536278214,-21.355017557665505,3.216172786529114
1760598456.895259,-14.682345363155903,-0.4328723284056711,1.1978114518493321,-0.3062003653689933,-9.036742103316202,-22.94178446784066,11.304363880333762
1760598456.9052596,-14.540363082993476,-0.4088988773810312,1.1854244174801416,-0.2771677293603137,-15.906771612165448,-25.019671252752563,19.948651169383567
1760598456.9152894,-14.295754668646728,-0.384358965264788,1.1593646823367558,-0.23875505867484217,-23.5557428943223,-27.349765849308934,29.003308700529864
1760598456.9252722,-13.949402628324593,-0.3619463882723295,1.1235807194386096,-0.19249550579445537,-31.887787266789303,-29.67828598442647,38.309006936468464
1760598456.9352672,-13.504670195030194,-0.34338846960119634,1.0840394563149445,-0.14064534428864114,-40.76085516044643,-31.76790706776503,47.69692673648262
1760598456.9452686,-12.966682362212392,-0.32918154190176546,1.0480015595685233,-0.08601882289008451,-49.992944266419414,-33.425039055177365,56.99233002482649
1760598456.9552648,-12.341611676138701,-0.3185517454172192,1.0229867841434932,-0.03173482335076799,-59.371159772515426,-34.519987232348264,66.01855842596802
1760598456.9653013,-11.636084360424237,-0.3096611172140726,1.0155742918911448,0.019102610109432722,-68.66197766889275,-34.998172364606376,74.60206079849952
1760598456.9752913,-10.856793708817415,-0.3000340807754352,1.03022297190667,0.06375777831474352,-77.62143628755771,-34.881921994729204,82.57840297356022
1760598456.9852965,-10.010366566334135,-0.2871332558719996,1.0683122342671205,0.10020171554180836,-86.004709994421,-34.2635354078187,89.79868299402605
1760598456.9952917,-9.103476371346638,-0.2689712373554244,1.127587679158837,0.12737086839503198,-93.57514352156026,-33.29122650127554,96.13555071210463
1760598457.0052643,-8.143139386024483,-0.24462061182323985,1.2021489796396825,0.14528292654895925,-100.11295817325932,-32.150127270747,101.48807658960375
1760598457.0152876,-7.137083210385645,-0.21449335669239403,1.2830453939706552,0.1549767683367146,-105.42349306002997,-31.040803996642207,105.78491777370063
1760598457.025271,-6.094053905506555,-0.18030661620166089,1.359446166928302,0.1582961248408066,-109.34449777083917,-30.15767229982706,108.9855684409475
1760598457.0352755,-5.02393839551004,-0.14472624357858968,1.4202317673052074,0.15757983102226292,-111.75218270857485,-29.66924225376449,111.07998174704954
1760598457.0452724,-3.9376190039222663,-0.11076356637811573,1.455736728746658,0.15532696277239688,-112.56638012343016,-29.70135630602685,112.08735257298531
1760598457.0552588,-2.8465350110443666,-0.08106618142304246,1.459308633301303,0.1538840126013716,-111.75557411514245,-30.323797957090374,112.05501730382018
1760598457.0652542,-1.7619882567799559,-0.05726886111253889,1.4283589235609075,0.1551825547403751,-109.34221162998335,-31.54021803837274,111.05807543738098
1760598457.075273,-0.6942859434861796,-0.039557173971285324,1.3646801769837928,0.16054467603983277,-105.4077724616277,-33.28147111922446,109.19960747144266
1760598457.0853267,0.3481428633804789,-0.02655502018367126,1.2739803361363222,0.1705625622681594,-100.09601718834071,-35.403146424137454,106.61055984406343
1760598457.095299,1.3594974049135882,-0.015580632501805193,1.164781655842135,0.1850534259284179,-93.61204097677178,-37.68896946825474,103.44779766496507
1760598457.105248,2.3370681155667326,-0.0032284692908699513,1.0469667508385256,0.20309585673344938,-86.21466922290527,-39.862210127760726,99.88874746824136
1760598457.1153002,3.2812974403075206,0.013851101582815356,0.930282805404903,0.2231585639599778,-78.20075379224247,-41.60664992305179,96.12159603765501
1760598457.1253195,4.195392352700528,0.038157049946729485,0.8230618488793594,0.2433257281030066,-69.88200681401264,-42.5968730292215,92.33109552836353
1760598457.1352708,5.084527637531307,0.07071743723939299,0.731326650364702,0.2616024177855513,-61.557367653956824,-42.53508897555103,88.68138217139361
1760598457.1452575,5.954763430286352,0.11079297119833854,0.6583594708454054,0.2762545543638975,-53.485451186145475,-41.18921455639885,85.29849135689572
1760598457.1552513,6.81186468194862,0.15597766049185993,0.6047294762386992,0.28611403627461074,-45.86171506699633,-38.42545759164575,82.25605035302183
1760598457.1652634,7.660235550798461,0.20267476556853567,0.5687096832486372,0.2907769375203331,-38.803797406463815,-34.228825142652674,79.56755000699525
1760598457.1753354,8.502156049064755,0.24683338618272047,0.546968001873419,0.2906471591363619,-32.346763494155184,-28.706988219481914,77.18741543654185
1760598457.1852553,9.337434448551484,0.28476611935550394,0.5353920593727199,0.28682003853076665,-26.44843940467898,-22.07633436570926,75.02102843479472
1760598457.1952665,10.163488896476817,0.31385370947501307,0.5299055023951676,0.280844082078582,-21.003853423385713,-14.632905471315185,72.94158718329444
1760598457.205264,10.975778440420894,0.3329840401352426,0.5271511373774252,0.2744304548002871,-15.866958002308793,-6.714134431697822,70.81007040699379
1760598457.215269,11.768444649400395,0.3426520374545774,0.5249475783614638,0.2691901894372038,-10.877047470067136,1.341069211923128,68.4941778307458
1760598457.2252655,12.535010006569527,0.34473314798409493,0.5224674004838422,0.26646493157834006,-5.8865017967088695,9.226619312483203,65.882971290658
1760598457.2352836,13.269001324020591,0.34201128300143846,0.5201354740628676,0.2672800207804342,-0.7858591044352292,16.692476748842367,62.89555962354922
1760598457.245337,13.964411020835138,0.3375814733759733,0.5193002956979008,0.2723964594796685,4.4777918949902915,23.553877469385494,59.483878690132435
1760598457.2538908,14.61596198013763,0.3342560290074245,0.5217718691891061,0.28239169767315525,9.89212069182314,29.686353719069228,55.63088854463831
1760598457.2652953,15.219191942620835,0.3340841866362351,0.5293302268184293,0.2976882761426153,15.381616148054977,35.00899110314544,51.346140523158454
1760598457.275248,15.770412472040642,0.3380581506128894,0.5432902243413658,0.3184866221722992,20.81897446486462,39.46073289357447,46.66075289836169
1760598457.2852497,16.26661897955916,0.34603585532105025,0.5641797835773766,0.34462040806483835,26.042309060337118,42.976062484251194,41.6235727745177
1760598457.295273,16.70542985981856,0.356873359676767,0.5915668816818269,0.37540107287466506,30.874065025563308,45.46641408740893,36.29976018277521
1760598457.3052645,17.085117252896115,0.36873187585187295,0.6240545985441655,0.40952911033362677,35.13871327769153,46.81206947974893,30.772147733647127
1760598457.3152816,17.404764668622764,0.3795052687628582,0.6594430858179221,0.4451222750948224,38.67822400859632,46.86674654039369,25.14457806273473
1760598457.3252687,17.66455264480907,0.38730094964929834,0.6950297576489955,0.47985872639857674,41.36545489128803,45.474426008903144,19.54531665633027
1760598457.3352711,17.866136452833082,0.3908987572439222,0.7279935020900733,0.5111839122064269,43.11561690814254,42.49560759349129,14.12795430738424
1760598457.345267,18.013043497212024,0.39010947041495786,0.7557960875539904,0.5365137189084832,43.89572676799826,37.83824531000763,9.067204500081905
1760598457.3555145,18.110987983856106,0.3859600083300997,0.7765382219656388,0.5533890689399961,43.731957009639835,31.487454809558166,4.547751993710752
1760598457.3654861,18.167983627322435,0.38065048235908555,0.7892256614570995,0.5595773106836744,42.71480519176996,23.52833215886577,0.7457112915469786
1760598457.3753037,18.19414001478507,0.3772641905844216,0.7939243107505629,0.5531509918086159,41.001689224776094,14.15816592235403,-2.195992688448055
1760598457.385258,18.201063846271886,0.3792653790875784,0.7918028484206997,0.5325923492967481,38.81595651548725,3.6875097332812707,-4.1952875122721345
1760598457.3953712,18.200855333377696,0.38987624015526995,0.7850711713038591,0.49696118469567085,36.44063144024342,-7.46720624600927,-5.257288702864575
1760598457.4052672,18.204777932480795,0.4114568448555212,0.7768250221524692,0.4461239530973623,34.204947121686125,-18.79518834122668,-5.494283771980838
1760598457.4153142,18.22175666313782,0.4450014021399179,0.7708078368092836,0.3809938896947977,32.46230737315018,-29.70347083048556,-5.1345575862015105
1760598457.4252837,18.256902349605905,0.48982086486686555,0.7711014601215515,0.3037039074660013,31.559978557652325,-39.52935173864992,-4.516324275527879
1760598457.435309,18.310263148041138,0.5434321983286565,0.7817542501010528,0.21763857243453877,31.803047511651705,-47.55618229319911,-4.064827280824131
1760598457.44529,18.37598232048866,0.6016381391264742,0.8063486485803337,0.12728240742148378,33.41708173470635,-53.038022719115055,-4.253092247349513
1760598457.4552593,18.442003374024267,0.6587636623053397,0.8475092140343569,0.037883480953059295,36.51474070662339,-55.23893098192679,-5.549697762468105
1760598457.4653366,18.490414123733807,0.708016188234184,0.906367499837275,-0.04503144375176983,41.07116870080524,-53.49049102013473,-8.359770409383692
1760598457.4752748,18.49846011648691,0.7419514478571263,0.982035491970747,-0.11622927150756625,46.91174477874075,-47.266982325417175,-12.967431659305479
1760598457.485266,18.44018847541786,0.7530465574826865,1.0711847162978123,-0.17135690405692816,53.714229064379175,-36.27226265482186,-19.488433809268447
1760598457.495271,18.288614032821013,0.7343942155151914,1.167865512012357,-0.20746277549755882,61.02588604247553,-20.52726275960025,-27.840469801871695
1760598457.505266,18.01823883339259,0.6805238345968571,1.2637130292421184,-0.22337719837977,68.2948712159034,-0.4433075831564448,-37.735947916426454
1760598457.5152757,17.607706127541412,0.5883158026478827,1.3486577057800835,-0.21989221838851822,74.91405293609652,23.13468497592305,-48.69868098088069
1760598457.525266,17.042330577931544,0.45790626645217897,1.4121733349820327,-0.19971681431189367,80.27456039868534,48.929316219051124,-60.10283226549619
1760598457.5352707,16.316223066159466,0.2934062026476184,1.444951727277132,-0.1672230514804267,83.8255953568616,75.28598997252809,-71.23007598476569
1760598457.5452642,15.433732855309579,0.10321576770903043,1.4407178185149365,-0.12802025035604428,85.13608366301256,100.28605689335737,-81.33923935819904
1760598457.5553236,14.409970601773882,-0.10026974240899106,1.397760149019295,-0.08839162775159855,83.95233638444057,121.91389276874943,-89.7414204066001
1760598457.565308,13.270253831875248,-0.30167949104007935,1.319725863784966,-0.05462173396197519,80.24422335812564,138.26487819763602,-95.87256263250985
1760598457.575312,12.0484291096429,-0.48437456555406205,1.2153584348382298,-0.032254332675285116,74.23111799155501,147.7711034258683,-99.35493653101422
1760598457.5852828,10.784166152642232,-0.6326162941840251,1.0971257038857436,-0.025349796836220212,66.37915481342303,149.41250056150125,-100.03949818000787
1760598457.5952816,9.519474341957261,-0.7338111024254853,0.9790221111080871,-0.03584753432979661,57.36420560151854,142.87664039081756,-98.02307376798068
1760598457.6053145,8.29483675970596,-0.7803840125883281,0.8741037757160548,-0.0631664586846222,48.00056842908886,128.63414069069188,-93.63744446887517
1760598457.615284,7.145458655752259,-0.7708852621182629,0.7923945153260488,-0.10417062822867282,39.142495801998955,107.90953904189529,-87.4108462493964
1760598457.625281,6.098151304278941,-0.7100928181319598,0.7396379061955827,-0.1535692669898059,31.572419804169876,82.54693349914153,-80.00565879702391
1760598457.635274,5.169293394826637,-0.6081058950923551,0.7170517267340999,-0.20472054129000042,25.894232459589123,54.7903817246288,-72.1393160851667
1760598457.6452782,4.364132506184309,-0.4786640856259589,0.7219286081138104,-0.25070310548835156,22.450914932800195,27.015306160657843,-64.49879510372189
1760598457.6552775,3.6774473210000966,-0.33708582242871116,0.7487471076701642,-0.28544665765804245,21.282413237898062,1.4549400312694036,-57.66150399107005
1760598457.665283,3.0953511706560715,-0.19824593661889753,0.7904387384163597,-0.30469322360157586,22.132157975191976,-20.036222788618606,-52.03541338946109
1760598457.6752834,2.5978433421559783,-0.0749194489422378,0.8395484636236695,-0.30659837565492537,24.50073648515535,-36.150545139625834,-47.8279457408928
1760598457.6852791,2.161644559683616,0.023331020957697183,0.8891554842550264,-0.2918694477944581,27.735669540871083,-46.211043364113,-45.0471244905143
1760598457.6952763,1.7628874512276538,0.09068628813351662,0.933528141086274,-0.2634533614086108,31.139501538260443,-50.17128560541807,-43.53171282595295
1760598457.7052908,1.379341881376477,0.125075062244481,0.9685397584484167,-0.2258892838944088,34.07594199113109,-48.54508140036817,-43.001665172894455
1760598457.7153032,0.9919990541054684,0.12775923308107232,0.9918733294432698,-0.1844949894372255,36.05588712776075,-42.28743106854623,-43.11753772071446
1760598457.7252865,0.5859826920973157,0.10264023454978846,1.003022028379328,-0.144553837299306,36.7908860830833,-32.64997315494128,-43.53776052987353
1760598457.7352746,0.15087369576931864,0.05544258467679019,1.003085024945464,-0.11063025823567359,36.20914894010594,-21.03120049951156,-43.9651574671352
1760598457.7452753,-0.3193935464254301,-0.007084946825210414,0.994379324226219,-0.08608746291327334,34.43651585759017,-8.836295208030144,-44.177738842610985
1760598457.7552645,-0.826889396170691,-0.07786120553315234,0.9799265491676389,-0.07282738353633893,31.750443200670333,2.644105490337262,-44.042540247641384
1760598457.7652824,-1.3701623501896087,-0.15003325434470674,0.9629041227922948,-0.0712323372293518,28.518287588299817,12.330970835668124,-43.51432257362574
1760598457.7753017,-1.9447503519252882,-0.21742720133575333,0.9461551702203108,-0.08026862883647336,25.13190341925666,19.426714287297298,-42.62283683224997
1760598457.7853131,-2.5437129346243785,-0.274917897248265,0.9318288505775454,-0.09771081540944741,21.94918327037868,23.455706765499375,-41.4530603720835
1760598457.7952895,-3.1582015215224195,-0.3187218345329944,0.9211849808418064,-0.12044918704723369,19.250292058197235,24.274147798081952,-40.12259272334639
1760598457.8053048,-3.7780870551655825,-0.3465875384628016,0.9145603403861352,-0.14484355767063406,17.21272146038139,22.049411928562563,-38.759644676907484
1760598457.8152986,-4.39264263832941,-0.35784611738806726,0.9114697416035922,-0.16708637827460493,15.905644093558067,17.211340786789417,-37.484108340701454
1760598457.8253143,-4.9912492319244155,-0.3532986996189617,0.9108041029346003,-0.18354484266032026,15.300953906659469,10.380967353968444,-36.39325751747973
1760598457.8352993,-5.564067700560942,-0.33494851060321007,0.911086021657982,-0.19106625656675544,15.296231363139269,2.2851529435923856,-35.552766217892184
1760598457.8452983,-6.102610956955252,-0.3056191887646918,0.9107461939958575,-0.18724629277562949,15.743871900127443,-6.332320039643062,-34.99298612862661
1760598457.8552825,-6.600162619054876,-0.26852544504540016,0.9083888005364562,-0.1706663749371362,16.480746221014314,-14.792232376998152,-34.709842468005824
1760598457.8653004,-7.05202153427136,-0.22686990143155966,0.9030192465359335,-0.1410999335969096,17.3537825700767,-22.544392480812643,-34.66933559186913
1760598457.8753097,-7.455591508165551,-0.18352991430183524,0.8942124872575755,-0.09967112464611774,18.2384107160797,-29.20830325356413,-34.81448478995684
1760598457.8852751,-7.8103650747862075,-0.14087533215797804,0.8822039893073539,-0.04893083362138447,19.04852593997112,-34.58696139182712,-35.073586034012244
1760598457.8952997,-8.11785724220407,-0.10072932272454599,0.8678884282112604,0.00720040600323626,19.738223141021777,-38.65472594667457,-35.36880441316521
1760598457.9052732,-8.381528014602766,-0.0644551303727356,0.8527153879359181,0.06367697294253928,20.296786828895623,-41.52390486286539,-35.62431384660785
1760598457.9153013,-8.606698403728892,-0.03312647713961655,0.8384801412948862,0.11479734500752119,20.739161175973084,-43.397535196207585,-35.7733811349492
1760598457.9253237,-8.800426787640179,-0.007723009479469486,0.8270247713480675,0.15489108220626338,21.094334784630547,-44.51727869182385,-35.76391985008618
1760598457.9352968,-8.971286591530902,0.010711607772809939,0.8198928109614153,0.179149036642635,21.39381059870215,-45.115168198613375,-35.56207275424439
1760598457.945277,-9.128987186990209,0.02100099670816492,0.8180174309647654,0.18443970023936437,21.66171212202485,-45.37623560750897,-35.15334971646613
1760598457.9552839,-9.283813670575354,0.0218852506785824,0.8215517057731905,0.1698880181053699,21.907339050753343,-45.41632176218399,-34.54088053058653
1760598457.9652982,-9.44591328876233,0.012185252071403899,0.8299305244991518,0.13701081866158252,22.12044093755018,-45.27632897346078,-33.74058429732729
1760598457.975274,-9.624495719833458,-0.008950501367503435,0.8421643486446715,0.08934938335418147,22.269238744052917,-44.931468352942005,-32.77354319282758
1760598457.9853227,-9.82702268323573,-0.04177132611645827,0.8572522557509196,0.03173927851414257,22.301046033463443,-44.31203922098811,-31.65649232727807
1760598457.9953103,-10.058451618070073,-0.08568803033077653,0.8745511492668043,-0.03053382221726676,22.144968991590375,-43.331071135490916,-30.391931324253722
1760598458.0052953,-10.320590904088604,-0.1391367094988119,0.8939773928462253,-0.09247640976972993,21.715741079458734,-41.913727735726646,-28.959758160966125
1760598458.015316,-10.611626539658971,-0.19958362976842534,0.9159979862140403,-0.14991132744855143,20.91767202952978,-40.02357064578048,-27.3123591567108
1760598458.025322,-10.925884123393631,-0.26368321229494524,0.9414373700269276,-0.19975255479219048,19.64816423405138,-37.68142000099345,-25.374639802968897
1760598458.0352914,-11.253886651740293,-0.32757640507884206,0.9711667599438233,-0.24004841344389538,17.801083844200114,-34.97353029958831,-23.049554349895377
1760598458.0453353,-11.582752933120437,-0.3873000905534309,1.0057594943727637,-0.2698372651068861,15.271015947032906,-32.04720810014636,-20.22848726064658
1760598458.0555391,-11.896950475267097,-0.43926428200331785,1.0451933389538057,-0.2888770450767858,11.959613957513332,-29.093951373538978,-16.80471803986084
1760598458.06528,-12.17937054232041,-0.4807359370758627,1.0886640357608819,-0.2973240387841133,7.784646886818833,-26.322550769083634,-12.687525593476586
1760598458.0753462,-12.412635971533751,-0.5102461269357744,1.1345502744597422,-0.2954435987326987,2.691140311998981,-23.926839911539354,-7.814447073957254
1760598458.0853212,-12.580493715453443,-0.5278221025784892,1.1805448577293538,-0.2834294543320172,-3.337243595804244,-22.05423115878173,-2.159754984893285
1760598458.095328,-12.669100280263523,-0.5349557884367327,1.2239406829009312,-0.26138514983570366,-10.269085361415467,-20.78132680633513,4.261851307347144
1760598458.1053147,-12.668001415737484,-0.5342685223748517,1.2620277350558016,-0.22947873058077556,-18.020550226428814,-20.101668595297845,11.39629443324281
1760598458.1153128,-12.570653378810201,-0.5289130479445178,1.2925196503843075,-0.1882247243504255,-26.45636312766268,-19.928417224256265,19.15495379612726
1760598458.1253114,-12.374424617401093,-0.5218392894542698,1.3139044751122975,-0.13879640493281226,-35.39631884464722,-20.11199130566563,27.42174553800742
1760598458.1353168,-12.080123756025579,-0.5151022721795131,1.325627181605062,-0.08325070644083467,-44.626137876276744,-20.469961247907097,36.0607139004168
1760598458.145341,-11.69118896409486,-0.5093869877692511,1.3280635737254696,-0.024563811781068038,-53.91078139118703,-20.82416321439795,44.92261280808332
1760598458.1553864,-11.212724958500312,-0.503871184592517,1.3223141360804211,0.033582366284804814,-63.00813982377373,-21.038359770310237,53.849563705066195
1760598458.1653147,-10.650581076092664,-0.496460063031746,1.3099029027241602,0.08726176619952307,-71.68124972684774,-21.04919491406596,62.67773031112758
1760598458.1753273,-10.010630478067352,-0.48432463448875573,1.292488427531953,0.13293967213330382,-79.70764632339257,-20.88413207473861,71.23873688022398
1760598458.1853082,-9.298348466720975,-0.46458860289026754,1.2716688274134749,0.16813713819089476,-86.88496311329229,-20.662628713371685,79.36100250269261
1760598458.1952856,-8.518716772895763,-0.4349791894865949,1.2488914962359263,0.19193487688228908,-93.03255207833689,-20.580250868477368,86.87221360991606
1760598458.2053008,-7.676419355660783,-0.3942992266519721,1.22539269428753,0.20514135793112537,-97.98997925129333,-20.878523652154886,93.60386622152316
1760598458.215386,-6.776249879142506,-0.3426540436948729,1.2020642323842265,0.2100476530688378,-101.61472159523282,-21.80530411781606,99.39822563393622
1760598458.2252984,-5.823616659877139,-0.2814307124591317,1.1792275842854,0.20984568938346967,-103.78251629713557,-23.57153234719178,104.11730711523087
1760598458.2353122,-4.825008078822475,-0.21306719597615958,1.156435281257885,0.20790617127593453,-104.3934400557211,-26.310818432468952,107.65285195582189
1760598458.2452996,-3.7882840341434703,-0.14067444894773753,1.132475913022891,0.2071229477063783,-103.38449175578369,-30.04833815906052,109.9359680546936
1760598458.2553403,-2.7226982769174795,-0.06758916616248366,1.1056654541823685,0.20945335777743204,-100.74628644854764,-34.68431202331705,110.94510509963946
1760598458.2654407,-1.638623484754381,0.0030625147550247317,1.074346368510579,0.2156990401481454,-96.53925515188679,-39.99469783574897,110.7112058624758
1760598458.2753623,-0.5470220963194524,0.06871755682173486,1.0374106059894797,0.2255227923034277,-90.90449966454696,-45.64839417631684,109.31908734997747
1760598458.285372,0.5412386592578049,0.127588541203572,0.9946596358533083,0.23766956905074885,-84.06577203097494,-51.23754411989503,106.9042840138222
1760598458.2953668,1.6160987908040896,0.17870776331053012,0.946889997861339,0.25033086585963316,-76.32084122743967,-56.31631168760935,103.6448306153619
1760598458.3053093,2.6689143939847018,0.22181375824924093,0.895703865403693,0.26156585629190604,-68.02211067423754,-60.443568833739455,99.74804759146792
1760598458.3153493,3.6928613192142943,0.25713329102216537,0.8431441723822156,0.2696870927646683,-59.547897445346514,-63.22533702564872,95.4334377196832
1760598458.3253167,4.683084141785687,0.2851403551553204,0.7912993799730892,0.27353997452931667,-51.26756202920687,-64.35290477988751,90.91398647097759
1760598458.3353376,5.636602934998516,0.3063725570165835,0.7419992055993517,0.27264412381397096,-43.50537144306741,-63.63248070895312,86.37888195669656
1760598458.345314,6.552042292831722,0.32135198764807754,0.6966558298047114,0.2672028186889728,-36.508821894666326,-61.00268362874132,81.98052198082945
1760598458.3552964,7.429273523286158,0.33060834413270546,0.6562394583554778,0.258009287704179,-30.42663242929632,-56.53747990958655,77.82766681215767
1760598458.3654747,8.269057003010095,0.3347617187293311,0.6213419143722578,0.2462854677564429,-25.29985302955251,-50.43421384340345,73.98504379192839
1760598458.3755412,9.072743097335731,0.33460879320647713,0.5922793943100337,0.2334877395455069,-21.067059767168633,-42.988715131092526,70.4780755287856
1760598458.3853302,9.842049361113066,0.33116838739222093,0.5692009456145527,0.2211108088132526,-17.582092192759895,-34.561569226513946,67.30022169698965
1760598458.395303,10.578893227390228,0.3256651944674078,0.5521860250147195,0.21051707899849864,-14.64071370479846,-25.540923212554283,64.42013802174722
1760598458.4053266,11.285234990472748,0.3194504673003517,0.5413230847743982,0.20281422221771672,-12.011256283228377,-16.307281788374056,61.78656953499023
1760598458.4153109,11.962882501102063,0.3138727337791215,0.536761210383542,0.19879460980125793,-9.464029137283797,-7.204704633418862,59.330296996559454
1760598458.4252932,12.613226889096687,0.31012241366396853,0.5387241086387089,0.1989342711357762,-6.795173824411497,1.4788256928162977,56.96398674783179
1760598458.435335,13.236911615346912,0.3090808030957253,0.5474757265663172,0.2034322449097734,-3.8424812532089634,9.520745561853133,54.58190718636894
1760598458.445285,13.833474742849765,0.31120401355707256,0.5632314951049097,0.2122645108924767,-0.49284748456080096,16.7632024140922,52.061823674769556
1760598458.4552875,14.40103495323356,0.3164654251669309,0.5860182667180904,0.22523357304767536,3.317068684400416,23.10361234014842,49.27091456218272
1760598458.465334,14.936106268481664,0.32436750321544694,0.6154982540049097,0.2420076591610857,7.604217669998607,28.47865474746042,46.076485151705086
1760598458.4753442,15.433620329425882,0.33401955154937746,0.6507860046609342,0.26215141932566244,12.343500873064048,32.84452688727662,42.36095031529203
1760598458.4853063,15.887209830464151,0.3442685605026581,0.6903004812225679,0.28514651327939666,17.47071656250984,36.15672811273934,38.03933700187668
1760598458.4952981,16.28976775589218,0.3538695528163256,0.7317032252862168,0.3103882394636288,22.88324143736573,38.352883443074255,33.076654897938546
1760598458.5053506,16.634250209266,0.3616847778363299,0.7719728818017979,0.33713746692752966,28.439452485780485,39.342086472998474,27.50202650981748
1760598458.515311,16.914639957101606,0.36689734449139827,0.807650237902543,0.36442385922225606,33.959575195250295,39.00380817820635,21.416488632549985
1760598458.5253043,17.12693923039498,0.369211881683904,0.8352541799803378,0.39093674569823034,39.231455597001975,37.198435079836706,14.991870469993586
1760598458.5352829,17.270026742820505,0.3690032296167175,0.8518226726695782,0.4149724202049596,44.02404421610412,33.78992493832967,8.459164579342115
1760598458.545303,17.34621136049114,0.3673749547503086,0.8554890347130687,0.43449521813961034,48.10907921029355,28.679023427047486,2.086357839755665
1760598458.5552833,17.361350067124953,0.3661012697549074,0.8459823837984167,0.4473182964620738,51.28851086068113,21.843257592624152,-3.8524098227820867
1760598458.5653477,17.324462499155395,0.3674413830252959,0.8249511913981151,0.45136111046082433,53.423031703798074,13.377979766238084,-9.112635433348938
1760598458.5753453,17.246853179800294,0.3738330979912257,0.7960397236328428,0.4449259600207516,54.45644513142156,3.5316267471659475,-13.515057931426409
1760598458.5853395,17.1408316433238,0.38749361193339726,0.7646812921826525,0.4269477408862415,54.4313323941441,-7.271597176723563,-16.975325353157494
1760598458.595324,17.01818627038596,0.4099733781691292,0.7376031826345876,0.39718532830525094,53.49294190667451,-18.427270338331304,-19.52242541921071
1760598458.6053872,16.888606488263942,0.4417155397911143,0.7220700938041704,0.35633136300660523,51.879885845145466,-29.168222972731563,-21.302140289016638
1760598458.6153631,16.758253839828658,0.4816724668718242,0.7249289304628044,0.30602506350899944,49.90182369272996,-38.60509565621354,-22.564127127980623
1760598458.6254194,16.62866079151209,0.5270336592354103,0.7515543945680544,0.2487624444979206,47.90585781954553,-45.788488937766985,-23.633842494705856
1760598458.6353326,16.496098113112428,0.5731274853575057,0.8048261104912663,0.18770682635878008,46.23493939640706,-49.78883955672189,-24.872929435205183
1760598458.6452904,16.35150393207349,0.6135602218544774,0.88428952649277,0.12640983052951973,45.18304722656224,-49.788323290177786,-26.63345474299706
1760598458.6554005,16.18101081808283,0.6406367466500305,0.9856604526118604,0.06846323596441593,44.952924371112296,-45.17763353798496,-29.212237806427673
1760598458.6653538,15.967043631903323,0.6460700765630427,1.1008205810316523,0.017116667843331643,45.6224525698342,-35.64910813266951,-32.81137395658203
1760598458.6753201,15.689899470983024,0.6219456617976046,1.218411249053498,-0.025088852189358725,47.125225257464734,-21.276238078273657,-37.51001083738492
1760598458.685401,15.329673317894512,0.5618679986000398,1.3250599018866447,-0.05661453921443426,49.24963638288732,-2.5683499605929865,-43.25065221885446
1760598458.6954584,14.868364012541049,0.46217445976201005,1.4071674297473078,-0.07709726757745732,51.65901231139068,19.511098492491573,-49.84101829371504
1760598458.7053344,14.29198154531967,0.32305051077318875,1.4530506736999598,-0.08738013994120725,53.93307643773461,43.572805172533954,-56.97026726160307
1760598458.7153156,13.59247130240242,0.14933528541570787,1.45509189449035,-0.08940490257739094,55.62812976804654,67.88313633679498,-64.2367728120729
1760598458.7253058,12.769267480053392,-0.04921278253332104,1.41143609743863,-0.08598795490896385,56.349324501838296,90.49975173727857,-71.18404148733374
1760598458.7353835,11.830284164329258,-0.25839586415369853,1.3267610669609358,-0.08050382921174169,55.82357271184747,109.45439983885059,-77.3416833211654
1760598458.7453415,10.792155048485343,-0.4609168464688699,1.21178894694586,-0.07649235032401477,53.95789272899373,122.96644517023104,-82.26913237712289
1760598458.75533,9.679561231138742,-0.6385170043283857,1.0815222829355915,-0.07720381004257959,50.868219518684704,129.6608567118976,-85.60021576751932
1760598458.7654204,8.523569941791388,-0.7746016674564367,0.9525744054308946,-0.0851160607729927,46.869285175082894,128.7569112388091,-87.08575534993068
1760598458.775369,7.359061381633041,-0.8568149165590628,0.8402510958536064,-0.10149425490278384,42.42540646116313,120.1924380850623,-86.6289796353152
1760598458.7853467,6.221520506989344,-0.8789461480414327,0.7560935279354517,-0.1260938736791096,38.071274499565014,104.65602744792646,-84.30606295931429
1760598458.7953186,5.143646145940077,-0.841708905844027,0.7064032881699868,-0.15710729330767298,34.318295056342706,83.51598025089977,-80.36404008860849
1760598458.805374,4.152304401930978,-0.7522748581048857,0.6919414090266718,-0.19141297959089135,31.564883112536567,58.65556655883437,-75.19215203079766
1760598458.8153903,3.266287368160988,-0.622808129323096,0.7086633823917804,-0.22510846302791526,30.02852120743865,32.243056331287036,-69.26948556957981
1760598458.8253243,2.4951518001870583,-0.4684621864174967,0.749131105535772,-0.2542165821826998,29.713199447272487,6.476500535663667,-63.098743460667855
1760598458.8353834,1.8391750996411753,-0.3053117234177141,0.8041768133741083,-0.2753903322916141,30.418201100790217,-16.655456077659363,-57.140042378564935
1760598458.84531,1.290260162980713,-0.14855455723120514,0.8644603441164864,-0.2864428129049167,31.78475436449753,-35.563675598792486,-51.75817339712481
1760598458.8553143,0.8335007042776313,-0.011145563551286089,0.9216951696513531,-0.2865978479217188,33.368740493218006,-49.180504148730066,-47.192299625227015
1760598458.8653264,0.4490939646229838,0.09710267304598821,0.9694550710644978,-0.2764529523710557,34.722872111010986,-57.009449437311545,-43.550637569609385
1760598458.8753698,0.11433471112681641,0.16998281050966169,1.0035715083454866,-0.2577175697986114,35.471427480554595,-59.110013981538955,-40.82661829244249
1760598458.8853345,-0.19449194985026205,0.20497599540518252,1.02218193950773,-0.23281686217471256,35.36424761969766,-56.03163217410175,-38.929051542947875
1760598458.8953862,-0.500413646264472,0.2030245756552109,1.0255058418371157,-0.20445314346757296,34.30283340961917,-48.712390884480165,-37.71754042208871
1760598458.9053202,-0.8242971071025798,0.16806982050743774,1.015429612778357,-0.1752115894516914,32.33805781295642,-38.35696523089506,-37.03545441537378
1760598458.9153593,-1.1835929226421942,0.10642821129583456,0.9949858046802734,-0.14727976777452395,29.644466596730847,-26.305974568344432,-36.73527398782935
1760598458.9253054,-1.5912988362218283,0.026069325834004738,0.9678137397555248,-0.12231490255831168,26.479441848781462,-13.907114052604593,-36.69409488481351
1760598458.9353108,-2.0551736984923377,-0.06415554547406375,0.9376793119119594,-0.10144945868028282,23.136536405684026,-2.3973063601273936,-36.81969874680261
1760598458.94531,-2.5772721717702365,-0.15529422377951657,0.9081084464127116,-0.0853929215137282,19.901418027696067,7.195669201079127,-37.04931256230019
1760598458.9552863,-3.1538889554879983,-0.2390425385868885,0.8821557110509528,-0.07457420779900545,17.01669519285509,14.124749922653628,-37.34383719100172
1760598458.9652991,-3.7759824847303687,-0.3084088925067555,0.8622960215493064,-0.06927279439001408,14.659135765646685,17.963080470036687,-37.68013652133933
1760598458.9752965,-4.430090775226485,-0.35823279382014506,0.8504026374948522,-0.0697012690094238,12.930073674564685,18.60926476223613,-38.043330408531205
1760598458.985315,-5.099672932974786,-0.38550121811439597,0.8477645187878198,-0.07602067759114672,11.857586158842935,16.260095492448183,-38.420283262166905
1760598458.9952996,-5.766733410033038,-0.38943085091926627,0.8551007478688171,-0.0882866412267182,11.407551328331524,11.356307198545874,-38.794865213141044
1760598459.0053272,-6.413534553548966,-0.37131937766149914,0.8725447079692615,-0.10633697590964895,11.499990741772232,4.509883008414363,-39.1451943898276
1760598459.015333,-7.024190260547371,-0.33420321920683055,0.8995903364541539,-0.1296433222553689,12.02708052687543,-3.576897469737798,-39.44291520682597
1760598459.0253828,-7.5859627748397855,-0.28238426002169226,0.9350126567158009,-0.1571616220319037,12.86977015794417,-12.190286812503746,-39.65448144044877
1760598459.0353296,-8.090147544138372,-0.22090101231026651,0.9767923689752507,-0.18722550357893078,13.910930733419086,-20.672590112510374,-39.7442535784399
1760598459.0453408,-8.53250947900942,-0.15501931499770594,1.0220878051536944,-0.21752775048999753,15.044131242853206,-28.471622926705876,-39.67896590992972
1760598459.0553246,-8.913305377493083,-0.08980411658073255,1.067304464506211,-0.24522646236828674,16.17824193172266,-35.16871926250144,-39.43284423455456
1760598459.0653615,-9.236973287514896,-0.029809971276978955,1.1083083435530128,-0.2671958706595265,17.238857297182573,-40.48563925331856,-38.99243703386225
1760598459.0754404,-9.511583150401547,0.021100370534767564,1.1408099380444585,-0.28041959403131966,18.16785202318345,-44.2740866463212,-38.36011171618278
1760598459.0853329,-9.748129247427006,0.05982645145137312,1.1609095130274865,-0.2824974969897881,18.922169343329013,-46.49387783938488,-37.55520974599446
1760598459.0953507,-9.95971532428181,0.08402859022137901,1.1657431173091377,-0.272202223757493,19.47234106906616,-47.18673321773285,-36.61208956572412
1760598459.1053576,-10.160650153576388,0.09210808300836401,1.154109958750558,-0.24997198284062835,19.800651116124076,-46.452122918050975,-35.57471873766313
1760598459.1153505,-10.365446445821386,0.08322464343728757,1.126916073157902,-0.21817658801617468,19.898679424388618,-44.42980596827948,-34.488064473792654
1760598459.125321,-10.587711376262718,0.05738531078005793,1.0872759919069797,-0.18099655867390113,19.764171773599504,-41.29106999080411,-33.387189089240096
1760598459.135308,-10.838941792299217,0.015592321454562403,1.0401990376313008,-0.14385664308417617,19.397311621175575,-37.237772854066066,-32.28557191420145
1760598459.1453178,-11.127289933300915,-0.0400158557459949,0.9919153136477357,-0.11251704718878118,18.796262910824414,-32.50580168394265,-31.164638297991516
1760598459.1552968,-11.456428985654894,-0.10612345880682932,0.9489928113588681,-0.09204166160751635,17.951660051680015,-27.368167420782182,-29.966663868516246
1760598459.1654944,-11.824694517843131,-0.1783721926772655,0.9174215625091445,-0.08587399321911848,16.84003369860057,-22.13298029012488,-28.593014568726325
1760598459.1753352,-12.224682512367037,-0.25169608474627936,0.9018146753854247,-0.09519422070210654,15.416979602437825,-17.132831334394837,-26.908996731747827
1760598459.1853466,-12.643436174149404,-0.3208221881222462,0.9048343689447803,-0.1186620677436568,13.611754686673535,-12.70412281727971,-24.75547052633885
1760598459.1953323,-13.063262749560971,-0.38086132968569597,0.9269057530347575,-0.15258290085331574,11.325435479297667,-9.157152225713125,-21.966048344181978
1760598459.2053943,-13.463117092629629,-0.42789730026140577,0.9662315585081526,-0.1914574312221078,8.434522741408342,-6.740007906534042,-18.387507872854563
1760598459.215396,-13.820398132509593,-0.4594862073207237,1.0190754105120516,-0.2288012098648152,4.800913238994133,-5.601434833142915,-13.900319066496346
1760598459.2253685,-14.112937929331995,-0.4749880702243264,1.0802543638545008,-0.25808148285864874,0.28774262297675274,-5.7594488276593365,-8.436072454341735
1760598459.2353573,-14.320921297992232,-0.47566457694159187,1.1437758391485227,-0.2736269115073817,-5.220824400318318,-7.083030966320879,-1.989091083702447
1760598459.24543,-14.428466010581552,-0.4644956874601833,1.2035541838081416,-0.2713983586356549,-11.798774807800397,-9.293164642421873,5.379498766628014
1760598459.2553978,-14.424636144913048,-0.4457051816937453,1.2541313774819232,-0.24954039193849842,-19.459630773349794,-11.986691837909918,13.545644520892294
1760598459.2653959,-14.303758509199044,-0.4240453552070679,1.2913067464153563,-0.20865493109015976,-28.142922429608436,-14.682484411916782,22.333211464158527
1760598459.2753587,-14.06504327801494,-0.40395807557952923,1.3125719680012071,-0.15175772549769928,-37.707822525252084,-16.885095062522538,31.529662358466428
1760598459.2853477,-13.711639781066463,-0.38877617708143164,1.3172704276763265,-0.0839064479612606,-47.93495067979078,-18.157185016845084,40.90377404273027
1760598459.295369,-13.249356230105409,-0.380137091276201,1.3064561597158573,-0.011530949472604022,-58.53624641427678,-18.189369384772945,50.22256867944811
1760598459.3053627,-12.685320062002505,-0.37774506866366997,1.2824986663083673,0.05845410350039131,-69.17184592391914,-16.85541365027395,59.265286804293666
1760598459.3154004,-12.026846570435627,-0.3795416716079103,1.2485405808358736,0.1196279087357747,-79.47214961046956,-14.242466538061047,67.83332661176487
1760598459.3253825,-11.280720133195073,-0.38223800355932663,1.2079458248711687,0.1669766947692481,-89.06265774524483,-10.650117913826636,75.75617782447253
1760598459.335367,-10.452987975380186,-0.38206005841439505,1.1638645611608287,0.19758192306128075,-97.58864328743333,-6.557580875427416,82.89415281013962
1760598459.345344,-9.549245510113758,-0.3755089692085053,1.1189856849782318,0.21095977242467037,-104.73659256081281,-2.563702850588159,89.13908512235736
1760598459.3552861,-8.575283897891735,-0.3599646049044848,1.0754664716070954,0.20899969603127436,-110.25009199004758,0.6914933411945671,94.41410066899633
1760598459.3653486,-7.537896282490313,-0.33403813455445913,1.034963625968954,0.19553413949188062,-113.93963117733483,2.6128790879085324,98.67304843184421
1760598459.3753169,-6.445606766468048,-0.2976568316310138,0.9986767206844418,0.1756384206054469,-115.68781460200823,2.732384763368456,101.89949473247836
1760598459.385315,-5.309094822910357,-0.2519134331037925,0.9673498682171283,0.1547958150689473,-115.45232300341853,0.776224203781799,104.10491191826988
1760598459.3953097,-4.141140703950187,-0.19874003231953075,0.9412236314913823,0.13807154358981674,-113.26801353960613,-3.292122296856432,105.32607632328501
1760598459.40535,-2.956023054149794,-0.1404909382622629,0.9199660225986885,0.1294239285830049,-109.24770285926336,-9.259166376636557,105.62228632415618
1760598459.4154959,-1.768451852923434,-0.07953836890472199,0.9026450969695359,0.13124337097565314,-103.57995899352552,-16.680285043518346,105.07313309243007
1760598459.4253833,-0.5922716152620502,-0.017979462485339402,0.8878190692011736,0.14415819266872704,-96.52229463314828,-24.926694336159454,103.77695896957154
1760598459.43539,0.5607515353678909,0.042487789276919284,0.8737746896993256,0.16709430353326943,-88.38900425688527,-33.25316143342389,101.84919201206252
1760598459.4453466,1.6817810084851088,0.1005243270204351,0.8588590604898481,0.19753931753533246,-79.53374339119743,-40.877039194555195,99.41911006563156
1760598459.4553041,2.7652436842162658,0.15500583072550714,0.8417994626688121,0.2319518206038193,-70.3275633840136,-47.058873201238725,96.62376550366965
1760598459.4653218,3.808636207481917,0.20486220666029234,0.8219244559338735,0.2662646143321722,-61.133755896870284,-51.17564730887042,93.59882548116758
1760598459.4753165,4.8119115243504424,0.24898042385938737,0.7992500856724523,0.2964366843462229,-52.2817243980347,-52.77917020431875,90.46748214318801
1760598459.4853053,5.776624609107795,0.28621346731315384,0.7744333072569914,0.3190028373354104,-44.04289852833298,-51.63401819292634,87.32966930199372
1760598459.4953084,6.705036209089697,0.315490388509898,0.7486118935118488,0.3315578687097438,-36.61191432201901,-47.73194325345774,84.25407973533753
1760598459.5053954,7.599347900742439,0.33598625813957256,0.7231597930534691,0.3331027548338246,-30.09565407695304,-41.28261090364761,81.27482854831082
1760598459.5153773,8.461184299578541,0.3472985620476191,0.6994014661170374,0.32418388669101666,-24.51143307575206,-32.68339833351928,78.39334684172066
1760598459.5253444,9.291366281721684,0.3495830615636968,0.6783451724041798,0.30678564847005346,-19.794011988466533,-22.4731195606992,75.58469697364892
1760598459.5353148,10.089949459804377,0.3436155809147687,0.6604986686917665,0.2839932525261995,-15.809705743604715,-11.275668443514943,72.80646529462372
1760598459.5453243,10.856448723859774,0.33076234843748825,0.645812801123523,0.25950195050084035,-12.375141643770037,0.26017407929470987,70.00804089330738
1760598459.5553188,11.590141642697006,0.31286160440230937,0.6337658859394046,0.23707647461365916,-9.278329923951867,11.518817100478561,67.13846488015494
1760598459.5653481,12.290343961819872,0.2920391067605881,0.6235666452047031,0.22005196576581534,-6.300276400237118,21.96847568698389,64.1518782060845
1760598459.5753522,12.956575346873107,0.27049115103963495,0.6144244660630122,0.21093512813136167,-3.2358275741942784,31.19980823025799,61.01053053969457
1760598459.585372,13.58857366101463,0.2502671487744419,0.6058200095020881,0.21113492114433174,0.08746870359552278,38.9491302552056,57.68603245484514
1760598459.5953362,14.186160893105791,0.23307494333419396,0.5977109260960632,0.22083499787193855,3.7937974292105485,45.10417935556735,54.159870610694625
1760598459.605333,14.749005148445194,0.22012476597685976,0.5906227192923384,0.23901460943818192,7.94803829476209,49.69224430281721,50.424119768364854
1760598459.615357,15.276355341622589,0.21202650075610271,0.5855957236039513,0.26362387380458996,12.550050372800412,52.85257060979534,46.48285803163657
1760598459.6253157,15.76684301257441,0.20875600527088717,0.5839833364056167,0.29191001439686165,17.534367276127472,54.796943794411405,42.35419758836614
1760598459.6353114,16.218442704796164,0.20970271729136156,0.5871269013812574,0.32086327205966453,22.774652257790574,55.76388349783353,38.072294718181304
1760598459.6453958,16.628653773709704,0.21380023021603586,0.5959688341475143,0.34771101252405967,28.091800460108818,55.97271873973332,33.68841743761907
1760598459.6553383,16.994912525030394,0.21972701083365306,0.6106997498077339,0.37035731113249315,33.264778476906876,55.58375526018542,29.27028054637291
1760598459.665335,17.315173828369872,0.2261501712836399,0.6305500319337177,0.3876647781304033,38.04429599063023,54.66972218561497,24.899358195064902
1760598459.6754982,17.588539158611088,0.23197420692073914,0.6538090811493023,0.39951419327171556,42.17047888440972,53.20197650625591,20.66647346109732
1760598459.685492,17.815783413888585,0.23655246705641816,0.67808283568443,0.40664010263781875,45.395508425883726,51.053062107325204,16.66633214407287
1760598459.6953387,17.999659630932353,0.23982520971320356,0.7007171626275709,0.410293571147866,47.51021932292367,48.015429646489174,12.991692400028512
1760598459.7053254,18.14492185959556,0.24236236978179448,0.7192690252722524,0.4118069771483126,48.37115857803063,43.83427569058327,9.7275952897247
1760598459.7153492,18.258069739571066,0.24530572324233363,0.7319143427267594,0.4121417225147968,47.92338403585613,38.25049079813373,6.945647167101862
1760598459.7253196,18.346863037360638,0.25022203935409204,0.737721359451466,0.4115076228894063,46.214925240356784,31.048071328497915,4.697967896498679
1760598459.7353122,18.4196789527625,0.25889636266796723,0.7367649214094062,0.409148910346707,43.40059252420172,22.099733537401455,3.010403043988059
1760598459.745315,18.484795150881244,0.2731063528585486,0.7300951350136621,0.40337209589431866,39.734647655377394,11.405185871559308,1.8750695741080259
1760598459.7552722,18.549678716761232,0.2944145361442768,0.7195995093571699,0.39183212298533354,35.55317787905629,-0.881718727785487,1.2430276502760866
1760598459.7653441,18.620343769984622,0.3239955227591984,0.7078104945238102,0.3720159843236707,31.247892334017074,-14.438579589540538,1.0184475334812082
1760598459.7753127,18.700812262613326,0.36249390058121717,0.6977069507419333,0.3418081435301748,27.233797803432267,-28.772625527580637,1.0558521927673874
1760598459.7853022,18.792685671239983,0.40989970940704273,0.6925367289456447,0.3000128612760587,23.913946692712837,-43.230461742147725,1.1619034251141767
1760598459.7953162,18.89482156174148,0.4654326995560822,0.6956563164756984,0.24673479645979404,21.644998275393206,-57.018722901646875,1.1028694871948153
1760598459.8053758,19.003111167907363,0.5274354599048681,0.7103572031255931,0.18355860749735198,20.707347338781,-69.23611885040242,0.6183710092452694
1760598459.8154054,19.110366664914604,0.5932837651894393,0.7396376867725588,0.11350693517854753,21.28279691578061,-78.91842002792171,-0.558817586753092
1760598459.8253453,19.206341486033832,0.6593309562283597,0.7858842332360307,0.040788324624159274,23.44125706488342,-85.0979870585484,-2.678214378561026
1760598459.835348,19.277917348338512,0.7209123760691136,0.8504453424532713,-0.029631817278349657,27.136210560464555,-86.87800665375339,-5.94476372520754
1760598459.845358,19.30949416355186,0.772442976728818,0.9331144650500203,-0.09259225479483432,32.20737139833321,-83.51878844336719,-10.492955410936581
1760598459.855349,19.283612122765458,0.8076437697275423,1.0315898839017217,-0.14337108466678852,38.388629542075016,-74.53001739543285,-16.3655146483598
1760598459.8653708,19.18181862578751,0.819931087885176,1.1410410541194471,-0.1783149901728824,45.320134363017075,-59.75966629879621,-23.499843458526083
1760598459.875335,18.98576830847619,0.8029940107701528,1.2539595586025916,-0.19536187799285357,52.564708669573804,-39.46806390184047,-31.724332582378725
1760598459.885568,18.67851628435242,0.7515598692838628,1.3604793494376208,-0.19435896034303785,59.629875417761774,-14.374772923166413,-40.76513579419473
1760598459.8953454,18.245936590813027,0.6622970912558002,1.4492927307127965,-0.17711398659085453,65.99703588528276,14.333321323795417,-50.262437362262354
1760598459.9053347,17.6781711953662,0.5347371865187677,1.509159998115762,-0.14717438620896126,71.15861180955659,45.0417782487157,-59.79419902781301
1760598459.9153445,16.970990125696442,0.372039727107097,1.530831891195382,-0.10938593172451049,74.66234493313092,75.80089371668711,-68.90507887792263
1760598459.9253256,16.12692206224599,0.1814026120296493,1.5090206274419726,-0.0693201271359827,76.15969007945792,104.4691537492898,-77.13838447814724
1760598459.9353566,15.156001281174323,-0.026053544575793612,1.4439284624246966,-0.03266552399143804,75.4528345165485,128.8992582160605,-84.06909744413308
1760598459.9453545,14.07597688393793,-0.23602824643753714,1.3418409697733824,-0.004650545514584115,72.53296709333412,147.15016530953295,-89.33599263039847
1760598459.9553246,12.911849699526954,-0.43241256037713344,1.21447087781385,0.01047620219740764,67.60161865117617,157.700861197837,-92.67081975556144
1760598459.9653888,11.694648529296243,-0.5991681804926939,1.0770840115486642,0.009901972525120963,61.067733316830804,159.63601155070046,-93.9226147439828
1760598459.9753013,10.459441067211456,-0.7224518641481507,0.9458293559409671,-0.007382341891318722,53.51595141983728,152.772946694154,-93.07529225454196
1760598459.9853141,9.242700711799767,-0.7925952097860127,0.8349536209357019,-0.04036265686048179,45.64624688349079,137.70543895364685,-90.25625865806765
1760598459.9953506,8.07929895097972,-0.8055112987596063,0.7545912355031806,-0.08600918452546044,38.190758465059396,115.7521622483575,-85.73292911077297
1760598460.0053494,6.999514703257097,-0.7632113692723029,0.7095939909248282,-0.13957444820229425,31.8191115171662,88.81390678224078,-79.89389531244342
1760598460.015337,6.0264922633102325,-0.6733474514378053,0.6995149084791001,-0.19519446944531244,27.04742129994962,59.15960885238816,-73.21342800946036
1760598460.0253873,5.1745130528333485,-0.5479419710862476,0.7195367511671766,-0.24672860343964653,24.167372312737065,29.173366334720768,-66.20200854841353
1760598460.0353377,4.4482922596905405,-0.4016198596983798,0.7619463704273035,-0.2886913260869736,23.209384239835014,1.1003442075941785,-59.3499972681149
1760598460.0453382,3.8433204240099763,-0.24969217189292525,0.8177322454271561,-0.3170761159117792,23.94766656036942,-23.17221134849404,-53.074230917427485
1760598460.0553281,3.3470976636688032,-0.1063886153434983,0.8779847424138086,-0.32988217940003295,25.94618847391454,-42.27117850898489,-47.67711297628441
1760598460.0653539,2.94099215165438,0.016547473632839343,0.9349336169588338,-0.3272378013288915,28.63593840718606,-55.41658743430698,-43.3248710795374
1760598460.075346,2.6024076646479517,0.11077363199734258,0.9825945702870645,-0.31113461951157706,31.407970943219986,-62.423774298806535,-40.04730675401371
1760598460.0853333,2.3069625689779105,0.17172586825225333,1.0170760294857364,-0.2848876187264827,33.70490489996741,-63.64144496667245,-37.75693885798783
1760598460.095416,2.030450154054878,0.1984929842048306,1.0366186578713552,-0.25247884537589693,35.095566722241564,-59.84590057260137,-36.28201289277162
1760598460.105484,1.7504476013775039,0.19329462759036453,1.0414292062103498,-0.2179303997170126,35.32233723434871,-52.11327009747264,-35.40601282814519
1760598460.1153548,1.4475426438064325,0.1607225646499213,1.0333546084929026,-0.18480805816157309,34.31699393261129,-41.68842800923102,-34.906220342442005
1760598460.1253452,1.1062251464373307,0.10691810419312035,1.0154370709766205,-0.15590373103526936,32.18688169049312,-29.863590515903155,-34.585277611035245
1760598460.135337,0.715522475706737,0.038822750187947015,0.9913988611472518,-0.1330970974798514,29.1778667602295,-17.873737145531372,-34.29208430516098
1760598460.1452935,0.2694351486372738,-0.036433409596818164,0.9651186303848514,-0.11736308366483428,25.623163293025744,-6.8117005486219036,-33.931020633738626
1760598460.1553483,-0.23283133699017336,-0.11201358391536392,0.9401653950925154,-0.10887623392593584,21.88779273862183,2.436383398516885,-33.46079470838509
1760598460.165354,-0.7869049947310117,-0.1817696789467125,0.9194424820003136,-0.1071622618398546,18.31746693243084,9.235020955182831,-32.8856954131413
1760598460.1753907,-1.3836467849884937,-0.24058330247959164,0.9049661535875866,-0.11125524618144396,15.198515640211507,13.222173043745979,-32.24252462168897
1760598460.1853688,-2.009966374746369,-0.2846482216426568,0.8977755683866276,-0.11983346862929788,12.732643657855547,14.31028342208661,-31.586174819108717
1760598460.195373,-2.6500252422780672,-0.3116587634663177,0.8979522155586405,-0.13132567830619535,11.027367442943923,12.665484926242495,-30.976110951209378
1760598460.2053332,-3.2866994698240366,-0.3208608959764056,0.9047198060901694,-0.14399616169568039,10.10043098442989,8.66651741782214,-30.465257387571786
1760598460.2153935,-3.903101540254947,-0.3129411246230332,0.9165971902764641,-0.15602542176038287,9.89468781488828,2.84717935278741,-30.092134624347274
1760598460.2254443,-4.483940999043698,-0.2897637740987431,0.9315835968935263,-0.1656040975639564,10.299059783068461,-4.171528140027175,-29.876543741522845
1760598460.2353861,-5.016546536460695,-0.2540054781735336,0.947363353074732,-0.1710541218514908,11.171240209768811,-11.751777149254508,-29.818636718353325
1760598460.245354,-5.491463623986535,-0.2087614776433474,0.961523027302589,-0.17098329686825872,12.358586216633336,-19.303580718543632,-29.900836652948122
1760598460.2553425,-5.902649064361141,-0.15720000660107897,0.9717764222326514,-0.16446697311948225,13.714806461461093,-26.33636993420693,-30.091802347429333
1760598460.2655354,-6.247367955570527,-0.10231860942032868,0.9761916675880898,-0.15123530831083493,15.111275365285913,-32.49206154719452,-30.351494744448267
1760598460.2754204,-6.525935903237088,-0.04682233205799692,0.973408993713949,-0.1318303270620277,16.442887691155907,-37.556985098144445,-30.636424547872227
1760598460.2853425,-6.74143855473321,0.0068870363408917515,0.9628280260522873,-0.1076878407728779,17.62921860049643,-41.4532584875558,-30.90433682584798
1760598460.295336,-6.899514548591282,0.05664244282828185,0.9447337047540844,-0.08110018050533437,18.61233288822808,-44.21332660321496,-31.117859593155178
1760598460.305377,-7.008223325568675,0.1004073346782134,0.9203261706033001,-0.05503104207146911,19.35286416786621,-45.943822824005345,-31.246911979430383
1760598460.3153987,-7.077951794244304,0.1361840272194207,0.8916262719793447,-0.032782955129682725,19.825960752996124,-46.7862109700825,-31.26984925190375
1760598460.325378,-7.121259424618195,0.1619801556398741,0.8612473320466669,-0.01755401630867906,20.018378878957048,-46.881573796966286,-31.17337882139206
1760598460.335394,-7.152536862392318,0.17586557513288972,0.8320580856871022,-0.011955324876443654,19.92736719412517,-46.345446399304635,-30.951235654505236
1760598460.345345,-7.187373176213065,0.176128767118219,0.8068081018003502,-0.01758706922721962,19.561060891211852,-45.256067508047664,-30.601550218419547
1760598460.3553474,-7.241593091889856,0.1615145579834512,0.7878242649838421,-0.03477763024080587,18.939178471153575,-43.656444464638554,-30.1229103499067
1760598460.3653564,-7.330015885899246,0.13150186334269343,0.7768760441130508,-0.06255860936344465,18.09236417465309,-41.56788608892595,-29.509386136425327
1760598460.3753457,-7.465063374664419,0.08656501767890475,0.7752289150491213,-0.09887544138229021,17.058814135164273,-39.01067058569977,-28.745191404902624
1760598460.3853593,-7.655380449611839,0.02835649309942121,0.7838019206022918,-0.14095055341854573,15.877715646813318,-36.02654695351092,-27.800029955647595
1760598460.3953497,-7.904634922567925,-0.04024433869844564,0.8032933370850589,-0.18567695728254058,14.580140470372914,-32.69785922319424,-26.626357158023545
1760598460.4053628,-8.210655913371088,-0.11525139420406454,0.8341686582986083,-0.22994831495627147,13.178991731368779,-29.15906423456207,-25.15968045124941
1760598460.4154387,-8.565060515091176,-0.19186803375530834,0.8764812930179138,-0.27089521054437987,11.660131347969338,-25.597950244936378,-23.322589328788684
1760598460.4255052,-8.95349636908637,-0.2649382316119973,0.9295681885490897,-0.3060446120699049,9.976811597171105,-22.24561502197347,-21.032483714622252
1760598460.4355083,-9.35657335467237,-0.3295059182303236,0.9917084117516796,-0.333430576471627,8.049077284095977,-19.35602741411817,-18.21209492846436
1760598460.4453459,-9.751458121780317,-0.3814108326209643,1.0598537401701076,-0.35167608864649574,5.769008056285525,-17.17766468082487,-14.801075697175468
1760598460.4553475,-10.11397337118861,-0.4178304315914036,1.1295397835279561,-0.360055328024796,3.011639256157394,-15.92113172573145,-10.766409401188266
1760598460.46536,-10.420921836123389,-0.4376746107438564,1.1950628237701435,-0.3585325209831876,-0.34968682875404616,-15.727633210929554,-6.10937677726168
1760598460.4753482,-10.652289651719666,-0.44175612427405864,1.24996171400634,-0.34775884626261694,-4.42568132975185,-16.643543459863885,-0.8674479298937243
1760598460.4853501,-10.792996065300947,-0.43268880594693715,1.2877828504481494,-0.3290037918301885,-9.293808056411878,-18.605980829074177,4.8893814926132295
1760598460.495369,-10.833937412684234,-0.414504123500855,1.3030414237298036,-0.30400703482309754,-14.983909043298675,-21.443083087524535,11.067020256845346
1760598460.505366,-10.772199204982401,-0.39202308464277424,1.292236626004703,-0.2747524739691932,-21.468793088358435,-24.890527671535253,17.558741106729478
1760598460.5154228,-10.610451555309249,-0.3700680423078484,1.254743885895616,-0.24317965465256733,-28.660939716049956,-28.622977311081396,24.257509949045883
1760598460.5255013,-10.355670372072538,-0.3526365230894557,1.193402578347971,-0.21086264298779195,-36.415549757769355,-32.29611577819513,31.067059034554052
1760598460.535336,-10.017419292411924,-0.3421799337119955,1.1146467808706673,-0.1787064845776015,-44.539450929948394,-35.59246782821596,37.90989908996826
1760598460.545605,-9.605978456388353,-0.3391299909648195,1.028086637594315,-0.14673027833577543,-52.80486629279734,-38.26292806942483,44.73092268991623
1760598460.5553672,-9.130617145276174,-0.3417896280451744,0.945530074747979,-0.11401036653191304,-60.96665688867137,-40.156366114463204,51.4958148338187
1760598460.5654075,-8.598279682358088,-0.3466488169066249,0.8795262986444873,-0.07883940605688806,-68.78123276830783,-41.23200704390283,58.18423661767939
1760598460.5753684,-8.012887851044917,-0.34910000328185786,0.841599991623748,-0.039118314310142,-76.02479186394702,-41.553109338523505,64.77868428864616
1760598460.5853503,-7.375360108403796,-0.3444226070809192,0.8404168805142814,0.00705984222514811,-82.50794728964908,-41.26477411083292,71.25086052084981
1760598460.5953598,-6.6843182547795825,-0.32881301859162615,0.8801681124301887,0.06074927000981878,-88.08362425369361,-40.562147864347544,77.5481016194608
1760598460.605359,-5.937320429756976,-0.300207599923366,0.9594722302524017,0.12159583147955438,-92.64618707823612,-39.656572642813664,83.5827423758697
1760598460.6153588,-5.132359748696184,-0.25871072037521115,1.0710551321849953,0.1875745509221191,-96.1224216192847,-38.746032072095666,89.22712471015069
1760598460.6253796,-4.269328276277998,-0.2065644936456387,1.2023676715029414,0.25512604515938203,-98.45815748586783,-37.99351836050216,94.31613596626876
1760598460.6353402,-3.3511713928599245,-0.14771221532350376,1.3371428197808453,0.3196717700899866,-99.60599734591503,-37.514276281671364,98.65782973170275
1760598460.6453917,-2.3845307987144904,-0.0870727911606659,1.457710105485728,0.37639268615995286,-99.518781342548,-37.3710938046127,102.0512611069647
1760598460.6554136,-1.3797713198546486,-0.029667901545331055,1.5477118370038083,0.4211086275475023,-98.15084825605808,-37.57567771478042,104.30951174789399
1760598460.6653953,-0.3503891292614413,0.020247975733118054,1.5947280456416169,0.4510664990822002,-95.4665223308182,-38.09331831575751,105.28502323911042
1760598460.6754098,0.6881043268094083,0.05990502473481748,1.5922510708048863,0.4654339508759487,-91.45362641428895,-38.847788093193984,104.89371073409822
1760598460.6853638,1.719646643718223,0.08845149358022868,1.5405373616975415,0.46534589462135695,-86.13918152880267,-39.72435432790633,103.13396656440824
1760598460.6953487,2.7292040286949066,0.10701566926163128,1.4461561800593654,0.4534861711424412,-79.6041936800957,-40.570988542085544,100.09684249127618
1760598460.7053592,3.7042117217051733,0.11837936512587098,1.3204459482118263,0.43334883530313156,-71.99419853448698,-41.20036491044965,95.96464614681447
1760598460.715367,4.6356433909561146,0.12633120389336588,1.177363297734746,0.4084183959842157,-63.52233828084167,-41.39654743377762,90.99690513964065
1760598460.7253401,5.518544639170662,0.13484382655890215,1.031254742045641,0.3814965786195109,-54.46271015522138,-40.92943680443904,85.5048808376111
1760598460.7354522,6.351965711138465,0.1472574917606006,0.8949577892584925,0.35432036132727546,-45.13360513759153,-39.57742850761587,79.81808225528927
1760598460.745371,7.138339565857916,0.16564072461401932,0.7784610796009288,0.32751517196027913,-35.87248599593218,-37.15560167715458,74.24795453109583
1760598460.7553601,7.882448348882915,0.19044573611824106,0.6881928998107796,0.3008374305655732,-27.00638853083039,-33.54440268162148,69.05458547783623
1760598460.765568,8.590182539823386,0.22050252453279032,0.6268939976167612,0.27359349826348883,-18.822352685242954,-28.71294510493842,64.42166834973051
1760598460.7753942,9.26731122537755,0.2533213789565652,0.5939673597777105,0.24508924541248658,-11.542341482949329,-22.731884846759463,60.443236506893086
1760598460.7853975,9.918452074707806,0.2856156845364209,0.5861677448208302,0.2149794561780717,-5.30607020987459,-15.77300542777036,57.123313879202954
1760598460.7953765,10.546371684491653,0.31392639124382754,0.5984787984322706,0.18344709237145007,-0.16366694176512742,-8.095391116470642,54.38723970977858
1760598460.8053756,11.151680367538583,0.3352286283351186,0.6250228715543004,0.1512194667572871,3.921477961480979,-0.020535452682261816,52.101622172980726
1760598460.8155725,11.732923300364863,0.3474233241833175,0.659866961836257,0.11948218851801547,7.060713049496794,8.09956085051075,50.09899568702812
1760598460.825367,12.287017900845942,0.3496499508982769,0.6976309293007872,0.08976136375584588,9.421107223715381,15.916445357130584,48.203299118349484
1760598460.8353872,12.80994730543488,0.34238839387664194,0.7338620498771518,0.06381573017586734,11.202192775472449,23.11663221397182,46.25297457791302
1760598460.8453822,13.29759290831948,0.3273451862168533,0.7651959400806015,0.043537571570667566,12.611424470012874,29.446337005998053,44.1194149390268
1760598460.8553514,13.746576782183823,0.3071485704641783,0.7893618937713718,0.030832485112868707,13.841095141343864,34.72661529783175,41.719348242554425
1760598460.865435,14.154989269895456,0.28491099199842224,0.8051034533846496,0.027446945437931917,15.048976727290572,38.85733551198191,39.020433836738036
1760598460.8754282,14.522897732172792,0.26374542623575004,0.8120745053506949,0.03473491578519881,16.344318658073206,41.8099351112849,36.03995608741102
1760598460.8854084,14.852565601143287,0.2463275362057195,0.8107431939862741,0.05339157067993781,17.78010395275658,43.61055139742476,32.83718470160121
1760598460.89544,15.148351285734774,0.23457588255683953,0.8022999834277654,0.08322166085509669,19.351707290059455,44.316701036849295,29.500743577471972
1760598460.905362,15.416299411847968,0.22948905133881814,0.7885395438718295,0.12302732932733189,21.001436805869222,43.991877879445205,26.133039214891447
1760598460.915383,15.663477739755544,0.23114520703483551,0.7716866364839443,0.1706713052416979,22.62810639946646,42.68286930190127,22.834234071532432
1760598460.9253657,15.897146359285507,0.23884193035145962,0.7541634828513616,0.22330791945458828,24.10091199434513,40.40405664354976,19.688257280382985
1760598460.9354184,16.123866661126186,0.2513337045282844,0.7383278763360769,0.2777198121095691,25.277068836057627,37.13164729592845,16.752880861576262
1760598460.9453957,16.348665015339954,0.2671143627814704,0.7262249075671715,0.3306784925046731,26.022149886767515,32.809129051216466,14.05505343883178
1760598460.9554453,16.57436250077523,0.28469480415627846,0.7193882562033621,0.3792517514337686,26.230748032446524,27.36353153311904,11.591699275032685
1760598460.9654562,16.801169958648657,0.30283869853411144,0.718711888638355,0.4209996669655576,25.843960132029085,20.73031738772312,9.335285806772733
1760598460.9759543,17.02662643716429,0.3207326403947012,0.724397811452203,0.45403903161277603,24.86033437687841,12.882995858673919,7.242772832883048
1760598460.9853632,17.245924466872857,0.338077213825153,0.7359708682923841,0.4770052111016139,23.33837983238543,3.862326364777944,5.2661356537026665
1760598460.9954104,17.45261323355596,0.35509335615226506,0.7523422700060619,0.48897020809883385,21.3906928658525,-6.200216264929769,3.362509914825809
1760598461.0053694,17.639602690109975,0.3724478659965181,0.7719083637979776,0.48936968453052315,19.17139966997752,-17.069105470941278,1.5021131736859756
1760598461.0154047,17.8003207464362,0.391112110869599,0.7926878573772412,0.47796664127142585,16.859583328700776,-28.404183983737205,-0.3275615807365362
1760598461.0253508,17.92982331859314,0.41217531493165854,0.8125135848206239,0.4548590354854028,14.641657942356426,-39.77328903211228,-2.1222019389187214
1760598461.0353675,18.0256451915356,0.4366376355789057,0.8292909842241966,0.42052797483944393,12.695445849891218,-50.67629214016139,-3.86587865126637
1760598461.0453656,18.08821935038944,0.46521049690938576,0.8413157955180166,0.3759145103047929,11.178196321238834,-60.57690523003726,-5.540109683542381
1760598461.055373,18.120775137850874,0.49815167220937095,0.8476173473450023,0.322502489081462,10.22002034316771,-68.93760998054222,-7.134959355174493
1760598461.0653603,18.12872628698708,0.5351574652594725,0.84827011748067,0.2623765569556332,9.923133842909376,-75.25321064572691,-8.659725852124017
1760598461.075479,18.118650724000343,0.5753238299305543,0.8446024958712334,0.1982232026701798,10.365874721681521,-79.07965597908628,-10.150718676898753
1760598461.085375,18.097026742470863,0.6171752248104675,0.8392338102120052,0.13324882463681958,11.608950134884642,-80.05643483606178,-11.674201282527124
1760598461.0954082,18.0689188070161,0.6587463979895464,0.8358899212691607,0.07100007143479053,13.700359410389582,-77.92239910750486,-13.323576399070204
1760598461.1054108,18.03680362781241,0.6976898934182927,0.8389799750936989,0.015088361885279924,16.675494143838552,-72.52584541040719,-15.210991347849912
1760598461.1153665,17.999700432143392,0.7313762752110206,0.8529568091261784,-0.03115756302313358,20.55017982121791,-63.83001501573989,-17.454459423747377
1760598461.1253877,17.952726633431322,0.7569615782769076,0.881526620165029,-0.0650655365431084,25.30653435279484,-51.915135077357135,-20.16221256628678
1760598461.1353967,17.887147186272756,0.7714179612700857,0.9268147338864993,-0.08496193320484872,30.873903025720015,-36.978138887651625,-23.416350723734904
1760598461.145422,17.790925065745505,0.771551478143975,0.9886270147071022,-0.09042356188112277,37.10922122705969,-19.331462532253425,-27.25800639431846
1760598461.1553576,17.649713271479527,0.754054599475939,1.0639633224038993,-0.08239261611088285,43.78243226176717,0.5974370367298866,-31.67620213046607
1760598461.1656725,17.448163613388374,0.715651391099871,1.1469321234921646,-0.06312533118046257,50.57260631546265,22.26447500373458,-36.60227412194065
1760598461.1754553,17.17138178593989,0.653383920308901,1.2291740791287706,-0.03596635129663944,57.078969452059965,45.005065351313775,-41.91110174519029
1760598461.185442,16.806349807701586,0.5650582528872656,1.3008211195764994,-0.004968081090712386,62.848393124162754,68.03001334786458,-47.429435935277176
1760598461.1953833,16.343168853358563,0.4498234030963988,1.3519049788618762,0.02559200738478798,67.41769861227334,90.42611139939085,-52.950470210469355
1760598461.2053726,15.776031813173807,0.3088090173296359,1.3740130757218358,0.05171159470818115,70.36621651547996,111.1689805902327,-58.25262912556312
1760598461.215378,15.103892124374733,0.14570909030896503,1.3619015145781648,0.07008312299774826,71.37191722318842,129.15659833274023,-63.11959089585954
1760598461.2254078,14.330835307012308,-0.03282859586696103,1.3147324126685789,0.0783541150173705,70.26316172619464,143.27010357702497,-67.35812198942342
1760598461.2353945,13.466171508635602,-0.21717038988538956,1.236618095078696,0.07520518516658875,67.05767515008675,152.46362610856838,-70.81079593928129
1760598461.2454252,12.524247791167605,-0.39519063086521616,1.1362530372886157,0.06029261131615181,61.980927378081525,155.87753676212358,-73.36239837370773
1760598461.2553673,11.523939387882137,-0.553399486819549,1.0256119407350723,0.034146035813775066,55.45803915807943,152.96108525017667,-74.94137704221241
1760598461.2653954,10.487752474365855,-0.6786446706005358,0.917949077216298,-0.001898894201427782,48.076667476389616,143.58341775253226,-75.51962047713751
1760598461.2753952,9.44049639525512,-0.7600930055166509,0.8255507118462965,-0.04571230379510342,40.522771588200456,128.10922132432856,-75.11350737483977
1760598461.2853785,8.407573489036261,-0.7910267366503142,0.7577685642839421,-0.09437720784623543,33.49621452078058,107.41830802390571,-73.78644538889641
1760598461.2953994,7.413056775264979,-0.769996115853886,0.7197629878251195,-0.14428309515648408,27.617971417958344,82.85714613443797,-71.64995634461054
1760598461.3054247,6.477819732694664,-0.7010568535384654,0.7121591797984659,-0.19138187279457394,23.344057143631677,56.12288936772967,-68.85917645938147
1760598461.3154373,5.618000252716591,-0.5930881734378943,0.7315634104601553,-0.23162026018000892,20.901912972037003,29.09381109538435,-65.60028360503408
1760598461.3254142,4.844013462079973,-0.45841488884183834,0.7716859530349524,-0.26148504329051586,20.26217482249553,3.630911934792677,-62.070752858220594
1760598461.3354063,4.160205181984487,-0.31107179986347344,0.8247237376925137,-0.2785381797471063,21.152521841078016,-18.618548625635622,-58.45653474556349
1760598461.3453865,3.5651077569886915,-0.16504401958556952,0.8826775717713182,-0.28180344258774337,23.111704127549512,-36.38503987677392,-54.911691694667404
1760598461.355401,3.0521637865560733,-0.032738870730142096,0.9383851037471854,-0.27190278790060857,25.573031339721936,-48.884438569911566,-51.545260897989536
1760598461.3654017,2.610738431077693,0.07614884303094424,0.9861850338340232,-0.25091250142539123,27.960316012697945,-55.857508451896315,-48.417800830576276
1760598461.3753977,2.227243963577893,0.155296979986924,1.0222361644574507,-0.22198450239837436,29.777530718840367,-57.54303414951322,-45.54737059191837
1760598461.3853972,1.886239215338556,0.20192954946654257,1.0445688133960027,-0.1888289939520723,30.676452784547955,-54.59789351184319,-42.922473789109105
1760598461.3999033,1.5714290041329892,0.2165572499758613,1.052949801491547,-0.1551711112734314,30.492795395674126,-47.98368629192458,-40.51817706483332
1760598461.4072218,1.2665587299746743,0.20239624676869866,1.0486201575492073,-0.12428270920365898,29.248582193568076,-38.840284254997634,-38.31129898020022
1760598461.416193,0.9562536645260457,0.16461019671903587,1.0339435573859868,-0.09866058513581885,27.124986827417548,-28.36318660048989,-36.29121294515337
1760598461.425471,0.6268664049459167,0.10951912712375991,1.0119975239595347,-0.07988053864825131,24.41436801445912,-17.69603514613141,-34.46421322300457
1760598461.435464,0.26735906208081633,0.0438831569358618,0.9861464733102095,-0.06861196857718588,21.46230335333778,-7.844200645536597,-32.85120528809888
1760598461.4454162,-0.1298277193563627,-0.025686163850591446,0.9596439764826125,-0.06474557860699177,18.610213780616462,0.38853962633798994,-31.480250611284696
1760598461.4555547,-0.5680461158106597,-0.09318433838957578,0.9353098504406346,-0.06757769856109193,16.147229978619357,6.440161959465017,-30.37672524084569
1760598461.4662642,-1.0460255562122742,-0.15356330001082236,0.9153126207472313,-0.0760044246649109,14.276977411694203,10.007911450036872,-29.554163140089656
1760598461.475779,-1.5579275009152178,-0.20298687823552686,0.9010650295413093,-0.08869477335948003,13.101669129703891,11.043866747502875,-29.00821908815331
1760598461.485529,-2.0939499587213306,-0.23898808264801522,0.893218845261903,-0.10422628694907853,12.622927239055807,9.729762595831009,-28.714956523410702
1760598461.495495,-2.6414452958397483,-0.26051004522189114,0.8917323849626073,-0.12117790346979124,12.75649160500131,6.433449864101847,-28.633351511143474
1760598461.5054417,-3.1863986521038075,-0.2678139848668358,0.8959819633610292,-0.13818435280193359,13.35653555178446,1.6510813368749884,-28.710906358851208
1760598461.5153887,-3.7150333571445566,-0.26225428173392074,0.9048941525916834,-0.15396378289770296,14.244660682692107,-4.059072846740525,-28.890772477863262
1760598461.5253985,-4.215287375986377,-0.24594650815733482,0.9170839804775174,-0.16733467610962974,15.238712514240582,-10.143887302529183,-29.118784964716138
1760598461.5353746,-4.677944564978803,-0.22137971226436715,0.930990536357628,-0.17723854634001848,16.177260219484644,-16.115952082025707,-29.3491757842978
1760598461.5453734,-5.097289774202571,-0.19104005368789498,0.9450044957276708,-0.18278116788009593,16.93679989575352,-21.600406886557202,-29.548268970662964
1760598461.5553765,-5.471259505459808,-0.15711320461979236,0.9575832233466044,-0.18329702370516265,17.440284877635403,-26.362858426583667,-29.695992601216606
1760598461.5653903,-5.801151564752614,-0.12131626133436724,0.9673504096600034,-0.17843069838747636,17.657190887439903,-30.31586081941348,-29.7854424515763
1760598461.5755677,-6.091017757472307,-0.08488002569395231,0.9731794479631626,-0.16821939765382973,17.596687562337372,-33.504465584929754,-29.820939276159013
1760598461.585384,-6.346886988814513,-0.04866942080370833,0.9742622253817704,-0.15315671097953468,17.296371323053854,-36.07430509647297,-29.81505279782504
1760598461.5954075,-6.575958982078786,-0.013403674825726918,0.9701660676056685,-0.134219296851452,16.809313660885284,-38.22812146777911,-29.78501755511502
1760598461.6053748,-6.785881762003863,0.02007906347830426,0.9608799935962368,-0.11284265482881878,16.191936371067357,-40.17821061847305,-29.748945086907007
1760598461.6153932,-6.984186283792842,0.05057822287816705,0.9468475619057878,-0.09083795420578517,15.494582766821695,-42.10265261266774,-29.722264592429305
1760598461.625367,-7.177905290982645,0.07637509436833219,0.9289792817071936,-0.07025104517522579,14.755790233075077,-44.11232305683443,-29.714834230266135
1760598461.6353567,-7.3733599739487365,0.09521746917359486,0.9086344201645498,-0.05317852484507991,14.000371666343867,-46.23361093707162,-29.729087993766438
1760598461.6453822,-7.576067542654332,0.10446722606321111,0.8875600863456449,-0.04156568926365098,13.24065777435754,-48.40884023249298,-29.75939798377742
1760598461.6554298,-7.790710657568133,0.10139608461075705,0.867775224818652,-0.03700522299174864,12.479740259087507,-50.51314799936364,-29.79255960386094
1760598461.6653826,-8.021113749931922,0.08358148363202288,0.8513938691673545,-0.04054048616160794,11.715275021674842,-52.38366306880171,-29.80900567449293
1760598461.6753833,-8.270185544748365,0.049334000858450355,0.8404031184068117,-0.05248053378452032,10.942331886018147,-53.85489592701163,-29.784131182617053
1760598461.685382,-8.539805743195116,-0.001915900656394824,0.8364423359478357,-0.07226543440056224,10.15401074943099,-54.79370813820632,-29.689085570043456
1760598461.6953905,-8.83065339073157,-0.06933312119446079,0.8406460733085768,-0.09844830696747538,9.339206668962186,-55.12803920164226,-29.490611469510576
1760598461.705385,-9.141993728243573,-0.15054032073080412,0.8535886741239608,-0.12884333131206333,8.477903524883342,-54.86524504192388,-29.149892591899338
1760598461.7153828,-9.47145819750872,-0.24165897939099612,0.8753116130862164,-0.16082315316148346,7.535376467186494,-54.097852919233034,-28.620754918915637
1760598461.725411,-9.814865837232663,-0.3375478773257582,0.9053691419490681,-0.19167602967876968,6.4573515328315985,-52.99639029354897,-27.847804757142164
1760598461.7354012,-10.166138776841697,-0.432238037395347,0.9428313986106406,-0.21890607612346208,5.168305508624455,-51.79057238667413,-26.765126389481818
1760598461.7453961,-10.517355166755591,-0.5195316360953408,0.9862315088224695,-0.2404003921605516,3.5745988610999047,-50.74149212239106,-25.296035434242736
1760598461.755376,-10.858958950126688,-0.5936925054092591,1.0334965867598296,-0.2544651041590482,1.5730509581130365,-50.10849229796898,-23.35420369650905
1760598461.7654963,-11.180114132104187,-0.650120193137145,1.0819299000855747,-0.25979452108513124,-0.935878291714522,-50.11505808641654,-20.846360297063555
1760598461.7754185,-11.469163589069227,-0.6858858206165512,1.1283058897302145,-0.25544959099151593,-4.032507239294815,-50.91830498729183,-17.67676429889574
1760598461.7853758,-11.714138588521566,-0.700028247427527,1.1691104162243329,-0.24088933682961564,-7.762973494875116,-52.586379666736335,-13.753637198719707
1760598461.7953756,-11.903267063298406,-0.69355935625636,1.200917693706033,-0.21605328098794613,-12.127900404966908,-55.087237310975226,-8.997595860653835
1760598461.8053818,-12.025442127247857,-0.6691899994567264,1.2208533217031512,-0.18146115121109527,-17.076891605991214,-58.29079906082681,-3.3517832889269625
1760598461.815414,-12.070631171749273,-0.6308434754323322,1.2270588122134338,-0.13828498688061114,-22.509760192473827,-61.98460172936769,3.207064905776906
1760598461.825394,-12.030223992666087,-0.5830564466816106,1.2190565939378357,-0.08835285289235006,-28.283995134062774,-65.9010232686769,10.657819552607002
1760598461.8353894,-11.897330189455182,-0.5303719918650759,1.197923923566719,-0.03405804850758774,-34.22684934727612,-69.75229082389949,18.925938903491023
1760598461.845389,-11.667038484159097,-0.47681287449593024,1.1662202264439465,0.021830631450101275,-40.14984933831743,-73.26802056948542,27.87786801219163
1760598461.8553982,-11.336644831717638,-0.42549901587267697,1.127665149328459,0.07643871410036165,-45.863469856925406,-76.22933313938464,37.32033947443563
1760598461.8654242,-10.905845919683113,-0.37844763311993335,1.0866181586750079,0.12709765324339456,-51.190040682303504,-78.49403308096751,47.00559203317347
1760598461.8754523,-10.376882685131447,-0.33656272769056245,1.0474507799014108,0.171647961128366,-55.97351486791579,-80.00910897290461,56.642801427352154
1760598461.8854132,-9.754606602223555,-0.29978219502952896,1.0139212591287412,0.20868109982434435,-60.085372374893254,-80.80948012298651,65.91517112096747
1760598461.895361,-9.046432846537996,-0.26731998168305565,0.9886566433842481,0.23767424128460923,-63.42650823623608,-81.00452062499588,74.50134125647637
1760598461.9053717,-8.262143913193665,-0.23793489621435404,0.9728229052207854,0.2589842708183064,-65.92547924046713,-80.75552753663116,82.09922133106103
1760598461.9154038,-7.413518998477861,-0.2101788723387893,0.9660277711995275,0.2736837651046793,-67.53412343856294,-80.24776308285195,88.45006423620238
1760598461.925625,-6.513788530300724,-0.1826081266013897,0.9664625979449349,0.2832523750970572,-68.22228976130549,-79.66052835424824,93.36043562985158
1760598461.9353878,-5.576944234561976,-0.15395943601278073,0.9712550006848063,0.28918855394309534,-67.97380347185182,-79.13857056309728,96.71961528964779
1760598461.9454014,-4.616964022274444,-0.12329397321781825,0.9769733717047966,0.29265442270030106,-66.7854269274712,-78.76813209323507,98.51006031160874
1760598461.9553869,-3.647029226957828,-0.09010113572539309,0.980198279576628,0.2942663458692022,-64.66953600846333,-78.56079154085745,98.8091149884875
1760598461.9653862,-2.6788154195207405,-0.05434650617011344,0.9780609196578839,0.29408002465157723,-61.65999975989205,-78.4476214784941,97.78120444231249
1760598461.9753747,-1.721929341478797,-0.016450230410274647,0.9686551366304947,0.29173148829324513,-57.8196830755544,-78.28507543978391,95.66106070485515
1760598461.9854045,-0.7835483331080013,0.02280299069741558,0.9512596322439502,0.2866459640585149,-53.247189734506854,-77.87255451139077,92.72980020083466
1760598461.9954038,0.13170179293006004,0.06240031503731719,0.9263506168175072,0.27823985234300924,-48.080074532138234,-76.97993705724407,89.2866931449055
1760598462.0054183,1.021618359165022,0.10124707796732273,0.8954263990541524,0.2660871451121233,-42.49211970494404,-75.38165873444301,85.62010118694788
1760598462.0154119,1.8860578387605715,0.13828690060262502,0.8606953312584069,0.2500545811788139,-36.683616276123054,-72.89249428993101,81.98119804747337
1760598462.025374,2.726379726194219,0.17257429393268475,0.8246961233139511,0.23040962715783048,-30.865592932777798,-69.39944847748367,78.56366564603942
1760598462.0355954,3.544767854753086,0.2032992763588596,0.7899231466033028,0.20788476849840318,-25.240728674809155,-64.88454105041274,75.49160710790602
1760598462.0454085,4.343517128872177,0.22978073556438763,0.7585170288299332,0.1836664314070383,-19.984442730741495,-59.43486952051267,72.81659689529211
1760598462.055493,5.124380051110604,0.2514539707831748,0.7320569779425478,0.15928430223112822,-15.22920554995111,-53.238695683414875,70.52337133727254
1760598462.0653894,5.888060542557918,0.2678772221910248,0.7114655499410101,0.1364050334762195,-11.053997232471534,-46.56864330253323,68.54245889435934
1760598462.0753596,6.633923254670817,0.27877264618715036,0.697016973039967,0.11656709728095109,-7.4797780721281555,-39.7548099189089,66.76728678271576
1760598462.0853665,7.359956954938931,0.2841015717979956,0.6884287962597258,0.1009145699286532,-4.471151562480579,-33.15152218721124,65.07304411948262
1760598462.0954843,8.062994172999963,0.2841573582105615,0.6850106244927996,0.08999019480604739,-1.9439070825900342,-27.101767044569115,63.33473968920294
1760598462.1054294,8.739151568316217,0.2796483552436374,0.685839083880263,0.08363280234489008,0.22246608759265188,-21.90325525073186,61.44231958050815
1760598462.1153784,9.384423012202172,0.2717421751491457,0.6899249909992056,0.08099697513142105,2.168912169798173,-17.77972683274116,59.311321856420435
1760598462.1254287,9.99533563201056,0.262049512001129,0.6963420107154638,0.08068698351017503,4.039759504066781,-14.860424921070367,56.88832378930317
1760598462.135452,10.569570492275178,0.2525369128131875,0.7042994089647894,0.08098374224793926,5.966754923165246,-13.169614262892898,54.15132088536626
1760598462.1457286,11.106453875205768,0.24536982875145516,0.7131601455534987,0.08013835055408483,8.056033187493945,-12.626777637258819,51.10598573107086
1760598462.155447,11.607240827119014,0.24269868254183596,0.7224198244262727,0.0766960841484724,10.379155644660182,-13.056963967708024,47.77926839796903
1760598462.1654563,12.07513800229504,0.24641109428494273,0.7316669288592277,0.06979965751614021,12.96860829944332,-14.209854538913502,44.21191007982869
1760598462.175441,12.515045295499505,0.2578815710597126,0.7405433093960975,0.05941262975109658,15.81753421765184,-15.785458118137537,40.45121144246966
1760598462.1854374,12.933031496817819,0.27775360120112147,0.7487207768863412,0.04641303924515652,18.88301967790115,-17.463874664998677,36.544994978675625
1760598462.195483,13.335593997923832,0.30578655894301365,0.7559047114918851,0.03253111439656728,22.091928194249054,-18.93626524983953,32.537280157607235
1760598462.2054167,13.72878329443927,0.3407925481307077,0.7618651961310255,0.02013287527863447,25.348055433521793,-19.93410633421147,28.46582207428116
1760598462.2154052,14.11729758782245,0.380679927155825,0.7664811446259447,0.011877721963019493,28.539375389612292,-20.254114742173787,24.36135159833148
1760598462.2253957,14.50366785864197,0.42261232993992276,0.7697730609615853,0.010304504971588085,31.54463627556709,-19.77696198992159,20.24808250286919
1760598462.23541,14.88765344715606,0.46328210089084293,0.7719070069143242,0.017424405547359967,34.23956886285751,-18.47885701208307,16.144840691576746
1760598462.2454343,15.265947156861182,0.4992819670559225,0.773174972707061,0.0344043096757664,36.50387991069383,-16.435823067406048,12.066117567158805
1760598462.2554717,15.632248398867533,0.5275394655571702,0.7739772351149532,0.061396911256027246,38.230197062810184,-13.820712383077208,8.022562422088454
1760598462.2654405,15.977712155425923,0.5457612011288023,0.7748317827271008,0.0975241009253272,39.3350790902649,-10.892840646312,4.020881871403468
1760598462.2754512,16.291731760232448,0.5528241435094609,0.776414772018018,0.1409805180648422,39.77085143603986,-7.980032089247568,0.06358971321932354
1760598462.2855048,16.562970869401024,0.5490498740997468,0.7796119100023052,0.1892159441219814,39.536218747321456,-5.453145800006003,-3.850705536289292
1760598462.295436,16.78052588991591,0.5363041013967716,0.7855495896649182,0.23916874399956548,38.68356282866052,-3.693764578912221,-7.725865080275221
1760598462.3054092,16.93507671210678,0.5178791574135082,0.7955789431542304,0.287533896052898,37.32121193348386,-3.0564454781608057,-11.56534695684713
1760598462.3154173,17.01987746438637,0.4981437783038225,0.8111981562048073,0.3310475351244314,35.60941029628624,-3.8276029385539787,-15.368051336471005
1760598462.325428,17.03145797532293,0.48198197410553123,0.8339102188416267,0.3667622926081914,33.74919036710304,-6.183758851481598,-19.12348567242706
1760598462.335402,16.969951603606596,0.4740856509461108,0.8650226582444546,0.39228514064644865,31.964021293702974,-10.15266377351444,-22.80716664356684
1760598462.345372,16.839026031538374,0.47820222278147456,0.9054057175871625,0.4059562166385116,30.475090928706706,-15.581625766858943,-26.377266068755777
1760598462.355385,16.645454488491804,0.49645488337639593,0.9552376493812037,0.4069587360943329,29.472341102968056,-22.117981941635335,-29.77337067030701
1760598462.365386,16.398411024205924,0.5288404198202628,1.013778438723474,0.3953568953592568,29.08474263626051,-29.206616910733526,-32.917917993507174
1760598462.3754191,16.10859555526488,0.5729690219244203,1.0792232162221662,0.37205353539048147,29.354431506711943,-36.10850907761152,-35.72043364267094
1760598462.38541,15.78729218669574,0.6240601061688568,1.148688704042378,0.3386483394755926,30.219783778473907,-41.94246134635077,-38.084177729649966
1760598462.3953793,15.445448544784332,0.6751796452128245,1.218372356909194,0.2971820811831238,31.511967378211448,-45.74966040224221,-39.91439203354713
1760598462.4054143,15.092849344847368,0.7177189000216274,1.2838905512875234,0.24979070192849887,32.96796614094653,-46.5777818880834,-41.127271877891374
1760598462.415421,14.737451164607265,0.7421488169608311,1.340758082103648,0.19835022999134364,34.26069529934322,-43.57815181181909,-41.65904598850482
1760598462.4254293,14.384942734495814,0.7390815679437664,1.3849365287648903,0.1442253104145339,35.04380665050361,-36.10607506118872,-41.474727854023854
1760598462.435455,14.038585949996795,0.7005961594574251,1.4133708256000834,0.08820657935585031,35.00545031085607,-23.81142344097353,-40.57585389752752
1760598462.445518,13.699370138847016,0.6216626407168706,1.4244480303533447,0.030644339049894012,33.92227241075404,-6.705218942765562,-39.0059949056217
1760598462.455444,13.366475611356396,0.5013873177172735,1.4183249881859923,-0.028297851240056033,31.703189715072156,14.810547628499146,-36.85250193642314
1760598462.465411,13.037997675265093,0.3437492876372571,1.3970623166139857,-0.08838714419840564,28.41289436888557,39.958101959161446,-34.243175924602895
