timestamp,angle,linear_acceleration_x,linear_acceleration_y,linear_acceleration_z,angular_velocity_x,angular_velocity_y,angular_velocity_z
1760958415.9412074,-0.42711968703100883,0.07777190569485634,0.9599210193536315,-0.18373792900262623,7.7443163569279845,-2.185211069640998,20.55149068092429
1760958415.9511979,-0.1096509547249153,0.06020468345722496,0.9587648584883294,-0.1817246855381372,6.456960144875242,0.20566634141522916,19.35521904862797
1760958415.9613323,0.13873888705459977,0.038222180789578133,0.9579900351738161,-0.17902099473166566,5.128286727056632,2.661708228724553,17.93923229921796
1760958415.9712615,0.3147779403870506,0.013974135335629757,0.957515769223394,-0.17579623452454254,3.834822334273758,5.0166436053461,16.44209106048288
1760958415.9815145,0.42111501659856,-0.010282499043421739,0.9572009874528508,-0.17228100108523156,2.6383401036716365,7.119754582230233,14.990881719136553
1760958415.9912584,0.465633161872856,-0.032444713191424265,0.9568810150718499,-0.16875813668167725,1.582339129746925,8.851721363812583,13.690699236217254
1760958416.0012403,0.4602416157059219,-0.05079646585354833,0.9564148389867128,-0.16554771996913892,0.6907769414696683,10.136472631306265,12.617529780852301
1760958416.0113204,0.4193168834149935,-0.06418177006403017,0.9557305517811228,-0.16298597804366147,-0.031184720932519963,10.947527000551137,11.81493684516205
1760958416.0214431,0.3580046965588368,-0.07209617494600754,0.9548553694655749,-0.16139911048225167,-0.5947660273403619,11.30817836098065,11.294563604863152
1760958416.0315294,0.29060117755265363,-0.07468920246967971,0.9539199461088624,-0.1610742282277981,-1.023913895525353,11.28579446683904,11.04006758378714
1760958416.04125,0.22920236864087362,-0.07268547960302568,0.9531347060605802,-0.16223060275284124,-1.3509004834918013,10.981281573107387,11.013737439925487
1760958416.0512443,0.1827553036020145,-0.06724424562387982,0.9527453690702288,-0.1649949252059985,-1.6117073102241932,10.515300498450154,11.164765576543267
1760958416.0612133,0.1565767841499577,-0.05978253331801165,0.9529805744225227,-0.16938378545626068,-1.8417088983886898,10.013064517642743,11.438019413912288
1760958416.0712807,0.15234328554461776,-0.05178665676466109,0.9540039689231268,-0.17529509380829209,-2.0720835287375734,9.589534167554449,11.78219283121706
1760958416.081423,0.16850617031105505,-0.04463216379424134,0.9558786007793962,-0.1825086165419492,-2.327228421640243,9.336603199522301,12.156412669472592
1760958416.0912395,0.2010527072225151,-0.03942701638705681,0.9585472258107121,-0.1906950587762164,-2.6232675021873773,9.313506359191587,12.534674075412653
1760958416.1012876,0.24451214541597938,-0.036888498277804306,0.9618300807625019,-0.19943298334185414,-2.9675587143461892,9.541235352730714,12.90781469166143
1760958416.1113343,0.29309178911732164,-0.03726206064551007,0.9654405397204957,-0.20823251986343014,-3.3589907026525188,10.001273048195324,13.283047043949164
1760958416.1213555,0.34181642672791207,-0.04028936922862956,0.9690172335520522,-0.2165642854648621,-3.78884046842829,10.638486058401382,13.681314128457082
1760958416.131231,0.3875359414363645,-0.04523169199032097,0.9721690689338724,-0.22389219281653258,-4.242029536264888,11.36760065063401,14.132917709513759
1760958416.1412697,0.42966563865296276,-0.05095244383865784,0.9745288733514729,-0.22971038209720307,-4.698706340963342,12.08238893006866,14.6720170478672
1760958416.1513731,0.47054069991274555,-0.05605758498859553,0.975812321745268,-0.23358564072284263,-5.136133237994414,12.666558300325704,15.330714682903908
1760958416.1613767,0.5153108830593879,-0.059081642885306,0.9758786444496427,-0.23520441873990644,-5.530842868147552,13.005359055263115,16.133502030335226
1760958416.1712923,0.5713767328748338,-0.05869157792473279,0.9747859578417409,-0.23441798604193287,-5.860974211253246,12.997032619457052,17.092779277085864
1760958416.1812785,0.6474574582982098,-0.05386962676454164,0.9728285465022549,-0.23127475070044523,-6.108649866580669,12.563330613005935,18.20596823668381
1760958416.1913853,0.7524532323280838,-0.04403854598054909,0.9705406113191546,-0.22602935524919407,-6.262241584498124,11.658402085398516,19.45443891274785
1760958416.2012002,0.894297546392015,-0.0291079499513274,0.9686545167955691,-0.21912383504597238,-6.31838119920585,10.27539140271326,20.80415603679671
1760958416.2113602,1.0789836237582981,-0.00944080676394633,0.9680116919667663,-0.2111432818688997,-6.283578301713735,8.450152492522573,22.207717034369033
1760958416.22129,1.3099022745034925,0.014243037893544619,0.9694377212344506,-0.20275296594433126,-6.175284516634113,6.261595265445205,23.607356407027844
1760958416.2313576,1.587560238808972,0.040997467033625314,0.973604472804932,-0.19462433570317836,-6.022206841802374,3.8283521894838253,24.93852490643064
1760958416.241431,1.9096713846541649,0.0697809848948271,0.9809064411300287,-0.1873559302962187,-5.8636550098697535,1.3016945601931202,26.133752310925974
1760958416.2512715,2.271545524736598,0.09955865313217968,0.9913739771753437,-0.1813947714732052,-5.747740695621204,-1.1450637055188855,27.126599306282298
1760958416.2613451,2.666661641978072,0.12936164231361932,1.0046356577651303,-0.17696494459599116,-5.728323967789623,-3.3300745690413796,27.85555403613501
1760958416.2714012,3.08731469038482,0.15831211643124685,1.0199314362429783,-0.17401197274907768,-5.860700792656207,-5.078372850206833,28.267716997209487
1760958416.2812972,3.525256732293965,0.1856348471698743,1.036171582207321,-0.17217281524075317,-6.19615386819072,-6.237775837841027,28.32204471880107
1760958416.2913334,3.9722872892636865,0.21067404778337978,1.052034139315434,-0.17078016247493613,-6.775709569051121,-6.6934819688036935,27.9918086104049
1760958416.3013241,4.420762917010825,0.23291786954931912,1.0660936118985258,-0.1689054735619159,-7.623804083874461,-6.379449828968122,27.26581909556507
1760958416.3114154,4.8639895651781515,0.2520162142880628,1.0769736097105698,-0.16543960627929052,-8.74296894374242,-5.284870485640389,26.147941604654637
1760958416.3212476,5.296446289800851,0.26777096058668853,1.083514761602517,-0.1592052423431353,-10.110849334674327,-3.4546703796734772,24.65457061914924
1760958416.3317888,5.713783198700163,0.28008516035606,1.0849450857517826,-0.14909179559527547,-11.680650005813536,-0.9838955216017693,22.810062753396803
1760958416.341406,6.11255381419448,0.28887548001983326,1.0810324491399865,-0.13419983116551903,-13.385474579112064,1.9931623747691896,20.640592416475457
1760958416.3514228,6.489686849023629,0.29397173426291834,1.0721894240822465,-0.11397802615364518,-15.146203187580634,5.31738381712379,18.167340970678623
1760958416.361423,6.8417689478378,0.2950412327125031,1.0594950978630728,-0.08833284105627603,-16.8817979881019,8.820612114913732,15.400236315678645
1760958416.371392,7.164282623404422,0.291579460137546,1.0446034666397552,-0.057691790992946926,-18.520401887858483,12.340694383567667,12.333580597662577
1760958416.3815408,7.4509985326514085,0.2829988232575168,1.0295279540582862,-0.023007543774615398,-20.00934371472045,15.734137781758744,8.944849789575665
1760958416.3912683,7.693731239239951,0.2688204753903466,1.0163236672914318,0.014298955522426209,-21.322150543927755,18.88547187396475,5.1976980468068215
1760958416.4012825,7.882610000225772,0.24893113462967678,1.0067256723453775,0.052447234334767105,-22.46089821801051,21.713122867614135,1.0496496837899216
1760958416.411343,8.006887544092699,0.22382036933066415,1.0018304195408887,0.08944313392020359,-23.452818029093823,24.172075087428084,-3.5359960864968887
1760958416.421297,8.056146750550445,0.19469364738527706,1.0019097089640496,0.12324798700596852,-24.34116030007435,26.253692768410055,-8.57582581112961
1760958416.4313345,8.021638296788607,0.16338800794021255,1.006410009283228,0.1519612903647284,-25.17181763023309,27.982888815309586,-14.052590961504988
1760958416.4413285,7.897448551589973,0.1320903139153783,1.0141286470255078,0.17400719189742536,-25.978668935270573,29.412635179885193,-19.905781295118228
1760958416.4514642,7.681258627241124,0.1029317588525238,1.023505796664192,0.18830860797150084,-26.771337384424477,30.61585352210183,-26.029594010620492
1760958416.461202,7.3745728807977695,0.07757303850984268,1.0329500245537575,0.194424264713284,-27.52860599034499,31.675007026601616,-32.27958656688336
1760958416.471204,6.982423007900956,0.056894331097033055,1.0411239808730979,0.19262051446891554,-28.199204265993124,32.67006626781895,-38.48686667381386
1760958416.4814177,6.512658666059312,0.04086902869427762,1.0471409171539283,0.1838542270741291,-28.70964129793719,33.66582708789556,-44.47660275632251
1760958416.491189,5.9749971035346645,0.028641892789620232,1.0506480168741252,0.16965540404623436,-28.976909922297768,34.69983120232688,-50.0867093855394
1760958416.5011508,5.38001722977738,0.01877153285735239,1.0517941564210054,0.1519186219056205,-28.92276169912906,35.77240438796226,-55.18294166855498
1760958416.511423,4.738257109766808,0.009558341744425493,1.0511002836730738,0.13263744338529046,-28.486137544580785,36.84049060494221,-59.667953370246416
1760958416.521222,4.0595246140361665,-0.0006259939722862411,1.0492699634008025,0.11363551028067187,-27.631212697958194,37.81684120983528,-63.48358552135744
1760958416.531629,3.3524742719277203,-0.01307141099889468,1.046989136912074,0.09635136421990079,-26.35002430161178,38.57557067129552,-66.60725701359034
1760958416.541398,2.624449984121761,-0.02856051306596668,1.0447623445852912,0.08171789747679034,-24.660244618655103,38.964114132856416,-69.04446005802056
1760958416.5512354,1.8815503509732654,-0.04730648736515243,1.0428181952698177,0.07014883671092206,-22.599841744565516,38.8204023345148,-70.81984102597946
1760958416.5612924,1.128845436845383,-0.06898506066951106,1.0410940035707548,0.06161599938049131,-20.220836977167636,37.992925561333635,-71.96918169465403
1760958416.5713148,0.3706625213117488,-0.09283479605014106,1.0392857716613515,0.055781798679938314,-17.584063180009885,36.36062372148901,-72.53392576519872
1760958416.5815544,-0.3891366619748026,-0.11779699243673049,1.036935422603238,0.05214567791003048,-14.755942464883072,33.84943583409778,-72.55892517079162
1760958416.591438,-1.1469460015234842,-0.142670415069995,1.0335278675503983,0.05017000329582851,-11.807246811330224,30.44291579919658,-72.09305054095954
1760958416.6015413,-1.8993040143674473,-0.16626285789542566,1.0285805459993056,0.049365686468515114,-8.81303018050713,26.185442446948002,-71.19146389162431
1760958416.6112545,-2.6428848921001635,-0.1875274378645303,1.021717393300122,0.049333797613467,-5.852658559241892,21.17794368524698,-69.91788947931447
1760958416.6212807,-3.3745709610219667,-0.20567345243939503,1.0127233178592225,0.049770799662317115,-3.0090310584300997,15.567364701178775,-68.34526040644172
1760958416.6314132,-4.091569987677981,-0.2202394855304258,1.0015757248645833,0.05044940888549261,-0.36641496783203725,9.532037547875749,-66.55366294681423
1760958416.64159,-4.791533344600153,-0.23111520537743716,0.9884491097472067,0.05118697870384797,1.9933866387148156,3.265501347920956,-64.62538216431783
1760958416.651388,-5.472632344220539,-0.23850383623640115,0.9736908294931887,0.05181293577320109,3.996556251804385,-3.0388382450323252,-62.637775447693706
1760958416.6614673,-6.133560549292027,-0.24283033302771445,0.9577735339445733,0.052147013456025924,5.5841680116758665,-9.200438927767113,-60.655383996413015
1760958416.6712458,-6.773449720291954,-0.24461632373266093,0.9412384974121477,0.05199836107904212,6.719736973868483,-15.060805894552464,-58.72299853383464
1760958416.6813781,-7.39171365413128,-0.24435531436226393,0.9246457503275481,0.051190423146480125,7.396192938065008,-20.488940850476,-56.8613243885474
1760958416.691311,-7.98786042063225,-0.24242414175206983,0.9085384998754754,0.049608489576908936,7.640712000551203,-25.38333585322731,-55.06648856440815
1760958416.7012658,-8.561330198579638,-0.23905655402477122,0.8934174176641337,0.047257957707437695,7.515834227645439,-29.671023809594804,-53.31393860962186
1760958416.711352,-9.111416487749063,-0.23438565385309804,0.8797149058664226,0.04431465397577567,7.115780511187599,-33.30434493223303,-51.56637691030575
1760958416.721308,-9.63731172602501,-0.22854111701956753,0.867764857682646,0.04114764442588742,6.557794243766884,-36.25624951714237,-49.784436290577034
1760958416.731507,-10.138288441455353,-0.22177166591451877,0.8577749015565772,0.03830137540200914,5.969404082910844,-38.5151215585478,-47.93810161278064
1760958416.741275,-10.613992368784615,-0.21455764786885329,0.8498162930892287,0.036435605479713806,5.473401710346394,-40.08020317009651,-46.01664795123813
1760958416.7512245,-11.064794320511018,-0.20768290453955093,0.8438450847103304,0.0362341128242013,5.172789725457969,-40.95864539380811,-44.03517810106525
1760958416.7612808,-11.492130717897826,-0.20224580158179284,0.839756988270831,0.03830228230857102,5.13785232260662,-41.16495916823676,-42.03660844911002
1760958416.7713737,-11.8987616987188,-0.19960212660576362,0.8374632360151484,0.043076161932238975,5.396912738720245,-40.72320509581333,-40.08894771409804
1760958416.7812877,-12.288889078913147,-0.20124465672327868,0.8369635667019094,0.050760504903455295,5.931545452164748,-39.671704833294704,-38.27864051322613
1760958416.7914472,-12.668099219949346,-0.20863319734761415,0.8383898444613757,0.061303186083714746,6.6763346036799565,-38.069463366013906,-36.701340613626144
1760958416.8013546,-13.043121663929355,-0.22299327597406415,0.8419994536911924,0.07440284799735206,7.522908050161258,-36.002950242979175,-35.45161538078775
1760958416.8114228,-13.421417461190373,-0.24510230423057514,0.8481090110374806,0.08953957159912003,8.327929604931864,-33.59149092066563,-34.612814556414804
1760958416.821345,-13.810627867221035,-0.275081869726477,0.8569735880223138,0.10601636566848369,8.924846387769863,-30.98935708346068,-34.24783110241219
1760958416.8314047,-14.217924011538612,-0.3122167815581532,0.8686316775104728,0.12300193445277648,9.139238139210903,-28.382798276725083,-34.39096541756694
1760958416.8414092,-14.649303394553884,-0.3548264358595845,0.8827481284603095,0.13957094385468483,8.807408838882504,-25.980775570106324,-35.04080008389888
1760958416.8511984,-15.108882908422679,-0.40022003816907814,0.8984933282665478,0.1547445789207326,7.797330720482678,-23.999030674480455,-36.15403669676676
1760958416.8613439,-15.59824305396105,-0.444770326056623,0.9144955152958419,0.1675388470363234,6.030286109935609,-22.638264629221087,-37.64063738928921
1760958416.8712125,-16.115884900857093,-0.4841367211855279,0.9288939487465432,0.17702890593460519,3.500750493971324,-22.058453122183646,-39.361228085317705
1760958416.8814995,-16.656868789586188,-0.5136552422627388,0.939504834618252,0.18243483311753445,0.29142673379539785,-22.352489081064633,-41.12834126868126
1760958416.8918035,-17.212708211902157,-0.5288868625304876,0.944091598061991,0.1832281703949025,-3.419963262930035,-23.523193228551676,-42.71339787177156
1760958416.9014144,-17.771587783523838,-0.526277595640875,0.9407069057106424,0.17924772978068573,-7.365334730728673,-25.468059771521485,-43.86100518872098
1760958416.911455,-18.31895364939365,-0.5038354955592008,0.9280444183939741,0.17079689078804786,-11.204631245143341,-27.975755073284866,-44.31093681101659
1760958416.9213552,-18.838482877038178,-0.46168440756652634,0.9057097631878871,0.1586794656936947,-14.558287182550467,-30.737254535716158,-43.82611824191657
1760958416.9314234,-19.313375715987565,-0.4023381970176821,0.8743177830725631,0.14413210764140946,-17.051003491580627,-33.37252872819257,-42.22259974175214
1760958416.941235,-19.727839906504414,-0.3305797782557269,0.8353759489483431,0.12864049969998984,-18.360461881919427,-35.47104117479222,-39.39581586672982
1760958416.9514608,-20.068568418026924,-0.2529239150393743,0.7910098322297703,0.11367587394495152,-18.26200991069862,-36.64152973545128,-35.33730870414184
1760958416.9614959,-20.325975858634518,-0.17675004231561348,0.7436593225118212,0.10042821393772183,-16.660338188350785,-36.56428128691043,-30.137737692643803
1760958416.9714208,-20.49497394268767,-0.1092668709069018,0.6958661173510814,0.08961742074322275,-13.601974485209832,-35.03784566265527,-23.974857707695058
1760958416.9814992,-20.575137124976777,-0.05650041220471292,0.6501975519631672,0.08143383104190292,-9.26681070737168,-32.012143961219785,-17.088401883090004
1760958416.9912033,-20.570222645945428,-0.02248873163426902,0.6092715097033454,0.07561412688157955,-3.941252079121135,-27.601424814859598,-9.746728829214565
1760958417.0012336,-20.487138653689808,-0.008826204412280509,0.5758084226873732,0.07161819390326338,2.0211688753554595,-22.073531094418584,-2.2120214916174405
1760958417.0113702,-20.33456847670669,-0.014631211192390914,0.552642496252017,0.068848267582255,8.244204335912116,-15.816033078399462,5.288774288609139
1760958417.021283,-20.121531060720493,-0.03692577103000811,0.5426509287784923,0.0668466459834406,14.370736566835417,-9.284090483491498,12.5813565026857
1760958417.0314295,-19.85616967678523,-0.07133262940365413,0.5485826276098701,0.06542040313272872,20.09570753865815,-2.938397798921894,19.54656171920455
1760958417.0413907,-19.545008546492106,-0.11293393061133683,0.5727812105163931,0.0646658654040516,25.186008235167,2.8165405987734107,26.10815073086407
1760958417.0513687,-19.192809943894165,-0.15711007182868825,0.6168119462655876,0.06489443455778836,29.485972955136585,7.683571356132378,32.20957138104651
1760958417.0612829,-18.803027103114452,-0.20019330484813416,0.6810273375528193,0.0664868982490379,32.909919409309495,11.505067321439673,37.78605678701321
1760958417.0711873,-18.378713725890336,-0.23982264435434342,0.7641370177296545,0.06972066970166492,35.42551179307426,14.270964911722075,42.73965056185027
1760958417.0812917,-17.923650260601338,-0.2749609520751742,0.8628749412219782,0.0746206486871963,37.03322061952481,16.10169112048708,46.92430253291519
1760958417.0912871,-17.443401432833426,-0.30561357235192116,0.9718720424990368,0.08087736241379179,37.74754329316592,17.209388352033557,50.146183542627796
1760958417.1013632,-16.946034430880392,-0.33234982598567386,1.0838356702416063,0.08785546175230356,37.58485747930204,17.844714096110078,52.18125581994405
1760958417.111226,-16.44229399960128,-0.355759565748346,1.190099413629099,0.09468641823551494,36.56099711892336,18.239240604436915,52.80852628661421
1760958417.1212847,-15.945134235969368,-0.37597939027078703,1.2815392619014345,0.10041162789661637,34.69924896626811,18.554611681749673,51.853966103329455
1760958417.1312542,-15.46863149657107,-0.3924075914949136,1.349765014869074,0.10412658636071857,32.04685846623363,18.848774906801555,49.237368258967
1760958417.141227,-15.02643025487533,-0.40369276673258736,1.3884048524453172,0.10507896598916687,28.695680942887833,19.06668295228668,45.01289484670681
1760958417.1516464,-14.629979646702097,-0.40801836947263725,1.3942283694143827,0.1026942165030251,24.80081095624101,19.058089058998366,39.39413949630964
1760958417.1614382,-14.28687674647233,-0.4036170867026391,1.3678330485112706,0.09653773701834667,20.590492323621664,18.61914156618176,32.75649100030796
1760958417.1712759,-13.999624812302896,-0.38936235296135624,1.31368379566717,0.0862593622945089,16.36182695837311,17.548617920643014,25.61342029580269
1760958417.181271,-13.76503811867262,-0.36524181536420647,1.239445829603502,0.07158354188684889,12.459735871637395,15.705464440648175,18.568454461544352
1760958417.1914065,-13.57439794503224,-0.33255120378788655,1.1547401809834805,0.05239227531348006,9.240621308881325,13.053432527200313,12.249786763941188
1760958417.2011778,-13.414323799863046,-0.2937511285150515,1.0696036626579675,0.028898617096933667,7.026149365711566,9.681811949543402,7.238102658301095
1760958417.2116165,-13.268209472633352,-0.2520529090945403,0.9929932393348728,0.0018472543037127164,6.055434078247465,5.797802039102505,3.9992000253677173
1760958417.2212276,-13.118005463697925,-0.21087802375775708,0.9316263871951931,-0.027360367743923784,6.4449213890976305,1.6936528599790115,2.831396865589622
1760958417.231262,-12.946104409776492,-0.1733399427211111,0.889328569198711,-0.05670935364266907,8.16417804272511,-2.302335300430878,3.834464269236691
1760958417.241189,-12.737095425636744,-0.1418499968923916,0.8669216238260451,-0.0838190258152221,11.032824241040908,-5.879173408540728,6.902948237631749
1760958417.2514544,-12.479196923507287,-0.11789409247731442,0.8625778206606342,-0.10635235563309343,14.739736427077434,-8.789755731133173,11.74301554148502
1760958417.261297,-12.165251774703679,-0.10198730318588144,0.8725017117831071,-0.12247951353456088,18.881407965457583,-10.882514712602587,17.908875461392118
1760958417.271289,-11.793249237686295,-0.0937843049411268,0.8917804272271443,-0.13126323356336617,23.012963581521547,-12.114250696711174,24.85273343229624
1760958417.2811813,-11.36639394264753,-0.09229866298161549,0.9152494700260759,-0.13285630652581804,26.703417327923383,-12.544525620327251,31.98128757620026
1760958417.2913,-10.892764795620991,-0.0961694611484681,0.9382465591763801,-0.12845873624670365,29.58655831381045,-12.315459324312979,38.71193893063663
1760958417.3013659,-10.38461134043624,-0.1039165498592479,0.9571659471633722,-0.12005162745999129,31.4002065739753,-11.622746731047187,44.522954312249105
1760958417.311297,-9.857338696644279,-0.11414019418775284,0.9697717250458496,-0.10998354417613261,32.00909993368645,-10.684046390115535,48.9934828930719
1760958417.3214061,-9.328240801898371,-0.12563783713115723,0.9752696468293275,-0.10051596033714005,31.409743193623875,-9.70988781091121,51.83115783726763
1760958417.3313904,-8.815056531347937,-0.13742981374116947,0.9741670726892848,-0.09343266070598046,29.718506052435163,-8.88051867189565,52.886604342781524
1760958417.341407,-8.334445440574866,-0.14871007741347977,0.9679706629705298,-0.08978965296635921,27.146577093030793,-8.330277503336998,52.15532041394566
1760958417.3513925,-7.9005069222293045,-0.15876098699615895,0.958783684997481,-0.08983920061496345,23.96679596631392,-8.139566971025873,49.76813414781656
1760958417.3612707,-7.523489371701764,-0.1668803263813776,0.9488710245651321,-0.09311811477565039,20.477821268130707,-8.333543469009275,45.97193745416781
1760958417.3713484,-7.2088420034763026,-0.17235805383519298,0.9402603033153356,-0.0986584071743032,16.970618868001157,-8.88626278147007,41.10280478303867
1760958417.3813367,-6.9567419186015655,-0.17451619615980432,0.9344385932837883,-0.10526232126865215,13.701094237786382,-9.729070181218185,35.55398070869902
1760958417.391331,-6.7621805437764575,-0.17280059022814867,0.93218422712176,-0.11178113378766481,10.871167811225044,-10.762207598701474,29.741517986115298
1760958417.4012713,-6.61562040570749,-0.16689641669402114,0.9335460625320385,-0.11734394683758397,8.619016045909817,-11.868668384533779,24.070476462954012
1760958417.4113305,-6.504145058518592,-0.156831631413521,0.9379548574089261,-0.12149698652444996,7.017799443579627,-12.929165125978471,18.904458597704245
1760958417.421332,-6.412940079954519,-0.14303320112628987,0.9444287391939716,-0.12423488462772247,6.081138265657638,-13.83676935529791,14.540819483671978
1760958417.4313407,-6.326885491985567,-0.12631191750719625,0.9518209308740008,-0.12593031472301527,5.773002248500309,-14.509519050751127,11.193206203573386
1760958417.441194,-6.232028037553664,-0.10777055273449507,0.9590548918902612,-0.12719085341672706,6.019598511658779,-14.899276826762105,8.982262871160705
1760958417.4513233,-6.116737792434409,-0.08865039745408894,0.9653005536192605,-0.12868497510407342,6.721209369550335,-14.99549298313166,7.934489656321053
1760958417.4611511,-5.97242520355309,-0.07014642409563403,0.9700642869092488,-0.13097962765402238,7.7626084640957425,-14.823257540397476,7.988488773135488
1760958417.4713383,-5.79378378974832,-0.05322930011077002,0.9731900876081864,-0.13442209201341326,9.021492749578215,-14.43593913896496,9.007293476151506
1760958417.4813716,-5.578613300527887,-0.03851343594726909,0.9747928657160482,-0.13908379775332588,10.375103565358518,-13.903598855249289,10.795201142060627
1760958417.4912512,-5.327350898247168,-0.02620292030654435,0.9751590053489292,-0.14476830841787403,11.705666400135268,-13.29908054407014,13.117462283184535
1760958417.5013797,-5.042474965274756,-0.01612916432594916,0.9746493382941808,-0.15107284105439847,12.905343847133514,-12.684103617031292,15.72122800994408
1760958417.511365,-4.7279348484377755,-0.007867984790512712,0.973626674213919,-0.15748378999273926,13.881129090443228,-12.097717327547759,18.356263764803966
1760958417.5213704,-4.388706907219794,-0.0009006660227833186,0.9724130109099779,-0.16348257689746923,14.559692704900128,-11.549063990595949,20.794059770008808
1760958417.5314338,-4.030507806601932,0.005225479694683475,0.9712701612571542,-0.1686391860461124,14.891807704298923,-11.015607862941009,22.844099001647184
1760958417.5416253,-3.659636586732767,0.010774984324093715,0.9703942372947858,-0.17267640828029043,14.855707840723657,-10.447008890449897,24.36620220475156
1760958417.5513263,-3.282881771254055,0.015763131791690616,0.9699157990799387,-0.175496481555982,14.458631027067739,-9.773884374606288,25.278104140362206
1760958417.5613244,-2.9074211957861555,0.019961060227232503,0.9699004341642261,-0.17717122881203057,13.735904616182188,-8.919969534273797,25.55776573620884
1760958417.5714562,-2.540656354294513,0.022956971083425398,0.9703479588727447,-0.17790451270501395,12.747241736394855,-7.815734270162169,25.240376310681786
1760958417.5812488,-2.1899513100944916,0.02425374611676015,0.9711913524958519,-0.1779799711873872,11.57037406475595,-6.411357607848688,24.41048297074111
1760958417.591464,-1.8622789442312784,0.02338012469583046,0.9722982769503392,-0.17770715056805347,10.292642114556319,-4.687094393743123,23.190135923988567
1760958417.6014266,-1.5638081959625887,0.019993398886293857,0.9734789670398442,-0.17737636340457383,9.001574320957896,-2.6594652165641475,21.724308526064785
1760958417.6113508,-1.2994904358125516,0.013954752501578491,0.9745043939937472,-0.1772284274704608,7.7756926606837125,-0.38232506735711885,20.16509338480233
1760958417.6212533,-1.0727142848499465,0.005365255455599986,0.9751365165525776,-0.17744114406476763,6.676735137623922,2.0573457337088734,18.656261386104415
1760958417.6312637,-0.88509012930718,-0.005439108573770114,0.9751675230296181,-0.17813067247963604,5.744231368619799,4.5482618680764615,17.319696758733
1760958417.6414216,-0.7364002608839373,-0.017925369924638966,0.974459576795175,-0.17936313520447836,4.993000832168729,6.966906082745515,16.245001281587236
1760958417.6512508,-0.6247168574020338,-0.03142125643122318,0.9729742901274766,-0.181170065752098,4.413742560174159,9.191062093250421,15.483216245805757
1760958417.6613014,-0.5466575129844298,-0.0451788804391014,0.9707834171705252,-0.18356116497907485,3.9764999974710253,11.112900013801811,15.045174011553474
1760958417.671297,-0.49772511740522235,-0.05843377637946735,0.9680577122758944,-0.18652963274027348,3.6364492156652157,12.649921992794729,14.904498521105534
1760958417.6814327,-0.4726722769102222,-0.07045442689485405,0.9650371075289749,-0.1900486880689099,3.341195581517843,13.752553929476143,15.00476231784738
1760958417.6912313,-0.4658411314826494,-0.08058332200280864,0.9619902104522978,-0.19406155212662352,3.0385900009897497,14.407766914603434,15.269819167505602
1760958417.7013805,-0.4714503855966856,-0.08827325308822795,0.959173192346476,-0.19846974746465434,2.6840130083297686,14.638681186751125,15.615927330318545
1760958417.7114892,-0.48382264238797723,-0.09312112187402038,0.9567968807980773,-0.20312532233203293,2.2461513579842314,14.500562411530778,15.964039283247624
1760958417.7214684,-0.4975603159950239,-0.0948983276408928,0.9550069944014493,-0.2078316651782993,1.7105187790293506,14.073944438653456,16.250629488343876
1760958417.7313986,-0.5076860373686335,-0.09357436748776522,0.9538778788559659,-0.21235536726372592,1.0803217193408574,13.45580825951937,16.435681633702565
1760958417.7412658,-0.5097640061614116,-0.0893293069662463,0.9534166730989441,-0.21644851944197482,0.3746794573078339,12.74982066211978,16.506918613111498
1760958417.7514129,-0.5000124665958293,-0.08255060379536003,0.9535731244137166,-0.2198776082748252,-0.3753940142945955,12.05660239008854,16.479948301459572
1760958417.7613385,-0.4754061926029232,-0.07381043259265854,0.954250180599153,-0.22245293148146555,-1.1325102018887776,11.464880016743265,16.394607342807763
1760958417.771452,-0.43375645873654106,-0.06382203744098967,0.95531213148135,-0.22405206530969596,-1.8589814749408122,11.044205023196492,16.308299440247517
1760958417.7813578,-0.37374957347450594,-0.05337741530076314,0.9565899690020976,-0.22463249984220254,-2.522447606786776,10.839718956345948,16.287457078902264
1760958417.791643,-0.29492515837755634,-0.04327196040744531,0.9578861153361992,-0.22423156481856563,-3.1001554766778656,10.869226821790066,16.398374793106825
1760958417.8013618,-0.1975809480067054,-0.034223630892430565,0.9589814534924737,-0.2229551668734373,-3.5812447331790667,11.12263611198103,16.69858992586682
1760958417.8114858,-0.08260227740926163,-0.02679589205272412,0.9596474002133207,-0.2209593976614359,-3.9667575778533437,11.563642710802908,17.22977170538836
1760958417.8214028,0.04876698793963978,-0.021336141239017142,0.9596663250720707,-0.21843007335437478,-4.267530168558387,12.133400680340543,18.012771393933193
1760958417.8313963,0.1951734706133642,-0.01794197745232246,0.9588647598362238,-0.21556478590959813,-4.500565603373035,12.75579727386442,19.04513229065042
1760958417.8414865,0.3553727858095664,-0.016461597094462765,0.9571623062270116,-0.2125600323260289,-4.684820052778601,13.343871148951214,20.30101369313713
1760958417.851446,0.528377219987095,-0.016522440612826587,0.9546324619822373,-0.20960274903731038,-4.837433940875836,13.806880350404402,21.733211253191516
1760958417.8615034,0.7135190661285675,-0.017573465230578712,0.9515623801563016,-0.20686294660914137,-4.971263070968893,14.057570764737635,23.276802901354422
1760958417.8713627,0.910441018718929,-0.018928237351428324,0.9484921652630531,-0.20448391895333878,-5.0941821685912485,14.019308787510179,24.853916540920252
1760958417.8813562,1.119036679253858,-0.019804275144697372,0.9462135442116836,-0.20256826660754917,-5.210185573130709,13.632863620747333,26.379167270532676
1760958417.891326,1.3393646946183493,-0.019360874339031112,0.9457131118876924,-0.20116009969380394,-5.321919184406907,12.862668252380725,27.76539365843346
1760958417.901284,1.5715552903449466,-0.016740369628252986,0.9480567032130105,-0.20022541226331173,-5.434011589814653,11.702305096318607,28.929380984228224
1760958417.9112587,1.815721793650674,-0.011117233116972157,0.9542265660498107,-0.19963373634070175,-5.556455267937501,10.178778516274164,29.797270658306886
1760958417.9212878,2.071884162184138,-0.0017567670537925535,0.9649370485406763,-0.19914500347407404,-5.707314270259732,8.354933734427712,30.309338890206202
1760958417.931344,2.339906922656517,0.011918098477545583,0.9804627373640772,-0.19840601997652235,-5.914155840932207,6.32926241444785,30.423819268396226
1760958417.9414258,2.619450138654582,0.0302564151591731,1.000513126746867,-0.19696048909730388,-6.213740890396972,4.232400684900032,30.119457912358662
1760958417.9515512,2.9099298836486382,0.053312810155565306,1.024180445608553,-0.1942743302864859,-6.649617149948141,2.2199417128459134,29.396520030483416
1760958417.9615114,3.2104844578790694,0.08079512010028109,1.0499749164093652,-0.1897743860392385,-7.267410764693398,0.46173087555748177,28.276015963440152
1760958417.9711993,3.5199418198419337,0.1120358585869847,1.07594805992,-0.18289536902206716,-8.107967676773692,-0.871538190344713,26.79700658974291
1760958417.9812465,3.836779434272092,0.1459934795306393,1.0998922215384659,-0.17312917856203114,-9.199126212705313,-1.6230329201154803,25.01199068138968
1760958417.9912624,4.159060821548733,0.18128433789106407,1.119593990091508,-0.1600723274660965,-10.547635764600242,-1.6640612080299912,22.980538340393633
1760958418.0013173,4.484328213756286,0.21624275609332116,1.1331107930221485,-0.14346912919436125,-12.133232726428114,-0.9061638304009949,20.761489204960476
1760958418.011859,4.809432812481536,0.24900535088782458,1.139034387029628,-0.12324935318056102,-13.906850772829943,0.690446242023412,18.404222854806193
1760958418.0214279,5.13029714466512,0.2776166786977765,1.1367027089782609,-0.09955946177923727,-15.794275443059504,3.1130455805771096,15.939813939902393
1760958418.031433,5.441630514506531,0.30015609514939073,1.1263228196116968,-0.07278609628971555,-17.705363539854503,6.297490601941102,13.373315324622286
1760958418.0412953,5.736655752985198,0.3148882238490918,1.1089741213193343,-0.043568426901616726,-19.547524892115074,10.133957338761489,10.678811623259675
1760958418.0513442,6.006942045754318,0.32043812063302257,1.0864756234001742,-0.012792697331526966,-21.240884297752125,14.476527162153015,7.798984071635685
1760958418.061298,6.242457290585669,0.31598420735154237,1.0611252927136472,0.018439551260626984,-22.73175293220961,19.15542078477405,4.650530790957008
1760958418.071312,6.4319358024622355,0.3014440919660097,1.0353515208737434,0.04887505648940342,-24.000989295812513,23.990500167826607,1.1358872343704665
1760958418.0813425,6.5635923535989695,0.27760251027703436,1.0113486870001858,0.0772020839390025,-25.064644368773884,28.804729322794497,-2.8395881482908805
1760958418.091412,6.626113685299662,0.2461153155221932,0.990784510394821,0.10216449555940146,-25.965945355894686,33.43647851216263,-7.3472809281529265
1760958418.1014416,6.609764200203966,0.20934429458737175,0.9746492031987376,0.12268549565601694,-26.759941872256956,37.74965433297859,-12.415534172209266
1760958418.1113603,6.50739810085463,0.17003513633826461,0.9632663527006602,0.13798822325165555,-27.49442787787618,41.64062532908441,-18.014824303484346
1760958418.121357,6.315191451195788,0.13091093964971634,0.9564291358327832,0.1476949884846455,-28.19216778995397,45.0410341011325,-24.051787474938134
1760958418.1312492,6.032976450377736,0.09428026108605794,0.9535931835279582,0.15188211980282149,-28.839271979513303,47.91603849270358,-30.37405176473582
1760958418.141459,5.664146741922008,0.06174556132275169,0.9540589759249619,0.15107169221010475,-29.38277329431736,50.25821666792509,-36.78509164706574
1760958418.1519654,5.2151833602458915,0.03406243636151449,0.9571008800848683,0.14615633208428283,-29.73778025454452,52.07807521489802,-43.06585001687272
1760958418.1613643,4.69491130497358,0.011160344932407905,0.9620298462226284,0.1382704553725403,-29.802021282319068,53.39268588314115,-48.99854850068214
1760958418.1713734,4.113628110012027,-0.007699021253874809,0.9682003021616093,0.1286319513648389,-29.473926795138055,54.21440432336147,-54.38816840339659
1760958418.1814396,3.482245623304489,-0.023674400617437304,0.9749848840438681,0.11838218783342642,-28.669984507157146,54.54180738041082,-59.0782351033641
1760958418.1913345,2.8115592186398812,-0.03806854006919474,0.9817451873998589,0.10845330757400422,-27.33790951776798,54.35478005953492,-62.95928014538427
1760958418.2013032,2.111715248140147,-0.05207823652612891,0.9878243064614183,0.0994888072545148,-25.463806900085995,53.6149978840974,-65.97016948646822
1760958418.2113407,1.3918999094150049,-0.06660940549929627,0.9925761250313839,0.0918311387968598,-23.07333170432303,52.27195378335477,-68.09391124136384
1760958418.2214646,0.6602308767532071,-0.08217381830598387,0.99542859842578,0.08556970380248362,-20.228212203017538,50.273425021429716,-69.35029821485796
1760958418.2315223,-0.07619699955526742,-0.09886571151513464,0.9959622506482764,0.0806237075089225,-17.020009007266943,47.57823869530662,-69.78774671016579
1760958418.2414086,-0.8111768653025098,-0.11640588239826245,0.9939793054536324,0.07682624660149838,-13.562695544797824,44.16871973783926,-69.47612097558354
1760958418.2515028,-1.5392338782746966,-0.1342370070181973,0.9895433096264681,0.07398112389110725,-9.984998074855167,40.06042376742811,-68.50145562453983
1760958418.2613509,-2.2555074121337806,-0.15165279500936493,0.9829785205026133,0.07187843898753457,-6.422892954949777,35.30750614901877,-66.96259044677396
1760958418.271598,-2.955712314413253,-0.1679424398632655,0.9748285281322243,0.07027268953073833,-3.0124059830356744,30.003044785168246,-64.96903863138597
1760958418.2814355,-3.636194253031342,-0.18252988599971284,0.9657816767241825,0.06884181455455937,0.11721072145921212,24.274553905509748,-62.639057236710215
1760958418.2914782,-4.294064603821783,-0.19508443976612655,0.9565751313026576,0.0671529234058105,2.8499043434684994,18.27563301103281,-60.09690131870452
1760958418.301431,-4.927372148328145,-0.20557679691306874,0.9478909633828047,0.06465884168156072,5.088936767658047,12.175090518888007,-57.468534350092305
1760958418.3114758,-5.535249410067984,-0.21425870630711508,0.9402585678391443,0.06074066611268983,6.762856531520638,6.144968822079485,-54.87551397456652
1760958418.3215177,-6.117968817236673,-0.22156152688115335,0.9339785062193386,0.05479869224378106,7.831390563102759,0.34879010439567026,-52.4272964448341
1760958418.3317745,-6.6768619847216915,-0.2279363065763896,0.9290818080023711,0.04638094322114135,8.290936889500967,-5.068835760812747,-50.21276894096839
1760958418.3416007,-7.214090343133774,-0.2336830705208841,0.9253336194692148,0.03532738017915201,8.17875789679305,-9.990308108063973,-48.292352098863
1760958418.3515759,-7.732296973396381,-0.23882668002703644,0.9222810229818867,0.02189916200704815,7.574460287384832,-14.33016180012713,-46.692365471117135
1760958418.3614523,-8.234205806511255,-0.24308607456476566,0.9193357120280288,0.0068566464189638255,6.597243385935633,-18.036865940562514,-45.40333917617858
1760958418.3714125,-8.722254463286404,-0.24595661039666047,0.9158776345816735,-0.008549383067531358,5.397920331768067,-21.091317695886367,-44.3834613763184
1760958418.3814783,-9.198344124741979,-0.24689066170777035,0.9113667866539559,-0.022696239004200893,4.145803488126826,-23.502487860370362,-43.56738295842797
1760958418.3912752,-9.663764389959642,-0.24553119217409625,0.9054524722697526,-0.03381381599752259,3.0118243983317976,-25.301094422690458,-42.879361934758364
1760958418.4013507,-10.119310944966193,-0.24193634406045092,0.8980656880236673,-0.04027544231718812,2.1502178789347064,-26.53246575389175,-42.24858156328934
1760958418.4116633,-10.565570372658332,-0.23673468359972133,0.8894719875565813,-0.04088530127211778,1.6813971945254,-27.249830453091707,-41.6237928007591
1760958418.4215314,-11.003310164292968,-0.23116951710952643,0.8802625555038981,-0.03508709357709083,1.6783031438062699,-27.509142946386934,-40.98445614204
1760958418.4315224,-11.433890635385625,-0.22701983916198998,0.87127884894235,-0.023046112627946248,2.157781868206021,-27.36626647355391,-40.34630314820778
1760958418.4414713,-11.859612422872466,-0.2264128956517895,0.8634884492267955,-0.005602415944966183,3.0776901590895087,-26.876924189296602,-39.760446645702764
1760958418.451524,-12.283926425977901,-0.23155855628995048,0.8578386558642697,0.015871159108541172,4.339648564034916,-26.099315298528147,-39.30640431550803
1760958418.461388,-12.711455731732011,-0.24443810599839588,0.8551101223340648,0.03965996325150076,5.796849819917672,-25.098718739344154,-39.080281237536965
1760958418.4714928,-13.147803872932968,-0.26647736943599365,0.8557870769842305,0.06390668855055771,7.266155752380479,-23.952872025089178,-39.17974837968598
1760958418.4815092,-13.599146623981797,-0.29823370519409226,0.8599580481563945,0.08679010381382572,8.54375988890051,-22.756539405495698,-39.68746432100777
1760958418.4911878,-14.071625347097594,-0.33913056780582707,0.8672595239305004,0.10666827260976414,9.423746532589533,-21.62354992953653,-40.654436351520026
1760958418.5014415,-14.570580255783435,-0.38727954986957563,0.8768727567380663,0.12218397995555551,9.718775611490088,-20.684723642920357,-42.084714474332
1760958418.51142,-15.09968280196902,-0.43943377959141516,0.8875795311389407,0.13233971839011296,9.281791632373428,-20.08053436904182,-43.92287805399907
1760958418.5213892,-15.66004769796255,-0.49111478529200675,0.8978756140208126,0.13655295465497932,8.027124551316204,-19.948092760531505,-46.045996912695024
1760958418.5315204,-16.249426541718705,-0.5369448962381146,0.9061328210019735,0.1346987895391457,5.948753433615074,-20.403041102425572,-48.26198982206034
1760958418.5413263,-16.861604818982272,-0.5711956495455152,0.9107942622701508,0.1271394377440883,3.133018448685303,-21.518132023074024,-50.3163484244427
1760958418.551424,-17.486136156110405,-0.5885254764335847,0.9105808191511707,0.11473204846876722,-0.23714939912571228,-23.30145413323236,-51.90879252786858
1760958418.5614376,-18.108541279956484,-0.5848258611876882,0.9046768768253368,0.09880040256755324,-3.889206851267639,-25.678246797957918,-52.72033182613228
1760958418.5714636,-18.711062203718953,-0.558033565294121,0.892851891074422,0.08105351269988494,-7.481078980585565,-28.480733119331585,-52.449288069372464
1760958418.5817437,-19.27398779126779,-0.5087251440621476,0.8754741463143761,0.06343790308493855,-10.6345325736894,-31.450084947573963,-50.85222601687133
1760958418.5915644,-19.777460243284978,-0.44032505944824574,0.8534002671473798,0.04792349704079818,-12.979358166700157,-34.253275788603865,-47.783119933593966
1760958418.6014235,-20.20355412437054,-0.35884127744858985,0.8277779681971683,0.03624599357676613,-14.202590063191531,-36.51517409156121,-43.222601322908645
1760958418.6114526,-20.538322429521454,-0.2721574915369921,0.7998492414255786,0.029654408490771195,-14.094169030574944,-37.86313573969736,-37.28984756162472
1760958418.621346,-20.773460155134778,-0.18900584503082987,0.7708451000287116,0.02872597600154756,-12.579578636597097,-37.97821196565939,-30.2327886104908
1760958418.631449,-20.907266542132064,-0.11779359639463788,0.742010492288893,0.03329902276370971,-9.732009857278785,-36.644650089360105,-22.397009052028526
1760958418.6415124,-20.944695753297726,-0.06547300856976958,0.714725285804351,0.04254083201496083,-5.761119492812989,-33.78839002942783,-14.178605489984397
1760958418.6513252,-20.896452689487486,-0.03663835599204221,0.690642998097901,0.055129552262259886,-0.9808602500417474,-29.496355952350488,-5.969959150879528
1760958418.6613624,-20.77727714453369,-0.03299960059564661,0.6717702520221615,0.06950302952269634,4.236644544263471,-24.011588750549237,1.8910153569234447
1760958418.6713252,-20.603719723260593,-0.05331196028288288,0.6604398947941545,0.08411746485430432,9.511855982921354,-17.70396022827359,9.158409302935096
1760958418.6813855,-20.391809046824704,-0.09375053474738476,0.6591662394293943,0.09766236968941647,14.503988002994072,-11.021122832047826,15.695902312936644
1760958418.6913207,-20.15502271148883,-0.14863775135556834,0.6703973844419249,0.1091928624550252,18.945439592752862,-4.428240178532721,21.472008346870965
1760958418.7013834,-19.902906467086247,-0.21137730821793432,0.6961909441042077,0.11816343540237609,22.660415856286928,1.6529680743338235,26.535262871071982
1760958418.7112546,-19.64055450707041,-0.27542597383369516,0.7378413865266384,0.12437375235743647,25.566863784807467,6.8955685169199015,30.975570731469375
1760958418.7213368,-19.36899399714676,-0.33514154458121204,0.7954942295250116,0.12785905791058183,27.663664374061476,11.100989734656782,34.88044379500277
1760958418.7315261,-19.086340626096067,-0.3863777784494354,0.8678015771286214,0.12876816553244713,29.00725011212683,14.210032687702112,38.29556499003384
1760958418.7414548,-18.789444535034157,-0.42675029571177103,0.9516945970649988,0.12726769708781388,29.68331658733223,16.29040656903537,41.198019190637105
1760958418.7514186,-18.475657819121675,-0.4555618673825739,1.0423554820240064,0.12349503235949699,29.77986568504307,17.503797947080752,43.487965045421014
1760958418.761286,-18.14434202717635,-0.4734382563942049,1.133456768829903,0.1175617009991476,29.367291254614866,18.058961240905525,45.00102789107312
1760958418.771385,-17.797796691145873,-0.4817759966339342,1.2177003627245155,0.1095915487516398,28.489622081854808,18.15985708206965,45.539863293340474
1760958418.7815726,-17.44141455902146,-0.482135060453822,1.2876335938474701,0.09976722716821436,27.16859367411914,17.958984982144074,44.91970743707302
1760958418.791326,-17.08303232657418,-0.4757180477712477,1.336648783392269,0.08835329228308035,25.419288257829326,17.52544267847108,43.019759403330866
1760958418.8013265,-16.73161617814257,-0.46305887261358325,1.3600019392730625,0.07566594684102947,23.27316580921659,16.83479966564566,39.83039248396155
1760958418.8112726,-16.395564621830836,-0.44399532216946497,1.3556431640198379,0.06197618315868305,20.802069452560627,15.783695282226955,35.48598252072323
1760958418.8212957,-16.080994614113838,-0.4179245331476071,1.324660620759651,0.04736898615595133,18.135919677311577,14.226595055733622,30.275025227637375
1760958418.8312876,-15.790378339057769,-0.38425335804094757,1.2712090392924624,0.031622476966926154,15.46777510940738,12.026448945719899,24.623257653370057
1760958418.841579,-15.52181274550687,-0.34288806664664356,1.2019093570373414,0.01418919896985781,13.04268263209514,9.106810465121626,19.051052183847887
1760958418.851345,-15.269052327121237,-0.29459552743789347,1.1248336687440144,-0.005664110127006206,11.13059778403778,5.491969593554939,14.111983692584307
1760958418.8614554,-15.022261826280399,-0.24112281741302155,1.048285098049749,-0.02856841856762513,9.98757443924154,1.3245505925565761,10.3234043652924
1760958418.8715003,-14.769303127293728,-0.1850570651064281,0.9796163033182057,-0.05470302308099984,9.812423887528986,-3.143922184936786,8.100911683635237
1760958418.881427,-14.497298107575393,-0.1294936310123252,0.9243012663322571,-0.0835170936262755,10.707517508764655,-7.5868379008837925,7.70687717309304
1760958418.891326,-14.194211706097224,-0.07762224569970239,0.8854000856384246,-0.11363966624131354,12.652059105757493,-11.652215001140235,9.219807786288712
1760958418.9013488,-13.85025225777628,-0.03233405570024503,0.8634620282555968,-0.1430270705445246,15.493931110047221,-15.016932713592231,12.527386180831746
1760958418.9114695,-13.45895679673536,0.004081299889410306,0.8568253551041729,-0.1693107084046333,18.96249672688647,-17.434330397121993,17.34232305166783
1760958418.9213643,-13.017895586237593,0.03011809218724174,0.8622102990430556,-0.19024574691183493,22.700449065252467,-18.766689677861052,23.237128630253157
1760958418.9316478,-12.52898276999824,0.045117247350104764,0.875467546647383,-0.20414263585979836,26.309113331901898,-18.998153035471525,29.691918535568554
1760958418.9413724,-11.998414807277586,0.04922940553363339,0.8923377569207638,-0.21018130071110802,29.399387475619022,-18.227977411887718,36.148549989612405
1760958418.95131,-11.43627496363686,0.04330507228518115,0.9090969320702208,-0.20854424961017268,31.640019149955744,-16.64771655921548,42.06461399876837
1760958418.9613569,-10.855845733396004,0.02873928584187588,0.9230018390525716,-0.20034831684156518,32.79598835197412,-14.508297405532078,46.961806577480274
1760958418.9712687,-10.272670944557929,0.007299673666843678,0.932497932994528,-0.18740121436971854,32.75201381204091,-12.083724826459624,50.46466253370009
1760958418.9813046,-9.70341389972321,-0.019033019437931474,0.9371992173236579,-0.17185015845511803,31.519108381873,-9.637444482666725,52.327259867535204
1760958418.9913507,-9.164571998179811,-0.048192933867557367,0.9376885748650018,-0.15581143768439626,29.225028301219357,-7.395679579277372,52.44698516943762
1760958419.0013392,-8.671132262669582,-0.07812734768615033,0.9352112597804453,-0.1410638361908618,26.091767248139348,-5.529953791128206,50.865561178436394
1760958419.0113575,-8.235280400002958,-0.10688336329703393,0.9313361909740493,-0.12886049699843666,22.404575340906668,-4.149073337273744,47.75826202278387
1760958419.021553,-7.865296847021945,-0.13269936810697983,0.9276413083734261,-0.11987598312657902,18.477346983201656,-3.2994238715550224,43.41277430553356
1760958419.0314832,-7.564774192062903,-0.15410156408439993,0.9254556380778466,-0.11427050863987678,14.618876016527445,-2.9716705373736643,38.19972680243425
1760958419.0413442,-7.332264024180526,-0.16999149489698645,0.9256766015839566,-0.11182982553032758,11.10369124508417,-3.111750188882879,32.53756406843639
1760958419.051377,-7.161408192271452,-0.1797063017922714,0.9286756834144436,-0.11213026233403442,8.150122215870429,-3.634190284118365,26.85501711050924
1760958419.061387,-7.04153929286716,-0.1830369202520572,0.9342980750748785,-0.11468337430529806,5.907010900688822,-4.436039282601832,21.554689985753125
1760958419.0713773,-6.958666087594597,-0.18019757882133525,0.9419480851274612,-0.11903053443606308,4.449215681324276,-5.409923795549758,16.981105917272924
1760958419.0816314,-6.896711299232422,-0.17175170369632034,0.9507371277885104,-0.12477897185108278,3.780913676440237,-6.454989744743546,13.395953235463594
1760958419.0917163,-6.838852150864739,-0.15851043961627842,0.9596610710846069,-0.13159016154225853,3.8448548018196664,-7.484825291318419,10.962342930077572
1760958419.10137,-6.768824439670223,-0.14142494127485272,0.9677715639712079,-0.13914331816847253,4.535300308453547,-8.431904865238977,9.73881415514446
1760958419.1113937,-6.672078188268306,-0.12149138863272602,0.9743121449459515,-0.14709877513614317,5.7124674860842415,-9.248542436667996,9.682804059276652
1760958419.121385,-6.536707388695373,-0.09968124168441021,0.9788021297768423,-0.15507980155435297,7.216820212491768,-9.904723074538143,10.662460079313114
1760958419.1318285,-6.354110402412166,-0.07690087554238338,0.9810645286994718,-0.16268083821479656,8.882243748088268,-10.383506092399298,12.475049515783303
1760958419.1413984,-6.119365521571537,-0.053976260992914464,0.9812042289398966,-0.1694993168902583,10.54772312845687,-10.674996991309458,14.869812994144878
1760958419.151501,-5.831328407087548,-0.03165367519328386,0.9795488377479572,-0.17518047559134828,12.067424254657949,-10.770140490779621,17.57291871101833
1760958419.1615314,-5.492478987935175,-0.010608739105476906,0.976568287146845,-0.17946179956504613,13.31907756293059,-10.65568704784852,20.312207486234293
1760958419.1713104,-5.108563192636866,0.008540942344920385,0.9727901984264418,-0.18220541161386752,14.210449000917087,-10.31152079619958,22.83965557142108
1760958419.18138,-4.6880816946506325,0.02522458929099957,0.9687253576587497,-0.18341095812811983,14.6836025610105,-9.71108714811792,24.949865924580223
1760958419.1914885,-4.241671940806709,0.03891531141119241,0.9648128077979696,-0.18320686019868437,14.716670656657493,-8.82501218575386,26.493368358231173
1760958419.2015493,-3.781418749814571,0.049141166677276846,0.9613883553531619,-0.18182316682620786,14.3229494972031,-7.627309173443212,27.384031041363077
1760958419.2115371,-3.320120778442777,0.05551194781551644,0.9586740620625661,-0.17955321617756573,13.54730964334727,-6.102972936734128,27.60042849783365
1760958419.2215614,-2.8705384964586065,0.057758503303185396,0.9567814670834337,-0.17671285308406753,12.460139303629909,-4.255404981501853,27.18152262314353
1760958419.2314823,-2.4446539355747925,0.0557768638513064,0.9557207263162716,-0.17360519660710705,11.149294541491624,-2.112078335040897,26.21744622341715
1760958419.2414036,-2.0529807578717643,0.049666683321627665,0.955411584055486,-0.1704966503446278,9.710780424979276,0.27284616117795957,24.836516055912423
1760958419.2516413,-1.7039706148619453,0.039753683463389235,0.955696947420845,-0.16760670814872497,8.239086860481105,2.8196696346179824,23.18985248305121
1760958419.2613637,-1.4035640386079382,0.02658865170308721,0.9563625306176934,-0.165110728084566,6.818206382843355,5.428087272124149,21.435150700646332
1760958419.2713325,-1.1549280831761122,0.010920156720000431,0.9571651901090309,-0.16315178241373698,5.5143268269352745,7.985257757494349,19.721206672886698
1760958419.2813978,-0.95840658881061,-0.006356151441258179,0.9578688297405424,-0.16185552643422438,4.371001964029182,10.375882672328654,18.17470252065649
1760958419.2914221,-0.8116834089506149,-0.024263442615473637,0.958282291219105,-0.16134150888361834,3.407281915608006,12.492923731262321,16.89048132111267
1760958419.3013349,-0.7101308678071683,-0.04181415143475547,0.9582910564615156,-0.16172602167320407,2.6188866238806754,14.247578015692486,15.926113348338566
1760958419.3114274,-0.6472943319928649,-0.058075949695304344,0.9578752091206568,-0.16311501278897325,1.9820924068708499,15.57733357059368,15.301025773346085
1760958419.3215194,-0.6154542228269472,-0.07222800403411195,0.9571092674148116,-0.1655892249606728,1.4596400711551634,16.45127656009404,14.99991006306519
1760958419.3314567,-0.6062078488378724,-0.08360531744058196,0.9561437113689358,-0.16918600597972205,1.007726086144638,16.87222388251351,14.979625092803401
1760958419.3414514,-0.611021196834677,-0.09173034321859565,0.9551722367489963,-0.17388259650410673,0.5830438747093372,16.87563656998846,15.178453664690178
1760958419.351441,-0.6217119985169488,-0.09633148500141159,0.9543920793858885,-0.17958453014903422,0.14890408993734597,16.525592881060017,15.526384167060627
1760958419.3613918,-0.6308377855607771,-0.09734831822968713,0.9539660485616406,-0.18612086677802014,-0.3203400005886361,15.908352579869602,15.955083938022272
1760958419.3713725,-0.6319750877287243,-0.09492394284919052,0.9539937006223698,-0.19324622648193673,-0.8370386032633841,15.124222220128308,16.40639220026382
1760958419.3814502,-0.6198880791776219,-0.08938606479408417,0.9544961787685233,-0.20064878277230136,-1.400287172805522,14.278532624481313,16.838459245156784
1760958419.3914268,-0.5905963384937182,-0.08121977041051398,0.9554160753559152,-0.20796366458510124,-1.9980296078794466,13.472558603642058,17.229049292022765
1760958419.4014516,-0.541360340975984,-0.07103552101307248,0.9566310360639,-0.21479196768536066,-2.610673889930115,12.795148062944433,17.575942454659952
1760958419.411323,-0.4706075257863674,-0.05953496502912657,0.9579775440461291,-0.22072592302336785,-3.215452414502678,12.315696912111324,17.89474432251138
1760958419.4216435,-0.3778202506509855,-0.04747517147966471,0.9592794057594612,-0.22538022480419193,-3.790682301070273,12.07893367439245,18.214683569785443
1760958419.431768,-0.26340127217703113,-0.035630087597420514,0.960374791528901,-0.22842809872036487,-4.319165254945174,12.101797989690784,18.573124169150052
1760958419.4414458,-0.12852530911689203,-0.024747193087955664,0.9611368255523127,-0.22963881357205493,-4.790198134774637,12.372538543013293,19.009543610205768
1760958419.4514132,0.02502171984046376,-0.015497258102984053,0.9614850306250318,-0.22891160433842772,-5.200006416719467,12.852020896862811,19.55965224241475
1760958419.4613752,0.19502047737326295,-0.008415665264576386,0.9613877120650828,-0.22629984143738754,-5.550803880398113,13.477106532074016,20.25018083888815
1760958419.4714315,0.3790214550823909,-0.0038358336015331326,0.9608587849257911,-0.2220191497906875,-5.849033795804301,14.165833634728498,21.094688189702097
1760958419.4813511,0.5745793882624503,-0.0018202816360858053,0.9599562302558776,-0.21643475103587206,-6.103546189141279,14.824020773157713,22.09059598599346
1760958419.491373,0.779511760758779,-0.0021024954692145897,0.9587907895859293,-0.21002706110213454,-6.324419020922559,15.352862198222452,23.21758521175016
1760958419.501576,0.9921538523196298,-0.004058757663378063,0.9575495223113483,-0.20333931782550316,-6.522830576650838,15.657096382213718,24.437473782135122
1760958419.5114,1.2115652576687523,-0.006727357395431165,0.9565295132600173,-0.19691402320911464,-6.7119416234841855,15.653372657712302,25.695680361337978
1760958419.5215533,1.4376393395610687,-0.008882544344135445,0.9561674249154004,-0.19122515661308245,-6.908327206767219,15.278460642722157,26.924309610641536
1760958419.5314105,1.6710786152565278,-0.009158915156897535,0.9570473675583411,-0.18661255986964634,-7.133274098581815,14.496901811759942,28.046754029515224
1760958419.5413404,1.9132185484799789,-0.006213926069639233,0.9598747119091698,-0.18322579384034357,-7.413294756071758,13.30757546513259,28.98351386161135
1760958419.5515878,2.165705371431163,0.0010898346113813585,0.9654129128628236,-0.18098629278227413,-7.779435512477456,11.748463805082336,29.658724525896865
1760958419.5614953,2.4300610305063146,0.013507882322017873,0.97438881993561,-0.1795762956880713,-8.26523658673615,9.898731740495295,30.006705415657887
1760958419.5716157,2.7071979463360356,0.03127297036649684,0.9873772671381571,-0.17845939114403614,-8.903425432726701,7.877213310292162,29.977768745152122
1760958419.581453,2.9969690781432,0.05401864377326824,1.0046790020603051,-0.17693134116513898,-9.721581109121031,5.8366341755391975,29.542586213985217
1760958419.5913045,3.29784418959864,0.08078534690040712,1.0262087198240957,-0.1741937577884989,-10.737159431082992,3.9534296362492944,28.694577252676158
1760958419.6012847,3.606785389436915,0.11011135501198023,1.0514123036519178,-0.16943961694936555,-11.952469559366797,2.4137503150986377,27.449987404173395
1760958419.611336,3.9193550193426576,0.1401938932603126,1.0792330643045223,-0.1619386160184493,-13.350425281451722,1.3970025454959631,25.8455088720467
1760958419.6213665,4.2300351706761345,0.16909235651607837,1.1081438028584776,-0.1511110610832814,-14.892085193141693,1.0588471546305978,23.93344040630923
1760958419.6313417,4.532685798788531,0.19493969661105628,1.1362534136380136,-0.13658179878981302,-16.517049653923934,1.51581776836104,21.774533416994295
1760958419.6414373,4.821034593592151,0.2161309281818875,1.1614837848319648,-0.11821137386968013,-18.1475952367801,2.833544028154831,19.428915412159405
1760958419.651303,5.089087260963629,0.23146614816749572,1.1817972493942497,-0.0961082530570703,-19.69691641537214,5.020028015148977,16.945891117103706
1760958419.6614707,5.331372594561732,0.24023542028353853,1.1954405820496952,-0.07063005668387586,-21.08100201917133,8.02467960202203,14.353964141806507
1760958419.6715052,5.54298543158505,0.24224275100366766,1.201163409557489,-0.04238091754870572,-22.232612689995204,11.74304809394505,11.652934524310844
1760958419.6814957,5.719449402348159,0.23777589677550312,1.1983714903221991,-0.01220649515603137,-23.114788911908786,16.026530455472702,8.810160299022838
1760958419.6913474,5.856474414692972,0.22753662452554288,1.1871894665041138,0.018819612178890582,-23.73064686078114,20.69585639152142,5.762794318019072
1760958419.7013226,5.949716399568268,0.2125496956099424,1.1684283246867568,0.04943000933513593,-24.126253632446723,25.556847109653308,2.4269257657555263
1760958419.7114806,5.994649007374337,0.1940650441584427,1.1434721711492988,0.07823016064916125,-24.38435095199882,30.41678460401086,-1.2868540021690025
1760958419.7213197,5.986625078102098,0.1734558952691805,1.1141122507843073,0.10380403857696134,-24.608644800322036,35.09966789770053,-5.453643057577128
1760958419.7318242,5.921146069694961,0.15210368736679128,1.0823620400075353,0.12485713370287281,-24.90097810428837,39.458651819088104,-10.11390962519726
1760958419.7414904,5.794289888184666,0.13126182981403328,1.050283694740663,0.14038453675499807,-25.33619181651419,43.38413687993638,-15.257154815336065
1760958419.7516172,5.603198551109766,0.11190832827703422,1.0198419851428149,0.14983632388031592,-25.94083609700819,46.80643700836001,-20.81349894000623
1760958419.7615993,5.346514525755132,0.0946189165951537,0.992783464637625,0.1532367465739692,-26.681369509331134,49.69271232968796,-26.655298856903524
1760958419.7716727,5.024676889796554,0.07950020725343104,0.9705281066753532,0.15121114025775667,-27.465104528295612,52.03876611499577,-32.6084419605529
1760958419.7814152,4.640030484249495,0.06621033174219712,0.9540652663566361,0.14489453772379512,-28.15376463477565,53.857180987817365,-38.47074731404526
1760958419.7916543,4.196745567198489,0.05406836142624769,0.9438621014531399,0.13573343548508984,-28.5863327230386,55.1639722290812,-44.033581648944924
1760958419.8016021,3.7005796763142547,0.04222547380883818,0.9398087244996839,0.12522945931253254,-28.605881168730342,55.96634465765797,-49.10260242368296
1760958419.8115566,3.158532430107694,0.029853338600313965,0.9412272363892333,0.11469202190375104,-28.08466799984263,56.25412700571331,-53.51432309492238
1760958419.8214014,2.5784489819382834,0.016305412331623453,0.9469570683989484,0.10505913534730467,-26.94281213381429,55.996925807487585,-57.14657884958668
1760958419.8323376,1.9686224756784825,0.0012212859182448358,0.9555059769150381,0.0968197972161044,-25.15787598217504,55.14797111162686,-59.92253058186316
1760958419.84149,1.3374336278481702,-0.015436481004509476,0.9652384458995906,0.09004215577402416,-22.765044562768516,53.65414743777464,-61.809205809815566
1760958419.8514383,0.6930490615903073,-0.03340748076772483,0.9745677814702342,0.08448768289115113,-19.849571596313076,51.47014401517364,-62.81245672218985
1760958419.8613865,0.0431817852643873,-0.052205347102753624,0.9821233088277739,0.07977506650215203,-16.534263717978867,48.57348557868227,-62.9704881751713
1760958419.8714657,-0.6050985367791227,-0.07121719891213656,0.9868747836377175,0.07554907513753653,-12.964953245653438,44.976843480632944,-62.347802473816515
1760958419.8815958,-1.2455257244560463,-0.089810637852364,0.9882066109290539,0.07161088219693927,-9.29644700144132,40.734665636667955,-61.030667910888006
1760958419.89151,-1.8727850937585828,-0.10743038571796898,0.9859410876573886,0.06797867954883945,-5.680629084356146,35.9426297248478,-59.1242692015743
1760958419.9015563,-2.48265602391649,-0.12367240067405022,0.9803131709865079,0.06486843581336592,-2.2574564900965393,30.730209147333085,-56.75082348272904
1760958419.9114292,-3.0721423718200467,-0.1383302676253651,0.9719016475105542,0.06260713195549823,0.8512624300537381,25.248151148008855,-54.047426028117236
1760958419.9215553,-3.6395721479121224,-0.1514116949502561,0.9615246596279738,0.06150702068529368,3.54595877558063,19.653516467355843,-51.16238178981942
1760958419.9314682,-4.184639322672924,-0.163121163802441,0.9501121938476847,0.06173607058239534,5.7520650039400145,14.095038366927568,-48.249219999629965
1760958419.9416223,-4.708357270311464,-0.1738042724041635,0.9385739293855224,0.06321821059643032,7.42209613919936,8.701070779472344,-45.45825895527222
1760958419.951505,-5.212898830211844,-0.18385674537680077,0.9276846437029664,0.06559016622620939,8.537381029209199,3.5715753500753515,-42.92628069906037
1760958419.9613698,-5.701315845758355,-0.19361584609044896,0.9180070577497648,0.068230621697548,9.109380546462704,-1.2252983948452978,-40.76548827150207
1760958419.9715195,-6.177160025400323,-0.20326527836601757,0.9098620845340012,0.07036175584242589,9.180129195202657,-5.652292383014126,-39.05339800645079
1760958419.9820635,-6.64405745135697,-0.21278561440177557,0.9033414662713106,0.07120463395197758,8.82104016863415,-9.698642647060383,-37.82557330957128
1760958419.9917269,-7.1053065219719285,-0.2219667241747793,0.8983443867606653,0.07015372595174939,8.129271861131034,-13.373396857491683,-37.072982786602786
1760958420.001638,-7.5635644260461365,-0.23047467901132027,0.8946167899376132,0.06692786218987468,7.221197598947015,-16.697668196115263,-36.745137618046485
1760958420.0115857,-8.02066399592024,-0.23794756790348398,0.8917838391673683,0.06165912942481642,6.223236576010695,-19.696878075986127,-36.7590716746361
1760958420.021388,-8.477573164034808,-0.244090994052205,0.8893841026863187,0.054897963076406535,5.261135383252195,-22.39380905133568,-37.012944776779705
1760958420.0313473,-8.934484286552786,-0.24875250051778597,0.8869236578809324,0.047536762840088044,4.449330486649076,-24.803064255654135,-37.40197829659093
1760958420.041408,-9.391005429109695,-0.2519676545951562,0.8839619905087452,0.04067546048396659,3.8819804089227317,-26.927322723920184,-37.83392351069664
1760958420.0514157,-9.846420391707065,-0.2539821536108824,0.8802251531676958,0.03546181912150194,3.62665008540515,-28.75562581246117,-38.24146635301677
1760958420.0613832,-10.299985569126711,-0.2552590100214143,0.8757259695962708,0.032935936014184014,3.720763988601261,-30.263870366043793,-38.589789522292065
1760958420.0714588,-10.751235418660169,-0.25647635348168507,0.8708629832563191,0.03389835848069293,4.170218532532841,-31.417686887777656,-38.87865788838334
1760958420.0818355,-11.200271065990801,-0.2585129767046877,0.8664703016304294,0.03881116041878091,4.949242814920186,-32.17783721716713,-39.1395074439452
1760958420.0914662,-11.648006556869126,-0.2624103886856739,0.8637967661068434,0.047734886367075874,6.000788738081715,-32.50807077327833,-39.428783949272365
1760958420.1013503,-12.096344370539992,-0.269296115858599,0.864402234483417,0.06030162746270171,7.237289654861832,-32.385000618613844,-39.81901648152011
1760958420.1115732,-12.548248642278102,-0.28025661538695523,0.8699706544296689,0.0757239183925905,8.542307146367747,-31.809064202485544,-40.38885805385188
1760958420.1213748,-13.00768477863302,-0.29615966508360786,0.8820537173869092,0.09283892864036154,9.774118598171952,-30.815143529164136,-41.212809293457866
1760958420.1314147,-13.479399360486047,-0.31744115263442046,0.9017725458989881,0.11018689435641557,10.772475008993974,-29.48105981861097,-42.35085519369203
1760958420.1413167,-13.968523799427754,-0.34388432857324913,0.9295148947886018,0.12612193332330435,11.369499474323847,-27.93201029223269,-43.83801060426695
1760958420.1514688,-14.479999258031567,-0.37442861143488476,0.964671556624796,0.13895235523544236,11.405066425613887,-26.339123789890735,-45.67388620768233
1760958420.1615193,-15.01784100987983,-0.40705086293113596,1.0054603430591467,0.1471059348979608,10.746141730363203,-24.910709484009008,-47.8128365335741
1760958420.171371,-15.584289916148212,-0.4387652717616547,1.048889534255939,0.149312277057138,9.308593539274993,-23.875491155644387,-50.15591607999436
1760958420.1814847,-16.17893628976152,-0.4657862172941583,1.090910705962307,0.1447883863503047,7.07897314438898,-23.458179557137957,-52.54654991189533
1760958420.1914465,-16.79794122714386,-0.48388609356923007,1.126796422930534,0.13340591478292216,4.1328094099503145,-23.849109988350012,-54.77227351528107
1760958420.201318,-17.433511178343167,-0.48895057478043374,1.1517457848459198,0.1158123739729769,0.6452619351113387,-25.17123691296843,-56.57484452017872
1760958420.2114873,-18.073788978894186,-0.47768495997846483,1.1616672826452483,0.09347571295900774,-3.1101506609505085,-27.44928091300507,-57.67023078743135
1760958420.2214787,-18.703296684352832,-0.44836372832155835,1.1540143761371648,0.06862184219343777,-6.77822585409623,-30.586878163490876,-57.77829588457111
1760958420.2314532,-19.30399619460859,-0.40145884020834705,1.128467818238517,0.04404114129571417,-9.95556077349755,-34.35768642102304,-56.6595366674067
1760958420.2413914,-19.856925368025347,-0.339959739444936,1.0872180569077485,0.022761755976560112,-12.238787240514982,-38.41508432311189,-54.15351269599084
1760958420.2513335,-20.344235624472372,-0.26924017729574873,1.0346770757900814,0.0076275824200246565,-13.281158911991412,-42.322244714287244,-50.21165289661773
1760958420.2615664,-20.751334372510524,-0.19643656855806504,0.9766563186573296,0.0008609197467519435,-12.847335275352776,-45.600440081780626,-44.916974311211085
1760958420.2714636,-21.068765158325633,-0.12943699384747387,0.9192643692222963,0.0037073570745808655,-10.854933075702183,-47.78936506808003,-38.485243342684136
1760958420.2815444,-21.293473345263994,-0.07568254063851526,0.8678515864526973,0.016241081721287257,-7.393598818678582,-48.51003499650374,-31.24566334628844
1760958420.2913713,-21.429207179012565,-0.041024156092832914,0.8262437062682007,0.037363168364328736,-2.717264829447681,-47.519313952243195,-23.603262364850114
1760958420.3015156,-21.48596211421436,-0.028857044234633564,0.7963682667529182,0.0649758307797065,2.788945760462613,-44.745966014072586,-15.988821744765435
1760958420.311582,-21.47854542113679,-0.03968190134928656,0.7782699474465173,0.0962803205787275,8.660770858932157,-40.30139779799368,-8.804630954694934
1760958420.3215866,-21.42448194623426,-0.07114243647639718,0.7704461386167267,0.12813219333331002,14.416397760347074,-34.4632639928346,-2.3750421803476818
1760958420.3314247,-21.34158168269967,-0.11849528354686337,0.7703995697082113,0.15739372941269503,19.617302024499143,-27.635477349650355,3.090316430848092
1760958420.3414204,-21.245539156229782,-0.17540481520051943,0.775291423467568,0.18124346997745258,23.9191218553156,-20.29243459783701,7.515319264071201
1760958420.3515236,-21.147929511743033,-0.23492292451872976,0.7825800025969193,0.19742599156661367,27.105887174651222,-12.917487050116506,10.956047930343264
1760958420.3614755,-21.05490217426318,-0.29050088304413446,0.7905424549364161,0.20443869187098987,29.104254540271217,-5.945670919916645,13.580725117735202
1760958420.3715825,-20.966754358437008,-0.3368807116015957,0.7985986786237323,0.2016524769889183,29.977783920174826,0.2811175312828141,15.634975142451362
1760958420.3813965,-20.878416006658256,-0.3707337041326824,0.8073877188565949,0.1893576788130229,29.90413373377699,5.5412702065555175,17.398286618763787
1760958420.3913665,-20.780730018315577,-0.3909598815661823,0.8185873594804896,0.16872717356392553,29.140000233055034,9.741027033318616,19.138199894944112
1760958420.4014807,-20.66229725745187,-0.39862527652596547,0.8345125624237492,0.14169949360349252,27.979551816262823,12.903577971810764,21.068425242687788
1760958420.4114702,-20.511589187418952,-0.3965749318574601,0.8575685857924629,0.11079648649383525,26.71209367570784,15.143221237899251,23.316129206667103
1760958420.4214058,-20.319012317002805,-0.3888040487197571,0.8896600848345217,0.07889185782973376,25.584052644192482,16.629702395001633,25.902305415647593
1760958420.4314592,-20.078631303035657,-0.37969444002683456,0.9316630049618211,0.048942653627017885,24.76944821694911,17.548698462604623,28.7376359630793
1760958420.4413562,-19.789313164522373,-0.373231100821864,0.98305273383226,0.023698205151099692,24.351963533408494,18.064462628981644,31.634570874209253
1760958420.4513905,-19.45513551744905,-0.37230822956700105,1.0417548322127559,0.005411904652651917,24.320484332413653,18.289910249193653,34.334500440892555
1760958420.4613016,-19.085000068184623,-0.3782200327281396,1.1042502037506599,-0.00440989586726668,24.578465383634217,18.26806702490269,36.546949208139516
1760958420.4713037,-18.691502499399974,-0.3904131193876033,1.1659313924551655,-0.005187720063605576,24.96579075721338,17.96713673539056,37.99585989593252
1760958420.4813795,-18.289221541850107,-0.406552087686556,1.221673520307617,0.0026478666280471143,25.2901141339772,17.289770224649807,38.46651127889564
1760958420.4913158,-17.89268560096199,-0.42290858497029205,1.266547919590914,0.017680430950866338,25.36323605058688,16.095526185551044,37.845769219630306
1760958420.5013168,-17.514332450871954,-0.4350220258555428,1.2965655284068713,0.037632762334966145,25.037119169813522,14.233907537175615,36.148638349380555
1760958420.5116382,-17.162780755256417,-0.4385119492237233,1.3093025682424213,0.05957385880680466,24.233841544472366,11.583591567694034,33.52582274344202
1760958420.5214164,-16.841680313835887,-0.4298782638775265,1.3042601621230114,0.08018752685253527,22.96431687097273,8.09163320769197,30.250189802274303
1760958420.5317676,-16.54931125969811,-0.40713030940588046,1.2828633544640151,0.09609126571768292,21.332120828592316,3.8050505352089443,26.684034534855403
1760958420.5414526,-16.278977322146023,-0.370136168088212,1.248103394760415,0.10420109657576704,19.52115730087393,-1.1128150210329562,23.232770869657884
1760958420.5515244,-16.020105905386586,-0.320654138690276,1.2039291226696565,0.10212760763749071,17.768667999359618,-6.386732672126907,20.293034067557752
1760958420.5614076,-15.759854195415812,-0.26207192713854255,1.1545558187257523,0.08855681680872547,16.327583477941026,-11.656352010745891,18.203543856607823
1760958420.5714524,-15.484951884618331,-0.19892371628030267,1.1038640628965197,0.06353394008693936,15.42407220144869,-16.521824299834904,17.205575217831516
1760958420.581877,-15.183501522632527,-0.13627883441090127,1.0550116431427332,0.028558788295486415,15.217268015841771,-20.600256069448967,17.41730417215796
1760958420.5914707,-14.846499185198972,-0.07909905126286945,1.0102963769777396,-0.01356435264524665,15.768340209410113,-23.58224441259319,18.82365801171797
1760958420.6015694,-14.46890806811353,-0.0316504900156048,0.9712184889367464,-0.05911366066374302,17.024958488457976,-25.277513729697013,21.281278909407074
1760958420.6116061,-14.050196598414228,0.002959005459079496,0.9386395126561121,-0.10399796975431905,18.824657336769295,-25.640974434314515,24.536880927452085
1760958420.6214294,-13.594332528549067,0.02306228904047331,0.9129440415765261,-0.14434981130261734,20.916996778771377,-24.774793343441246,28.25633982246607
1760958420.6315768,-13.109296233824459,0.028505369221229145,0.8941598325032354,-0.1770438362327234,23.0006154953958,-22.907216674145182,32.061056114750095
1760958420.6413078,-12.606224141195824,0.0205182242702558,0.8820352545350949,-0.20005222736836098,24.768329152593886,-20.353556272869948,35.5675315173877
1760958420.6514378,-12.098307484160815,0.0014309810755088908,0.8760881544388154,-0.21259774201207493,25.952130663647605,-17.467785032599725,38.425934391382086
1760958420.6615443,-11.599560955600985,-0.025696169935291186,0.8756381270866213,-0.2151110886585174,26.360502537846678,-14.594033866318956,40.35382192676264
1760958420.6714578,-11.123557753718968,-0.05746168446022966,0.87983314018456,-0.20902985358725984,25.902497826182515,-12.026028534064086,41.162020068488616
1760958420.6817274,-10.682213325387092,-0.09047643910127595,0.8876851320625411,-0.1964921407619729,24.595916142117662,-9.979735885626008,40.77070089989333
1760958420.691352,-10.284693024492547,-0.12164761109022071,0.8981273338500304,-0.17998478627798797,22.559847672996124,-8.581098355838773,39.214722334001344
1760958420.7015126,-9.936519354579337,-0.1483779310474277,0.9100912596223709,-0.1620039422947233,19.99426381629283,-7.867640070095826,36.63817562032445
1760958420.7114103,-9.638959510060676,-0.16868465718342854,0.9225843148732104,-0.14477398017099388,17.15087025260849,-7.8005774904442955,33.27881480284524
1760958420.7214117,-9.388773878842002,-0.18125439975708427,0.9347474578983563,-0.13005231090693842,14.300062415681706,-8.283128365468361,29.44371355533139
1760958420.7314503,-9.178389370983657,-0.18545129809430114,0.9458864257908884,-0.1190285724951201,11.69864764630456,-9.18090327348983,25.478217323393853
1760958420.7414353,-8.996523951215961,-0.181291734668814,0.9554838987336997,-0.1123109717212149,9.562207452946495,-10.341228951970912,21.731041510821992
1760958420.751574,-8.829235576997913,-0.1693942876834464,0.9632030014708953,-0.10998200120596145,8.044794427703701,-11.609504277105735,18.519054076148684
1760958420.7613041,-8.66130682465819,-0.15090825770284494,0.968886619054259,-0.11169976289381617,7.227332096421011,-12.84182267854629,16.095621299663918
1760958420.7715895,-8.477813368064753,-0.12741661101148477,0.972549641513761,-0.1168194929725671,7.114839870762194,-13.913910961967963,14.626197034609927
1760958420.7816024,-8.265674602038354,-0.1008048382998857,0.9743585978646278,-0.12451350197109146,7.641626218300526,-14.726884805462426,14.17405562710589
1760958420.7914457,-8.014969009628125,-0.07309262110491767,0.9745961416755572,-0.13387567101404932,8.682979017484596,-15.21040832861167,14.697806106576401
1760958420.8016455,-7.719829784794425,-0.04623949662090215,0.9736134031990988,-0.14400505988553533,10.0716007974726,-15.32364330807201,16.060787295550668
1760958420.8115427,-7.37881313150643,-0.021950843258782427,0.9717782433718121,-0.15406882262192592,11.616946941826205,-15.054079094258597,18.050880244903322
1760958420.8214662,-6.994730140655026,-0.001517971046842875,0.9694299622181524,-0.1633471436706242,13.125579832053544,-14.414192622982164,20.40791751423169
1760958420.8317027,-6.574025288778099,0.014277726337865271,0.9668496393320993,-0.17126356653385333,14.420613669799657,-13.436046040381054,22.854928175213878
1760958420.8413599,-6.125848834336768,0.02517985500107727,0.9642502789740952,-0.1774038980588267,15.358375003662806,-12.164357138452846,25.129103915124094
1760958420.8514616,-5.660996538021994,0.031392315909695996,0.9617847147779318,-0.18152620760242089,15.840649161688978,-10.649085976522906,27.008666962385792
1760958420.8614259,-5.190879053470375,0.03345239576674357,0.959564685216209,-0.18356340556328157,15.821368446231606,-8.9389035709725,28.332685630200245
1760958420.871327,-4.726643654930821,0.03207088251409084,0.9576828588826863,-0.18361857248233324,15.307281371966278,-7.076835896773627,29.012125628858232
1760958420.8814156,-4.278514721854009,0.027973880342726107,0.9562299396759788,-0.1819518521214879,14.352900225306204,-5.098876750471323,29.031778679672875
1760958420.891533,-3.8553590792906465,0.021780445357690508,0.9552999751482925,-0.17895680837819217,13.05070271947024,-3.035589509606584,28.44390984699688
1760958420.9017606,-3.4644313933358926,0.013942498846197025,0.9549791970125369,-0.17512443402767813,11.518052610039543,-0.9159155977908926,27.355344267959744
1760958420.9115403,-3.1112288083698694,0.0047562915900311335,0.9553192190274761,-0.17099537258553898,9.882563672794324,1.22818060162653,25.910224436404174
1760958420.9216323,-2.7993940456239548,-0.0055699431831267646,0.9563039348742707,-0.1671053706225773,8.26765787892556,3.3577975913815017,24.27083304489631
1760958420.9317524,-2.5306460602732064,-0.016828002954639158,0.9578257913038906,-0.16393309576964651,6.779880129965552,5.425232302822005,22.59875071002879
1760958420.9414828,-2.3047612820226555,-0.02874008166643124,0.9596852996383588,-0.16185961472691934,5.499187141239114,7.374886549338433,21.038282649022804
1760958420.9514701,-2.1196501899164293,-0.04093086185961678,0.961618090011529,-0.16114449983479548,4.473010065377554,9.146920073377466,19.7036269755064
1760958420.961709,-1.971565711370706,-0.0529438394518168,0.9633429698081375,-0.1619182594801523,3.7144496896948733,10.682950950880969,18.670734256565076
1760958420.9713464,-1.8554497417455509,-0.06428866865678248,0.9646176474265237,-0.16418765832397694,3.204505942950615,11.932668604789471,17.974260587510067
1760958420.9813826,-1.7653849711140148,-0.07449844249726327,0.9652869126933382,-0.167849445976429,2.897791061618177,12.860113798972701,17.60946925992236
1760958420.9914548,-1.6950860343140155,-0.08317618224034223,0.9653103682272941,-0.17270812004934546,2.7307936989256727,13.448569999976053,17.53842304152833
1760958421.0014029,-1.6383504101301907,-0.09001781039954482,0.9647626713330273,-0.1784945752000529,2.631514065565071,13.703382434126805,17.699375397108472
1760958421.0113842,-1.5894002743577018,-0.09481015829637023,0.9638070761281868,-0.1848845741613301,2.52920395166336,13.652430926640488,18.017961499468665
1760958421.0214174,-1.5430751849999371,-0.09741129502757206,0.9626501116437159,-0.19151786424033104,2.3630218787552724,13.344327834856538,18.418653572184265
1760958421.0319026,-1.4948705846229935,-0.097724134397081,0.961489247185223,-0.19801948077146217,2.088640978465856,12.84465171616932,18.83501129072492
1760958421.0413585,-1.440849356314939,-0.09567414825903721,0.9604657533496046,-0.20402391854716112,1.6821871627012,12.23066646425426,19.217521593652354
1760958421.0515406,-1.3774779851482504,-0.09120018678659617,0.9596324864460339,-0.20920074728408855,1.1412723776107576,11.585042404424385,19.53823515096395
1760958421.061447,-1.3014523230676154,-0.08426447054430931,0.9589424230026394,-0.21327820825347496,0.48325646515428916,10.989118503968843,19.79189440719069
1760958421.0713923,-1.209577772131921,-0.07488309130478443,0.9582594578901015,-0.2160608331241893,-0.25881925003451484,10.51624077119965,19.993732202798498
1760958421.0814738,-1.0987534808819335,-0.06317195147817001,0.9573887341666134,-0.21743848165449092,-1.0419486747557958,10.225685622142239,20.174534930480554
1760958421.0916536,-0.9660828960406199,-0.04939712097706027,0.9561203582501273,-0.21738653589239126,-1.8196961856957852,10.157626578533272,20.373865938030562
1760958421.1012678,-0.8091012567816325,-0.034015640424250225,0.9542787746787648,-0.21595932181959546,-2.5486564141659436,10.329529252597593,20.632510773728487
1760958421.1115012,-0.6260820958226686,-0.01769336037264176,0.9517703497942409,-0.21328051343442153,-3.19399345899276,10.734267258367828,20.98522955242327
1760958421.1213353,-0.41636376008121756,-0.0012891228015594507,0.9486227114619059,-0.20953472095363262,-3.7333863895110158,11.34014120833714,21.45478899415966
1760958421.1315808,-0.18062511653281607,0.014201482279471971,0.9450103673662938,-0.2049630882363563,-4.1589785208485415,12.092854158199364,22.048013561134674
1760958421.1416807,0.07896109615118888,0.027744026730546257,0.9412624774753819,-0.19986260302881848,-4.477237015961016,12.919356784388425,22.754268674520645
1760958421.151558,0.3587560875338815,0.038398418180416505,0.9378508516009816,-0.19458523083591095,-4.706918678232923,13.733340494180478,23.54641268365779
1760958421.1614966,0.6538957308276568,0.04547159809065179,0.9353589916843019,-0.18953078492090106,-4.875579321160747,14.44204436916972,24.383887666618193
1760958421.1715503,0.9587361844035096,0.04866458761626894,0.9344356886310969,-0.18512784732765317,-5.015251673269205,14.953956606049958,25.21732009660048
1760958421.1814156,1.2674504310157237,0.048182550564583,0.9357384949038048,-0.18179996101793366,-5.15803598989484,15.18692192819609,25.993813601363044
1760958421.191362,1.5746825054634939,0.04477880437740343,0.9398719662607958,-0.17991839917935734,-5.332353115663871,15.076111832056675,26.662075809415825
1760958421.2020447,1.8761499785702005,0.039717265448748054,0.9473224979335834,-0.1797461399036805,-5.560442426355911,14.581295851014705,27.176656053650458
1760958421.2114923,2.1690999314756825,0.034657590069748605,0.9583888766683794,-0.18137923922949759,-5.857339283477926,13.692884637980606,27.500849234772318
1760958421.2214537,2.4525603279586012,0.031482415282583935,0.973109962791467,-0.18469267703514472,-6.2311394316333715,12.43628024511433,27.60814371786361
1760958421.2315514,2.7273691609757984,0.03209063512152864,0.9911986866550284,-0.18929928409144153,-6.684023996739509,10.874123937584105,27.482348403377976
1760958421.2414896,2.9959944371619205,0.03817811254180774,1.0119994493322115,-0.19453161698554822,-7.2134112051198835,9.10604905916676,27.116663550481647
1760958421.251613,3.2621744185316692,0.05102371749159996,1.0344880538046797,-0.19945553359114188,-7.812748692708778,7.265540789350069,26.51195490901615
1760958421.2615008,3.5304107768290978,0.07129679839193119,1.0573275911344466,-0.20292045529858474,-8.471809465041181,5.5135391499473805,25.674394860976925
1760958421.271526,3.805343326519611,0.09890280804054022,1.0789824190695236,-0.20364652794260193,-9.176789254752938,4.028578484444223,24.612536377131278
1760958421.2818294,4.091033399464679,0.13288643094576144,1.0978795511851571,-0.20034435507371579,-9.91084852133039,2.993594484523867,23.333884593919727
1760958421.2916064,4.390191803397118,0.17141374071334176,1.1125961372023712,-0.19185854568655736,-10.655822672444124,2.580052743730159,21.841169953009445
1760958421.3014073,4.703408755714187,0.2118540291122996,1.1220444138984753,-0.17732159086378443,-11.395560036616743,2.9306923853311173,20.128760961128446
1760958421.3114789,5.028473086773058,0.25097692534738375,1.1256209911982669,-0.15629983949827544,-12.120794575462211,4.142795746897217,18.1798885447371
1760958421.3218389,5.35989676685493,0.2852696779187148,1.1232870058523765,-0.1289095796357219,-12.834768473880773,6.25431537396151,15.965497168035101
1760958421.3314378,5.688774276584679,0.31136002889188114,1.1155535446679263,-0.09588032620449474,-13.558181450686625,9.23525724381577,13.445523220408711
1760958421.3414795,6.003088986925964,0.32650056338794553,1.1033661278699356,-0.058546843208574645,-14.331668344182422,12.986348328186493,10.573182185317684
1760958421.3515186,6.288519182742719,0.32903478712608153,1.08791162757377,-0.018762047450146507,-15.214082090448246,17.346195852110316,7.302387948128813
1760958421.3615978,6.529695983640568,0.3187369876044144,1.0704013262114742,0.021263344395570358,-16.27549884491333,22.106898121202427,3.597708235945621
1760958421.3716583,6.711747402483179,0.29691981828482444,1.0518979564785422,0.0591771339766008,-17.585059543645155,27.03648069755084,-0.5546615787446081
1760958421.3819537,6.82187035833196,0.2662515889562996,1.0332388335679026,0.09273365771901218,-19.195324392810864,31.904908673025254,-5.1372732241078305
1760958421.3916116,6.850647472710478,0.23030675048738036,1.0150655143213352,0.12004376975191038,-21.12628498936801,36.5093028870944,-10.095790038754622
1760958421.4014106,6.792881458422209,0.19295002079438414,0.997924716003186,0.13979138549277534,-23.35291833101136,40.693851731763935,-15.339279857362866
1760958421.4114187,6.647834130852937,0.15769474940861639,0.982379026482706,0.15138010950215244,-25.799707655275842,44.36088725566727,-20.746829547388124
1760958421.421548,6.418886939004066,0.12717202347731602,0.96906874926466,0.15498262939315327,-28.3439309070987,47.47141916931941,-26.17914390211333
1760958421.4314516,6.11274689281979,0.10280842739838351,0.9586918556275147,0.15148299403603718,-30.827304132335748,50.03558607083806,-31.49256038214833
1760958421.4413595,5.738385314996214,0.08475344215893607,0.951903549933487,0.14232033922592738,-33.07358138112548,52.09543346846158,-36.552494390278895
1760958421.451599,5.305914168891945,0.07204043513631055,0.9491668419422731,0.1292581815719793,-34.90858716911585,53.70376062549872,-41.24368938766216
1760958421.4616473,4.825583033642975,0.06292209595816754,0.9506021052328109,0.11411738585696073,-36.17908429925643,54.90333906660858,-45.47558447223941
1760958421.4714243,4.307029808447694,0.05529740265812672,0.9558840372653701,0.09852278886376359,-36.767653740622265,55.71060648902558,-49.18237555871554
1760958421.4815748,3.7588521643397743,0.04714274805591467,0.9642201313494009,0.08371579655562943,-36.6019816709259,56.107039976723684,-52.318637853583226
1760958421.491753,3.188498027305602,0.036872393373397025,0.9744207082191964,0.0704701551339474,-35.6582040612009,56.03991461016132,-54.85239591935249
1760958421.5015028,2.6024141318892124,0.023576773627537934,0.9850451052933794,0.05911848212305062,-33.9589612207418,55.43227882351732,-56.758053542606305
1760958421.5116441,2.006350168168415,0.007113137390702044,0.9945905413044293,0.04966669576831893,-31.567424581943655,54.200084457768746,-58.011536776453944
1760958421.521579,1.4056967912040235,-0.01195283323160351,1.0016847323467613,0.0419543974115026,-28.578783510407842,52.27290777449991,-58.58938987767267
1760958421.5317025,0.8057411161935827,-0.03253293207077074,1.0052501941814045,0.03581452769036997,-25.110655667151466,49.613927138545165,-58.47253429389133
1760958421.5415082,0.21175288098706846,-0.05328667228571465,1.0046212179742553,0.03119205899592336,-21.293759487568764,46.234964425383374,-57.65417584481727
1760958421.5518117,-0.3711370337983629,-0.07291640556335868,0.9996057509056104,0.028195094951533002,-17.263976311144575,42.203431727036,-56.15017633693953
1760958421.5615087,-0.9382470695043432,-0.09042396181695424,0.9904902417333332,0.027069553570300508,-13.156525225630764,37.639722665639326,-54.00934085087295
1760958421.5716102,-1.4857736119421914,-0.10527741180573905,0.9779883173270781,0.028107853461040565,-9.102330664284178,32.705549635464855,-51.320739088730214
1760958421.581604,-2.0112319545919197,-0.11746080915765131,0.9631378649594508,0.03151886051913207,-5.22593656357405,27.585510329787944,-48.215528781867846
1760958421.5914931,-2.5137944418944698,-0.12740834935920461,0.9471571253105433,0.037296590558166996,-1.6437976802749414,22.46540314681781,-44.861754206551524
1760958421.6017754,-2.994429819822125,-0.13585020404168685,0.9312779501069502,0.04512651847700557,1.5383143755838689,17.51126422339074,-41.45202428721823
1760958421.6118124,-3.4557922665967884,-0.14361596894859766,0.9165821500242485,0.054360776170945896,4.229646433046098,12.852712123413399,-38.18550947985445
1760958421.6214685,-3.901868219756662,-0.15144906159161675,0.9038724453047042,0.0640776121377359,6.3605713519158895,8.573129364948255,-35.24703457547609
1760958421.631839,-4.3374476010640235,-0.15987733142332564,0.8936072968804954,0.07321818506156678,7.8895054711709305,4.707784430904788,-32.78691232367353
1760958421.641847,-4.767525796484509,-0.16916299388411707,0.8859126884901969,0.08077099471231076,8.808912062553507,1.2494920495842865,-30.90529682971761
1760958421.6514843,-5.196752805237751,-0.17932851109733147,0.8806567554540659,0.08595920563746656,9.14849296881804,-1.839915863787263,-29.64408425569854
1760958421.6614134,-5.629025529087023,-0.19023502400399545,0.8775507271061063,0.08838411786158361,8.974168331994115,-4.614930597673335,-28.987856548425103
1760958421.6715906,-6.067275939670682,-0.20168068368389086,0.8762371468420533,0.08808974495546565,8.382401981799685,-7.1314374210514035,-28.873440629512857
1760958421.6814992,-6.513455783268905,-0.21348700672431067,0.8763432643572685,0.08553559644772928,7.490504147942726,-9.434124638933485,-29.205880219827165
1760958421.6914322,-6.968674430357553,-0.22555051035989512,0.8775000353809117,0.081490079467784,6.424431710254921,-11.548053108547464,-29.87745558842223
1760958421.701476,-7.433423414666011,-0.23785162240757488,0.8793419704024019,0.07687630746623009,5.306107395610913,-13.47517732729823,-30.786057966324705
1760958421.7114801,-7.907822142778397,-0.2504284016020832,0.8815055259765873,0.07260941249422105,4.242279670722563,-15.195602628521574,-31.84969855737127
1760958421.721476,-8.391837408824541,-0.26333326965148557,0.8836369916005701,0.06945934989061592,3.3164570957435555,-16.672612033348603,-33.01501413323431
1760958421.7316263,-8.885453143361024,-0.27659270829470867,0.8854112883204507,0.0679597397690084,2.584662386821812,-17.860110204922368,-34.25903100679687
1760958421.7415323,-9.388785742623574,-0.29018292304272786,0.8865560698613871,0.06836741746560544,2.0749465677056294,-18.711085859838896,-35.584825841198565
1760958421.7516122,-9.90214912087583,-0.3040235262578562,0.886873050599388,0.07066476710640616,1.7900019824744127,-19.18589130574398,-37.012768529481455
1760958421.7616084,-10.426073206220533,-0.3179822661778081,0.8862501069312774,0.07459095506399396,1.711896888836274,-19.259470133397517,-38.56955625704116
1760958421.77143,-10.961274778653069,-0.3318804046667631,0.8846622246690269,0.0796885564292618,1.8079047471099625,-18.927033404841726,-40.27720454942398
1760958421.7814567,-11.508575561773176,-0.3454908315538567,0.8821648590351948,0.08535601155932868,2.0365421444426697,-18.208009584068318,-42.143660305901975
1760958421.7914047,-12.068762230270435,-0.3585270254960349,0.8788863501494337,0.09090103295722363,2.3531549930099223,-17.148315135063,-44.15597430604886
1760958421.8016467,-12.642387174797978,-0.3706274041312166,0.8750242901086989,0.09559394674156024,2.714614558165417,-15.821077332759998,-46.27627820523986
1760958421.8115978,-13.229517502568811,-0.38134394269948946,0.8708454564111421,0.09872250383501936,3.082872315819928,-14.325880260801204,-48.440349249418
1760958421.8215582,-13.829451555764656,-0.39014446942346903,0.8666832630695022,0.09965029992469777,3.4272910846683757,-12.786424256505219,-50.5583971964611
1760958421.831469,-14.440433429246054,-0.3964347596719316,0.8629233714563693,0.09787883691500962,3.7258379753386306,-11.346259057098054,-52.51782529684893
1760958421.8415136,-15.059402321928216,-0.3996013263796817,0.8599696994081355,0.09310941461713157,3.965384040718647,-10.162085997119668,-54.18793372310317
1760958421.8513825,-15.681813523754276,-0.399070558313774,0.8581901502444892,0.08529793660819701,4.14146567385067,-9.394150065498264,-55.42664393920306
1760958421.8616476,-16.3015631643792,-0.3943762131994627,0.8578502282740618,0.07469445275032967,4.257875222329021,-9.193546915314005,-56.08920884096487
1760958421.871507,-16.911042222739653,-0.38522690766424,0.8590480315203016,0.061859352932371665,4.326345702543741,-9.6868676524429,-56.03857092147304
1760958421.881398,-17.501337497118847,-0.37156759807232936,0.861663827045527,0.04764967262255722,4.366410286112536,-10.959410433831678,-55.15667656648777
1760958421.891537,-18.062586632405107,-0.35363069348834864,0.8653335852368377,0.03317208144917777,4.4053190697024345,-13.039002690680825,-53.35577890921316
1760958421.9014032,-18.58447904645454,-0.33197115158931356,0.86945232639973,0.019702542554244213,4.4777493886079975,-15.883019777038404,-50.5886105555419
1760958421.911416,-19.056875059230332,-0.30747750647161304,0.8732124831919673,0.008575665301265,4.624981526221422,-19.371208868427697,-46.85626149001247
1760958421.9215324,-19.470494899530106,-0.2813505732105715,0.8756832081740384,0.0010506473503778958,4.893208168476446,-23.306354780760653,-42.212654230680634
1760958421.9316232,-19.81761201993906,-0.2550441322313745,0.8759325762356392,-0.0018337480429327221,5.330661578914496,-27.423779229222344,-36.764715083846724
1760958421.9414246,-20.09267500100846,-0.23016526502088439,0.8731805322307071,0.0006032726701926894,5.983301179735801,-31.409382332682696,-30.667725845236568
1760958421.9514866,-20.292781633002008,-0.2083360942944662,0.8669511059576366,0.008576689923830762,6.8890502721217635,-34.924667684743355,-24.115859601441677
1760958421.9613953,-20.417938989207386,-0.19102665246474654,0.8571852499449722,0.021778084872835824,8.071138494631024,-37.63615114274589,-17.32849207614877
1760958421.9720724,-20.471064889072764,-0.17938203331091868,0.844293675078772,0.039380736335491426,9.531852996576662,-39.24589453010161,-10.533494550011369
1760958421.9815817,-20.457717628985666,-0.17408037198652307,0.8291601792014864,0.06010812674510221,11.248440704152387,-39.51975843209752,-3.9492801802945747
1760958421.9914672,-20.385578218632837,-0.17526084253048382,0.8131217565506668,0.08235587050415971,13.172566645063942,-38.310403816099054,2.232230450687623
1760958422.0015285,-20.263746432583364,-0.18254616938130647,0.7979395713806726,0.10434986742473906,15.233635473427942,-35.572972171126146,7.859434328862981
1760958422.0113935,-20.101941493738686,-0.19515610949952286,0.785748247724867,0.12432053192690427,17.344986317077502,-31.372409764381917,12.829594167937733
1760958422.0214283,-19.909713215058282,-0.21207852236600439,0.7789505165018125,0.14067443481856684,19.411151552181302,-25.882242816495623,17.090698136703754
1760958422.031438,-19.69576592917784,-0.23224599937195958,0.7800225046648394,0.1521485216946075,21.33435997282917,-19.375148691174463,20.636303555626384
1760958422.041592,-19.467476525139503,-0.25466772880778127,0.7912150450800505,0.15793362543709794,23.019153639336523,-12.206022880171364,23.494366679659727
1760958422.0515819,-19.230653749074136,-0.27848677277653194,0.8141718953825459,0.1577514897994871,24.37500549447718,-4.788584235916421,25.71233073702982
1760958422.0614905,-18.98954269700007,-0.30295880633783673,0.8495219638245396,0.15186842153195146,25.31775569655234,2.43304565965593,27.341632358949596
1760958422.0716388,-18.7470300633467,-0.3273662683953832,0.8965261509082673,0.14103670565020993,25.771241164374207,9.015966157371512,28.425044345761087
1760958422.0816076,-18.504960524191446,-0.350890953033081,0.9528662885097049,0.12637227274586305,25.670593952418358,14.551195776237849,28.989798403336405
1760958422.0915132,-18.26444697209941,-0.37247657154565483,1.0146559226142111,0.10919407633971294,24.968362566233154,18.695124053985406,29.04829304290506
1760958422.101403,-18.026061094885428,-0.39072466451905247,1.076729973479901,0.09085605240038266,23.64389722208509,21.19733028731742,28.606598828909075
1760958422.111573,-17.789830554499783,-0.403876515316721,1.1332278814758447,0.07259433760832244,21.71537687560444,21.922467391265545,27.679210004629184
1760958422.1214728,-17.555036654618707,-0.4099295887674777,1.1784190701052493,0.05539871538030459,19.252543975277863,20.864182599644764,26.306851063186663
1760958422.1316009,-17.319883021438738,-0.40690939058444003,1.2076374460741899,0.039908669607283384,16.38686788465463,18.149527012812996,24.572931798850128
1760958422.1416535,-17.081166384487656,-0.39326412800020644,1.218120366048901,0.026338238583799422,13.314932203159382,14.03293220433021,22.613821609066868
1760958422.151575,-16.834102560145872,-0.36828749582441733,1.209529994066554,0.01445008529995575,10.291010614474416,8.879483334601815,20.618869450356225
1760958422.1615174,-16.572434915991224,-0.3324412284976985,1.1840011020726815,0.003614571440269506,7.606562845051325,3.1378290457113507,18.818166171182128
1760958422.171475,-16.2888869645722,-0.28747191558108554,1.1456936870413859,-0.007019103974750666,5.5575400343809145,-2.696268506209387,17.458991130961532
1760958422.181616,-15.975935577694283,-0.23628501216926065,1.0999734311061773,-0.018256863028011366,4.403924013375811,-8.123771790350837,16.77473408320335
1760958422.1916356,-15.62679936317329,-0.18261113173252036,1.0524370887007855,-0.03057500364475123,4.328568245825337,-12.690163397347932,16.951876513215087
1760958422.201612,-15.236475607777106,-0.13054125831118538,1.0080147893879332,-0.04392457275392267,5.403325345697544,-16.032099945327193,18.10094382371014
1760958422.2114017,-14.802631412267454,-0.0840150321817705,0.9703260489365013,-0.057708943031327994,7.569467111987577,-17.91672182319426,20.23638913787472
1760958422.221663,-14.326171594728452,-0.046337884568837945,0.9413736531806013,-0.07094949400273193,10.636862915459314,-18.267552506285814,23.268623283714273
1760958422.2318146,-13.811373106758348,-0.01979485324138349,0.9215678234404413,-0.08257796754902215,14.302943008179192,-17.17238468482371,27.009353200011226
1760958422.2417119,-13.265578956465715,-0.005421042285060707,0.9100091606373104,-0.09174956113487417,18.188920188772695,-14.871001296236585,31.189387478618247
1760958422.2515032,-12.698546507575958,-0.002968747712806418,0.904929998672646,-0.09807447627442041,21.887723055949483,-11.723616307373385,35.48632428897765
1760958422.2616057,-12.121604086971944,-0.011073004265052215,0.9041919687678348,-0.1017062968788023,25.016036534851292,-8.164120954358278,39.55821347320083
1760958422.2716422,-11.54676821097731,-0.027570151654701364,0.9057502301532079,-0.1032789563474515,27.26209383729715,-4.6449820527181,43.07857840951234
1760958422.2818966,-10.985926533954899,-0.04988680080608442,0.9080134883226026,-0.10372908492599343,28.421701629635717,-1.5821951071262224,45.76828158595064
1760958422.2915854,-10.450131643575775,-0.07540603797016447,0.9100520967072951,-0.10406467263054531,28.417393005542255,0.6915276294895555,47.420618792242536
1760958422.3016105,-9.949006558014707,-0.10173956196855918,0.9116357028745261,-0.10514176769505543,27.299028064693434,1.959129807154215,47.917434102251896
1760958422.3116,-9.490247087764278,-0.12687846654881427,0.9131152823660997,-0.10749642601213451,25.22760748999305,2.134005407082524,47.23551403335325
1760958422.3214498,-9.07921673227458,-0.14924025794004336,0.9151952500441151,-0.11126006750555965,22.4466220500021,1.2572995918161858,45.443710648359456
1760958422.3316343,-8.718653844003816,-0.16765618950184527,0.9186605684405194,-0.11616734042702655,19.246536018649888,-0.5195979786856263,42.692061713067694
1760958422.341535,-8.408531551736734,-0.1813433315115431,0.9241244857010746,-0.12164738433322891,15.928089929911415,-2.9631175784698454,39.19468549954639
1760958422.3514323,-8.146114382973717,-0.18988611823238183,0.9318460371618694,-0.12697450656057838,12.769316214517117,-5.791374823128053,35.20852866255032
1760958422.3616421,-7.926236385761979,-0.19322809882341907,0.9416429286364207,-0.1314448168464857,9.999837076298416,-8.709349814918653,31.01019780151288
1760958422.3714192,-7.741788260371454,-0.19165943027278562,0.9529044838370548,-0.13454120891654678,7.784475880010257,-11.441565397406054,26.87310769940985
1760958422.3816564,-7.584356995087894,-0.1857821620012733,0.9646928441982766,-0.13605138102067138,6.2166929681776555,-13.759262877062977,23.046988089437516
1760958422.3914845,-7.444925930105421,-0.1764407569002839,0.9759070948492499,-0.13611461757805232,5.320997301864886,-15.499936171680856,19.74136724406895
1760958422.4014633,-7.314529529112783,-0.1646162367711109,0.985474885929516,-0.13519092522477444,5.062405679869626,-16.5779916015628,17.114021085687757
1760958422.4114447,-7.184770307683462,-0.15129445332246405,0.9925312292171139,-0.13396411176978143,5.360350747895948,-16.98622085295917,15.264664043168334
1760958422.4214609,-7.048140360624322,-0.13732816584897606,0.996547301615705,-0.13320293260546026,6.1042732065057965,-16.788640579807254,14.233533582799867
1760958422.4317482,-6.8981368024862455,-0.12331748046079866,0.9973856514580431,-0.133610386975944,7.168467013614619,-16.106006501776292,14.004109588263193
1760958422.4416223,-6.729208334478083,-0.10953349448108328,0.9952790701820604,-0.13569123249026016,8.424458739235074,-15.095919962903837,14.50904814388019
1760958422.4515321,-6.536608428336458,-0.09590474484668343,0.990749870591052,-0.13966203130755556,9.75010426823795,-13.929879251935239,15.638457390669373
1760958422.4616625,-6.3162499342909175,-0.0820750336376495,0.9844971166990578,-0.14541782035044176,11.035464326441188,-12.769860651139835,17.249813066452994
1760958422.4716144,-6.064650791441726,-0.06752637142011347,0.9772800220952802,-0.15255765517002332,12.186169417673439,-11.747038704119653,19.178994690608558
1760958422.4817007,-5.779032242083568,-0.05174614620911442,0.9698191698903036,-0.16046042152315307,13.125264678558155,-10.945067120541035,21.252024960600597
1760958422.491628,-5.457587560130924,-0.0344073378604228,0.9627275828121139,-0.16839387571243294,13.794423954201433,-10.389921560726089,23.297068582194974
1760958422.501497,-5.099891609105126,-0.015526776938660572,0.9564742506346273,-0.17563493856771967,14.155056295394806,-10.047636943912302,25.156116183237916
1760958422.5116224,-4.70737959161717,0.004430757714838479,0.9513753491853488,-0.18157891976553858,14.189369300113704,-9.830377413463216,26.69561690222897
1760958422.5218308,-4.283795193990403,0.024526122901568626,0.9476041224152713,-0.18581971833217187,13.901053142098684,-9.61024008756966,27.81520870379799
1760958422.5314364,-3.8354985268828554,0.043407795344566874,0.9452095320565741,-0.18819055124479278,13.31500940637083,-9.239148935018855,28.453697880448292
1760958422.541558,-3.371532915530087,0.05945861618478543,0.9441356301295057,-0.18876300204520638,12.47552950220683,-8.572293086052225,28.591612282688384
1760958422.551549,-2.9033744100434813,0.07100963286840452,0.9442373336965305,-0.18780930971812107,11.442542437470916,-7.491939703307826,28.250005779676282
1760958422.5616672,-2.444326414045056,0.07659112656433445,0.9452931448810248,-0.1857378376793508,10.285958558147096,-5.928214578322289,27.485668689293973
1760958422.5716152,-2.0085713247879573,0.07518248143189778,0.9470196445732596,-0.18301448323256486,9.078624354182153,-3.8736754560621427,26.383390213201242
1760958422.581442,-1.6099482250392525,0.06641944375529348,0.94909379002282,-0.1800843466882239,7.888806102757325,-1.3892438480476068,25.046291717591238
1760958422.5915482,-1.2605850059128192,0.05072006678312163,0.9511861452121275,-0.17730842503025052,6.773284262536238,1.3997267067247594,23.58540912701515
1760958422.601736,-0.9695626872177702,0.029300828077286685,0.9530027257618848,-0.17492715420942626,5.772024826366693,4.316947177582493,22.109643448116753
1760958422.611324,-0.7418107577000732,0.0040732298596671025,0.9543279906966857,-0.17305482831315996,4.905081779469309,7.156418628861495,20.716990343934054
1760958422.6215699,-0.577411599866325,-0.022565315231512503,0.955058993590092,-0.17169948500250307,4.172007720311891,9.708327562430165,19.487692095818296
1760958422.6315594,-0.4714325389992051,-0.048012838040658576,0.9552216585257965,-0.17079706420408336,3.5537106456548315,11.78587844136638,18.479696294432564
1760958422.641452,-0.41432433527388784,-0.06977357295392776,0.9549641842413449,-0.1702487167229667,3.0164374020905447,13.249298020715662,17.72658238680733
1760958422.6517243,-0.3928463033881851,-0.08575624275818022,0.9545285340098504,-0.16995416308043715,2.517379932498216,14.023808495416178,17.2379210419389
1760958422.661593,-0.39141275557838817,-0.09452427416992837,0.9542066262628734,-0.16983834594155867,2.0112642517597785,14.109356617821216,17.00184633222972
1760958422.6715846,-0.3937052231833711,-0.09546927772990815,0.9542907186959587,-0.16987061786240176,1.4571845405298567,13.58106890384466,16.989442999098895
1760958422.6819856,-0.3843601270810787,-0.0888860983498187,0.9550269781725458,-0.1700752367780801,0.8248957213401071,12.580577915541461,17.160387343791285
1760958422.691522,-0.3505264470942986,-0.0759370453109668,0.9565789532722796,-0.17053077630252306,0.09979315660557113,11.299415175105906,17.469147592246017
1760958422.7017267,-0.28309822921448524,-0.058505569001546125,0.9590051138420145,-0.17135599345704663,-0.7141019482584913,9.956532233055242,17.870975313165108
1760958422.7117422,-0.17746451200200022,-0.03895406534935539,0.9622520059711852,-0.17268151780528151,-1.5936637193650922,8.772640585161668,18.32693322351102
1760958422.7215316,-0.033682103832331646,-0.01981467515871965,0.9661621745812802,-0.1746102668454821,-2.4989487068456238,7.9443871499403285,18.807326538988605
1760958422.7316232,0.14394146175750283,-0.003454137084184078,0.9704947132508351,-0.17717393099492892,-3.3781681490899493,7.621348440055938,19.293132420414143
1760958422.7413967,0.3477789325988781,0.008239427268895311,0.9749563273202068,-0.18029680688866426,-4.174856342741572,7.888436290873483,19.77532403070383
1760958422.7515562,0.5681759671480107,0.014102206584451266,0.9792413949146929,-0.18377971551283087,-4.83633811483583,8.755638840309562,20.25231731637995
1760958422.7616081,0.7949056004906501,0.013838638960523128,0.9830798532819001,-0.18731381309492096,-5.3222984315084245,10.156194734855077,20.72608747757181
1760958422.771508,1.0185733407989273,0.008045626754264248,0.9862911699800403,-0.19052650990815587,-5.6121529087846405,11.953432348730312,21.197757675141226
1760958422.7817671,1.231783664042096,-0.0018837648857249667,0.9888405329279759,-0.19305175488026383,-5.710032907326967,13.955658857746913,21.663582986086517
1760958422.7915106,1.4299274077833963,-0.013961128891993177,0.9908894111454155,-0.1946082307648118,-5.646506625017639,15.937666280412024,22.112172478627475
1760958422.8015451,1.6115166418418598,-0.025876509921175895,0.9928277922760115,-0.19506433459684688,-5.476614815308752,17.666671987639244,22.52350378955997
1760958422.8113678,1.7780670523980369,-0.035302323442616766,0.9952724280930254,-0.1944695300219099,-5.27434771255159,18.92994055406081,22.869859225016658
1760958422.8215125,1.9335926593990944,-0.0401816696683017,0.9990174383960015,-0.19303809482581666,-5.1242423336013045,19.561067994616064,23.118371563959997
1760958422.8317394,2.083820593421704,-0.0389631769198407,1.0049322536851302,-0.19108269414321521,-5.111239347860953,19.462014059209057,23.234526067259182
1760958422.8413541,2.235249370322398,-0.030760888027334184,1.0138160202170878,-0.18890884668457203,-5.31022768289796,18.618422680272328,23.185788113963994
1760958422.8514714,2.3941683940311744,-0.015434622696315311,1.0262323975776022,-0.18669249769237617,-5.77676923016717,17.10647777813077,22.944522729598695
1760958422.8614447,2.5657421770327944,0.006405006894490701,1.0423573641268944,-0.1843677687567139,-6.540315020289021,15.09037008418791,22.489515396932287
1760958422.8716319,2.753248524987785,0.033462365196629276,1.061871858289787,-0.18155091889030442,-7.600849948754607,12.810297091546305,21.805657795123057
1760958422.8817227,2.9575428753289845,0.06388865817637207,1.0839225688891605,-0.17752199717414538,-8.929453420585538,10.561742176181358,20.88170318431548
1760958422.8916006,3.1767942674910943,0.09547007203449114,1.107161091737881,-0.17127714113898893,-10.472823489406693,8.667595086209081,19.70639867609477
1760958422.901596,3.406502093682256,0.12585452901158511,1.129857199127354,-0.16165062355597745,-12.161371738559613,7.445508366201379,18.263712234527507
1760958422.9118319,3.63976426914314,0.15279255937528124,1.150070532283671,-0.14748980204439377,-13.920016528668672,7.173683361791109,16.52820396624851
1760958422.9215243,3.867735973569788,0.17436332710734914,1.1658593595552524,-0.12785442023190502,-15.680304458722704,8.058879939397183,14.461764177146856
1760958422.931637,4.08020177841213,0.18915628690153685,1.1755027692249633,-0.10220770225911874,-17.392058240581814,10.210631952454081,12.012932444085497
1760958422.9414692,4.26618757884962,0.19638430534744097,1.177710199959736,-0.07056916222049114,-19.032487030413623,13.62525898925174,9.119826590662734
1760958422.9514985,4.414560119444558,0.19591584977327295,1.171790770541341,-0.03360482261847852,-20.61069751265196,18.18222934486438,5.717295036148253
1760958422.961611,4.5145917645929625,0.18823020321824768,1.157758444786883,0.007362337304873467,-22.165912105303498,23.653840054553505,1.7481750159563982
1760958422.9715862,4.556493552063903,0.17431444571071894,1.136358250061586,0.050429968952657694,-23.75855196466948,29.72730259151357,-2.822491001395038
1760958422.9814734,4.531927840099333,0.15552533348399372,1.1090102865727072,0.09327897864704998,-25.45472211507029,36.03652037645211,-7.992558278238311
1760958422.991459,4.434497635330481,0.1334326774700819,1.0776791499372154,0.13340589169742673,-27.306373285722763,42.19945867427229,-13.710341819404915
1760958423.0014958,4.260181727775826,0.10965470188493527,1.0446852466103003,0.1683974476458713,-29.331064958637572,47.856262748705845,-19.867919201712596
1760958423.0118132,4.007661889711024,0.08569827770572024,1.0124795985413622,0.19620802869169776,-31.496174766351835,52.70324472609059,-26.302576517153874
1760958423.0215685,3.6784850393930126,0.0628224279605929,0.9834043582614262,0.2153932330594365,-33.71198816875346,56.51850696700926,-32.80705698050677
1760958423.0316112,3.277020155343964,0.04194316661332956,0.959460529820558,0.22525816248569863,-35.83618310665144,59.176230383262535,-39.14728139139358
1760958423.0415964,2.8101979845447875,0.02358993144510961,0.9421060536832178,0.22589778105887526,-37.68933406767392,60.64836684223459,-45.08464215608689
1760958423.051506,2.287051534237533,0.007912255915771141,0.9321100798206978,0.21812962707007302,-39.078273266590145,60.99435941831217,-50.399201528496526
1760958423.0619388,1.7181008418867907,-0.005275055042696798,0.9294878503575926,0.20333751600808594,-39.822451819762385,60.341264530920554,-54.910190553881264
1760958423.0716388,1.1146442005669512,-0.01642368786172206,0.9335318486447706,0.1832574660727422,-39.77820758543694,58.85798233487018,-58.49093049963419
1760958423.081692,0.48802929552963537,-0.026171193337579488,0.9429394320782744,0.15974499578476523,-38.85682424563733,56.727974667020206,-61.076430046820825
1760958423.0916443,-0.15101989476819558,-0.03525092959208541,0.9560190976166236,0.13456504967110222,-37.033964133934994,54.124720434187516,-62.66322598524564
1760958423.101697,-0.7929535848796564,-0.04439333263543432,0.9709416671935376,0.10923981015885639,-34.34999164296092,51.19324196291125,-63.30232898706962
1760958423.1113846,-1.429778153105845,-0.0542252358120568,0.9859917127141118,0.08497468910272495,-30.902460457154746,48.039523470594304,-63.087188424357784
1760958423.1216536,-2.0552527829324028,-0.06518267159770064,0.9997708407164159,0.06266203742304446,-26.833262268943344,44.72789890679098,-62.139205995048215
1760958423.1316023,-2.66491391203126,-0.07745642190440401,1.011312675082475,0.04294236930018508,-22.313376339646044,41.28498897241575,-60.59339750273
1760958423.1414773,-3.2559637767137124,-0.09098515486602703,1.020091320110887,0.02629031453885591,-17.52781849281694,37.707926178156605,-58.586333939437
1760958423.1516962,-3.827070852650614,-0.10550034010541463,1.0259339966825523,0.013089916600100364,-12.662583808486824,33.97455140967068,-56.24763556805683
1760958423.1615965,-4.378129020179305,-0.12061415995577797,1.0288734086580664,0.0036713191625297684,-7.894516325479864,30.053786608719253,-53.69530339026205
1760958423.1715877,-4.9100109013485636,-0.13592895379612935,1.0289891951796428,-0.001704404315994504,-3.384311855603718,25.91510107446573,-51.03431128438672
1760958423.1816077,-5.424332782876095,-0.15113678724468171,1.026289548591039,-0.0029086797409800724,0.7277553544883887,21.53657029839756,-48.35731151944345
1760958423.1915152,-5.923229096505237,-0.1660751769446133,1.020674446994259,-3.882065853888003e-05,4.324301058735201,16.91133367264942,-45.746075017197505
1760958423.2016354,-6.4091205143514145,-0.1807155789696303,1.011998988046972,0.006488631971125513,7.3127001409991905,12.052307128779852,-43.272383100061205
1760958423.2115996,-6.8844588506524005,-0.1950863034402258,1.0002181624671247,0.015883071599191025,9.627465285893615,6.994918324478367,-40.99748444496319
1760958423.2215316,-7.3514479190640705,-0.2091618544533962,0.9855545862460866,0.027002094553879145,11.233683887744329,1.797579401015892,-38.96988925858994
1760958423.231642,-7.811766872650501,-0.22276859050778927,0.9686125625006601,0.03847274824745293,12.131142261893611,-3.460261639030398,-37.22207902886366
1760958423.2416952,-8.266347091921492,-0.2355496855007695,0.9503821265172808,0.04889924143747529,12.357824061114163,-8.682331650530918,-35.76742064866442
1760958423.2516694,-8.715260743102665,-0.2470054752502226,0.9321249214032011,0.05710774576698062,11.99095285572883,-13.761452849287673,-34.59886990980379
1760958423.261649,-9.157762845976379,-0.2565948893215537,0.9151797148795782,0.06236064755239508,11.143946388936318,-18.58631196648943,-33.69072705261931
1760958423.2717006,-9.592494501518516,-0.2638635277696467,0.9007466122780349,0.06448174950211741,9.958530213388013,-23.048122360317926,-33.00383209621823
1760958423.2815986,-10.017816135567372,-0.26855926265861,0.8897051701831147,0.06386287911160016,8.592520933815297,-27.046388948526207,-32.493479664234485
1760958423.291587,-10.432210735403855,-0.27070573758352207,0.8825040515490626,0.06135693284368733,7.204988048147624,-30.49332226074553,-32.11840758718244
1760958423.3016117,-10.834686144940534,-0.27062144955842504,0.8791373459982872,0.05809053173813278,5.941192383303117,-33.3167894332826,-31.84879780497829
1760958423.3114986,-11.225111205348982,-0.2688884457984893,0.8792002613436654,0.05524404121146178,4.919648416967904,-35.4619373032427,-31.6714489640972
1760958423.321542,-11.604436640553429,-0.2662841287055994,0.8819999933539406,0.05384629861936703,4.222990850001937,-36.89179233784544,-31.591046213348505
1760958423.331543,-11.974772472308088,-0.26369175420382485,0.886690192690503,0.05461974360635445,3.8934072933582873,-37.587277580102125,-31.627492148498572
1760958423.341429,-12.3393158500327,-0.26200316836107534,0.8923991085998902,0.05789473116951353,3.9325836381365638,-37.54716780673784,-31.810214166687793
1760958423.3514614,-12.70214401957968,-0.26202471693854723,0.8983291967079282,0.06359489381256694,4.305572944262753,-36.78846771901856,-32.17093512471428
1760958423.361498,-13.067904037583943,-0.2643950684068268,0.9038169972612231,0.07128192511094388,4.947730273412065,-35.34752265072424,-32.736478180350346
1760958423.3715,-13.441440629337865,-0.2695208844979874,0.9083534403508037,0.08023988705515196,5.773753309552785,-33.28189801535771,-33.522846515304884
1760958423.3816094,-13.82740462617634,-0.27753305621395985,0.9115726791208972,0.08957702348861546,6.687846949756063,-30.672752555605978,-34.531247604903484
1760958423.3915398,-14.229878125253595,-0.288264305405514,0.9132204658848353,0.098326897938701,7.5940528957426965,-27.627138431094156,-35.74611851562386
1760958423.4014826,-14.652042237698495,-0.3012488010893983,0.9131135072235135,0.10553828654629968,8.40584628088503,-24.279448188245144,-37.134727454666844
1760958423.4114926,-15.095902203360962,-0.31574479503731456,0.9111021161402616,0.11035111274734156,9.054208319002226,-20.791143561214323,-38.64768576919818
1760958423.4217582,-15.562074999365434,-0.33078101327879106,0.9070487124173834,0.11206075179503476,9.493546122113488,-17.34795217111769,-40.21972983317992
1760958423.432093,-16.049637837748175,-0.3452262529624766,0.9008311942355964,0.11017402678703074,9.705048725676411,-14.153874626505758,-41.77038583494258
1760958423.4416351,-16.55603305294208,-0.3578791859725068,0.8923728193032845,0.1044581234343376,9.697330345313807,-11.421587193866435,-43.204529543033566
1760958423.4515426,-17.07702644040117,-0.367572381163886,0.881692520974955,0.09498071052287367,9.504484115699439,-9.359187837297181,-44.413274227043196
1760958423.4615688,-17.60672225453116,-0.37328260722915446,0.8689648135133515,0.08213742154576399,9.18189257282337,-8.15376502112615,-45.27592507937711
1760958423.4716666,-18.13764717136994,-0.3742391158961043,0.8545762776882114,0.0666615267497123,8.800264537015407,-7.95295982238347,-45.66382612349138
1760958423.4815745,-18.660923089906923,-0.37002078809829103,0.8391634132863148,0.049609421097719174,8.438405934533435,-8.846436217012025,-45.4467527428672
1760958423.4915788,-19.1665486661147,-0.36062949410174916,0.823614160899008,0.03231486600106918,8.175273353665387,-10.849763842357715,-44.50207140085345
1760958423.501516,-19.643798345962203,-0.3465226594934385,0.8090168902508313,0.016306264390825862,8.0819906587851,-13.893396808921837,-42.72625108880179
1760958423.511586,-20.081728238322153,-0.32858923976516347,0.7965505989296017,0.003185482767435101,8.214702153521651,-17.819035513838223,-40.04761098927971
1760958423.5215795,-20.4697591163556,-0.30806462162872883,0.7873268148342477,-0.005526741533282933,8.60921862643252,-22.384723475026586,-36.43864375032933
1760958423.5315595,-20.798295831225865,-0.2863974061979233,0.7822093345548066,-0.00856592762716423,9.278195648811527,-27.27879174826097,-31.92603924978203
1760958423.5414782,-21.059339853739477,-0.2650944662822612,0.7816454172153421,-0.005098459137882919,10.211042139949635,-32.1415479390628,-26.596668039020145
1760958423.551616,-21.24705212518446,-0.24557318033522085,0.7855408584103045,0.005131773010881396,11.376088267031115,-36.59268910707815,-20.598161414903444
1760958423.5615594,-21.358222210790835,-0.22904257479291898,0.7932053503186233,0.02171359213934443,12.724044756117545,-40.261901089003146,-14.133244377484912
1760958423.5714135,-21.392596793361612,-0.21642432359748445,0.8033865833098586,0.04355875544626366,14.19169881660206,-42.81993906856896,-7.447599386567403
1760958423.5817404,-21.353019608404733,-0.2083155308935418,0.8144018599535963,0.06898262613033904,15.705191462206718,-44.007549069143074,-0.8117726065150079
1760958423.5916717,-21.245341221485088,-0.20499014829868684,0.8243638220661851,0.0958690408542565,17.182966725946134,-43.659769002358324,5.501505945609845
1760958423.601437,-21.078074443502302,-0.2064339260923001,0.8314818952065796,0.12189642634057615,18.539208094492135,-41.72338319393831,11.242315113764832
1760958423.6116118,-20.861799663822772,-0.21240602834909705,0.8344037955022067,0.14478988477340124,19.688834261415963,-38.265636045318594,16.207858376975594
1760958423.621651,-20.608359255881275,-0.22251579426330323,0.8325446860925684,0.16256030658036139,20.554693164637186,-33.47281685043226,20.26282235009742
1760958423.631602,-20.329914018850005,-0.23629641772565993,0.8263409264548363,0.1736986795403511,21.076658536396042,-27.638055426157006,23.352747625145277
1760958423.6416795,-20.03796080574054,-0.2532549717454241,0.8173664551789274,0.1773085012569168,21.221345614923152,-21.138627964362232,25.508168634835254
1760958423.6516142,-19.74242491448103,-0.2728857880242682,0.8082645608190449,0.17317403898602923,20.99052266223475,-14.404235083998957,26.838519655052977
1760958423.661608,-19.450939120562445,-0.29464775756362194,0.8024742946545605,0.16177039628631923,20.426165137441387,-7.878984042907804,27.5163026196753
1760958423.6714902,-19.16839799675028,-0.31791556983444513,0.8037656112541417,0.1442218503068721,19.610415167416573,-1.9809873920077488,27.75347190694931
1760958423.6815717,-18.896831690496057,-0.34191720284376037,0.8156353412824067,0.12221206246310386,18.659328601646777,2.935735823783627,27.77313300431033
