timestamp,angle,linear_acceleration_x,linear_acceleration_y,linear_acceleration_z,angular_velocity_x,angular_velocity_y,angular_velocity_z
1760516859.1026323,-4.775344088671073,-0.023795681362468717,0.9664834783644682,-0.17142809211043292,7.090332691993064,0.6373650446413773,13.878034714863855
1760516859.1127422,-4.49490580344687,-0.01528436610888898,0.9662281702710801,-0.16997214913907277,7.12171980192822,1.6246580486627524,13.79568785976455
1760516859.1227155,-4.208380365458414,-0.008220795013152432,0.9652502957743174,-0.16801569725255347,7.184635184699632,2.873735920548448,13.801193719984463
1760516859.132854,-3.918879474763455,-0.002578429751465653,0.9633733705881599,-0.16573562105314066,7.279701977837483,4.32647782907937,13.894988592761957
1760516859.1428845,-3.6290257803057733,0.0020530002796064614,0.960523549250763,-0.16337662617621473,7.403143864038012,5.897530218881267,14.06633211522726
1760516859.1526334,-3.340396403399478,0.006397214386942449,0.9567792726911842,-0.16124680706987374,7.547360549900298,7.483637029866055,14.295002901468747
1760516859.1626637,-3.0532004437023867,0.011353033198899734,0.9524133477668355,-0.1597074810178618,7.701969859304492,8.974713199131873,14.553958511770908
1760516859.172702,-2.7662675441596702,0.017808925428248235,0.9479124053535926,-0.15915295835407234,7.854999184460108,10.265332045214548,14.812415593293531
1760516859.1826413,-2.4773629115756846,0.026444796159966782,0.9439586232165423,-0.15997627696827874,7.993925673512198,11.265326964918838,15.03878371640579
1760516859.1927085,-2.183774595885254,0.037561236509438725,0.9413638297094632,-0.16252129374634827,8.106387376228662,11.90840493053962,15.203032048909208
1760516859.2029612,-1.8830634411820995,0.050970531677858734,0.9409557159806636,-0.1670279313309646,8.180556622200578,12.158010217070656,15.27833547246664
1760516859.2126865,-1.5738422712035083,0.06596805662902029,0.9434290098900171,-0.17358222422966313,8.205304994916371,12.010083774802515,15.242115159739024
1760516859.222947,-1.2564590187263978,0.0813854578623811,0.9491890812052894,-0.18208401464588594,8.170348761244622,11.492730971325328,15.076742021626332
1760516859.2329185,-0.9334830837882843,0.09571618029615468,0.9582263608312077,-0.19224281122465747,8.066538052064848,10.663074895501984,14.770172170851623
1760516859.2426918,-0.6099189818069806,0.1072998911850066,0.9700606789397397,-0.20360708775824907,7.886362275070166,9.60174890316488,14.316668985686974
1760516859.2527447,-0.2930951850792546,0.11454769887652592,0.9837805532574075,-0.21562464384902597,7.624624045981134,8.40562104832373,13.717601488011553
1760516859.2627797,0.007788348663133114,0.11617837564956585,0.9981739704685814,-0.22772268812719498,7.279132040049282,7.1794597438219085,12.982153887893157
1760516859.2730145,0.28241429782280325,0.11142115553007226,1.011914631357095,-0.2393890522667659,6.851223986228971,6.027306883313435,12.127682948309687
1760516859.2826998,0.5202972085223023,0.10013595849454371,1.023749615606264,-0.25023501828634404,6.345970974759233,5.044279149999957,11.179449809148368
1760516859.292751,0.7117703828435079,0.08281739927998026,1.0326426081954885,-0.2600278566595276,5.772009297739712,4.309370763297801,10.169543768826399
1760516859.3027577,0.8488457216175025,0.060482567679287794,1.037853648389807,-0.26869333478164026,5.141045805998371,3.879628483587537,9.134989336377549
1760516859.312641,0.9258270762061032,0.03447898688472852,1.0389633314605726,-0.2762976000185683,4.467140991334122,3.7858828228995853,8.115227690900815
1760516859.3227298,0.9396348917040427,0.00626944480867776,1.0358634822391852,-0.28301924095808856,3.7658754216969963,4.030112674348203,7.1493148545166765
1760516859.3327243,0.8898721554535154,-0.02275332633675147,1.0287352308288735,-0.2891169384385821,3.053471564075446,4.584516725724676,6.273231156327214
1760516859.3427174,0.7787034539225126,-0.051388499820960075,1.0180242468876235,-0.294890811805313,2.3459113387692407,5.392422650673371,5.517643709893571
1760516859.3527935,0.610628928086221,-0.07867335164661116,1.004410825324173,-0.30063178035405685,1.6580827353181014,6.371199950768906,4.906332632517273
1760516859.3627608,0.3922238444976071,-0.10385887084861477,0.9887683426590193,-0.30655589937520866,1.003006399047313,7.417280412837986,4.455326158798753
1760516859.3728588,0.13189158905757192,-0.12633298362502596,0.9721092893621889,-0.3127286703198183,0.3912199020802906,8.41320966803311,4.1726335918634785
1760516859.3829973,-0.1603504206484747,-0.14551822274804052,0.9555268408424468,-0.318993579695933,-0.16958791935302925,9.236392108971254,4.058350920160568
1760516859.3926578,-0.4730607494392255,-0.16077347865463393,0.9401422492439668,-0.32492449203130935,-0.6746156075933086,9.768922429905638,4.104864805244835
1760516859.4026945,-0.7935742781988253,-0.17132730130218923,0.9270608041779909,-0.3298200298294748,-1.12163877212566,9.907690642432364,4.296911855129098
1760516859.4128594,-1.1082684208205684,-0.17626514459093628,0.9173277520953756,-0.33275079361514837,-1.5104236479563873,9.573844884470821,4.6113629436867125
1760516859.4226298,-1.4029618554133254,-0.17458509887184281,0.9118705380365635,-0.3326608236444835,-1.8420553605607415,8.720708503486025,5.016777599987802
1760516859.432685,-1.6635033228229887,-0.16532490940156552,0.9114200799732077,-0.32851561198375184,-2.1184720708327394,7.339366853309293,5.472969357403061
1760516859.4426754,-1.8765734565417367,-0.14774843119060183,0.9164170898795112,-0.31948042096454776,-2.342525688083589,5.46134104662882,5.9309799840483866
1760516859.4530528,-2.0306695800380576,-0.12156581769591931,0.9269204367061714,-0.30510479328090306,-2.518814688576476,3.1580074825178444,6.333920388445048
1760516859.462787,-2.117188738603033,-0.08715229079369081,0.9425372710292467,-0.2854839072777902,-2.655362729959359,0.5366549527132451,6.619066144594537
1760516859.472857,-2.1314846817755666,-0.04572652047618471,0.9623904586690476,-0.26136704327118765,-2.765992003773199,-2.266733290853577,6.721400929131378
1760516859.4828992,-2.0737570249351065,0.0005501081912777087,0.9851336402641017,-0.2341878323925671,-2.8730189168406897,-5.09772632919949,6.57851763924014
1760516859.492896,-1.949629999463651,0.04858996510314183,1.009021642476841,-0.20599812167785023,-3.0097293836803436,-7.796327878198445,6.1364661897397745
1760516859.502641,-1.7702876654703903,0.09454221168984299,1.032041361447181,-0.17929582023268925,-3.221997689061302,-10.211916808078463,5.355831774500302
1760516859.5126603,-1.5520590472737128,0.13411703692991533,1.0521004378858763,-0.15674803419690456,-3.5683993871115183,-12.219374815522867,4.217085109990605
1760516859.5227578,-1.3154047478985207,0.16305524088051557,1.0672580186449079,-0.14082683699139695,-4.118234045755198,-13.73505883139295,2.724116074773603
1760516859.5327303,-1.0833471438684688,0.17768820371449434,1.0759690091897047,-0.1333978084035644,-4.947042523911877,-14.730644727260135,0.9049119526902718
1760516859.5427454,-0.879489186856747,0.17549831244005068,1.0773047109278342,-0.1353279735875509,-6.129530365357311,-15.242255319474593,-1.1913445731829524
1760516859.5527492,-0.7258537051642975,0.15557347307718605,1.071110314431141,-0.14619913863558587,-7.73033631256107,-15.372029709797575,-3.5008591232610238
1760516859.5627377,-0.6408237348248552,0.11886195406140115,1.0580657636048751,-0.16420934418937008,-9.793771321163542,-15.27980545046937,-5.954740628892762
1760516859.5726857,-0.6374650488342647,0.06817371387930449,1.0396323232874156,-0.18631148085477836,-12.334317009175487,-15.164122631696937,-8.489854345824858
1760516859.5826576,-0.7224662044421495,0.007925354870824849,1.0178888167258635,-0.20858354570952164,-15.330022417755888,-15.234117693221085,-11.058897279952037
1760516859.592828,-0.8958463928980549,-0.05633007025651247,0.9952815147336337,-0.22676989652696455,-18.72072052998093,-15.676345572744708,-13.63761913160607
1760516859.6029344,-1.1514669096397991,-0.11851737963397119,0.9743247962348035,-0.23689478808102526,-22.41215584757363,-16.622265868137397,-16.22776269588838
1760516859.6127188,-1.478254398267751,-0.17271094973405096,0.9572949552500732,-0.23583745246520021,-26.285888165680376,-18.122449753706054,-18.8553879975431
1760516859.6227145,-1.8619306310590884,-0.21377597696276954,0.9459577603307996,-0.2217721977032659,-30.21357754702106,-20.132462728987967,-21.56542604077913
1760516859.6326454,-2.286976374696347,-0.23790623369353053,0.9413627661757363,-0.19440964993621215,-34.073288311605886,-22.513307625537823,-24.41417117068202
1760516859.6426795,-2.7385537717124855,-0.24301074652092852,0.9437267822716584,-0.15501509327202342,-37.76496618792378,-25.046901653966525,-27.461658065006986
1760516859.6526265,-3.2041638219391686,-0.2289270356190011,0.9524189827365785,-0.10621785185115969,-41.222289077047016,-27.464769810099163,-30.765416256679618
1760516859.6626778,-3.6748942577135018,-0.19745435766446634,0.9660512381997911,-0.05165618648363279,-44.41861660261028,-29.486159721952898,-34.37616236881575
1760516859.672673,-4.146188440544405,-0.15220691497192948,0.982666429542416,0.004478490840716253,-47.36569565681983,-30.860219573800737,-38.33496448187904
1760516859.6826432,-4.618120540456953,-0.09829224686627423,1.0000039842657642,0.05792795135317095,-50.105039972068134,-31.40590385634752,-42.67066615799754
1760516859.6927993,-5.095193839778029,-0.041831312519242526,1.0158089567212039,0.1048197561997687,-52.69331266767592,-31.043096454843013,-47.39608215182887
1760516859.70279,-5.585694592837233,0.010645649104955558,1.0281418688930575,0.1420370778463007,-55.184293173741864,-29.809210188292386,-52.50170056718396
1760516859.7128448,-6.100644079164778,0.05287288158653739,1.035642077016705,0.16747714732885138,-57.61078646424015,-27.857308023762727,-57.946365265816254
1760516859.7226639,-6.652408062345602,0.07951730590179161,1.0376992615020546,0.18018990974914798,-59.96993266234304,-25.434646345860497,-63.64572567990994
1760516859.732655,-7.253054479576539,0.08675535971614799,1.0344993983974453,0.18040311218829116,-62.214754469592926,-22.844335441064093,-69.46099491900553
1760516859.7426386,-7.912594621844488,0.07269043253926975,1.0269339993462778,0.1694474683416264,-64.25357312494758,-20.396827428157057,-75.19213439835269
1760516859.7526784,-8.637286690848688,0.03758792644922506,1.0163895157247262,0.14959623189260987,-65.95744693046302,-18.360774517399257,-80.58002380352976
1760516859.7626696,-9.428208643451335,-0.016061824175423157,1.004460029669073,0.12382827238387438,-67.1744110972384,-16.923112174122675,-85.32083125246751
1760516859.7726483,-10.280310250279612,-0.08365951648606897,0.9926430071186436,0.095519753805298,-67.74826019746574,-16.165738037592305,-89.09290781213708
1760516859.7826946,-11.182124896496234,-0.15884650970932893,0.9820796401632271,0.06807992758207922,-67.53898617762115,-16.061820544495,-91.59311627667863
1760516859.7927005,-12.116253507231757,-0.23415267025154488,0.9733889458572245,0.04457253561714358,-66.44179511973144,-16.490086090039377,-92.57671680477911
1760516859.8027139,-13.060628126475299,-0.3019317510137048,0.9666222465416179,0.027387106843032947,-64.40192199421973,-17.261846454847813,-91.89349647333023
1760516859.8126566,-13.9904380803778,-0.35544740503442296,0.9613353420714583,0.018024369939647452,-61.42326145365336,-18.153996383188232,-89.51302938216529
1760516859.8227594,-14.880486582705444,-0.38988191250546883,0.9567473583838637,0.017033925760031123,-57.57004217541215,-18.941788082901343,-85.53382741235242
1760516859.8329782,-15.707670147375326,-0.4030395859551084,0.9519395249120627,0.024101416161678674,-52.962102392630946,-19.427026443602113,-80.17439952987075
1760516859.8426516,-16.453255750423477,-0.3955976281972026,0.9460484224357563,0.03824411562412615,-47.765327155355706,-19.459332271282353,-73.7480807511864
1760516859.8528812,-17.104672589665466,-0.3708747887502992,0.9384204465053269,0.05805361096729763,-42.17915694554253,-18.94963051450095,-66.62679412140524
1760516859.8626525,-17.656621916998475,-0.3341989469782495,0.9287087992615412,0.0819270329524654,-36.42281281830789,-17.87590427927462,-59.2007124259602
1760516859.872732,-18.111415626578896,-0.29202845821176326,0.9169066423198297,0.10824774300573341,-30.721337561332337,-16.28164564551512,-51.8407297008358
1760516859.8826532,-18.47855772788588,-0.25100643991926064,0.9033196024002405,0.13550155715132217,-25.292092097499815,-14.267565830171566,-44.86905671191947
1760516859.8927414,-18.77366593185985,-0.21710764314514147,0.8884886195979651,0.16233634624359794,-20.332181450126573,-11.977281180232964,-38.5408351233912
1760516859.9027812,-19.01688684298088,-0.19499033705493554,0.8730803863959099,0.1875856356282631,-16.007396762426158,-9.57806379552583,-33.03714268795821
1760516859.9128156,-19.23098815092573,-0.18760824601264642,0.8577666294546538,0.2102787436167521,-12.443436251930333,-7.238328012181206,-28.467662535641118
1760516859.9229515,-19.439318893044877,-0.1960843320185199,0.8431145129598615,0.2296529241141052,-9.720148607679874,-5.104155586154717,-24.87993517417941
1760516859.9327219,-19.66382203983566,-0.21981044501524624,0.8295078098316052,0.24517185654165213,-7.869212471084154,-3.277656095674293,-22.271649873387503
1760516859.942691,-19.923271069265564,-0.25671940233641466,0.817111493245457,0.25654537741481576,-6.875137424141125,-1.800145157256127,-20.602829860394788
1760516859.952663,-20.231884966579358,-0.3036721977385024,0.8058812849601327,0.2637414299083123,-6.678997106447131,-0.6428592735225392,-19.805791109369846
1760516859.9627402,-20.598444021663735,-0.3569010532487415,0.7956070977511739,0.2669829602359473,-7.184107740001253,0.2928558614047249,-19.792019796989642
1760516859.9726608,-21.025971559490177,-0.4124463405972292,0.7859706655131502,0.2667263711997299,-8.262991980692643,1.1652098719629642,-20.456206812732567
1760516859.982689,-21.511969906625275,-0.46653083672946416,0.7765982941750147,0.26362033683057473,-9.76524958298499,2.1723894059182323,-21.67833218264776
1760516859.992662,-22.049125466415862,-0.5158354272241643,0.767099757069705,0.2584442414636696,-11.526144709966342,3.5262134300330064,-23.324887528327707
1760516860.0027165,-22.626351332139414,-0.5576706729115501,0.7570975358287215,0.2520271701099328,-13.375687584801875,5.422672963924311,-25.250221604920657
1760516860.0126536,-23.230023118899318,-0.5900643986040592,0.7462584507120059,0.2451528954840724,-15.147797282296564,8.013507147543795,-27.298764934845167
1760516860.0227401,-23.845273999652424,-0.6117960886131951,0.7343375242142218,0.23846243825905417,-16.688938001282004,11.382730175575794,-29.30862307611615
1760516860.0327604,-24.457233682919433,-0.6224042087492434,0.7212333758585082,0.23237088636286618,-17.865549231068005,15.531149707913865,-31.116747258990678
1760516860.0426676,-25.05211590960887,-0.6221797753959304,0.7070423086043556,0.2270163410938342,-18.569689351620973,20.37062254054381,-32.56559247239746
1760516860.0527275,-25.61808044341805,-0.6121465093948255,0.6920918974776059,0.2222535179910591,-18.72255560806583,25.728367822435132,-33.51085964322873
1760516860.0626702,-26.14582099903789,-0.5940196614219011,0.6769376032798262,0.21769226030084646,-18.275847405965763,31.360351552442523,-33.829635019505275
1760516860.0726674,-26.628859988650945,-0.570133056039969,0.6623154102283269,0.21276640781370695,-17.21121752781435,36.97166767586597,-33.428059505307445
1760516860.082734,-27.06356069225511,-0.5433247974829649,0.6490547135923735,0.20680964075836755,-15.5382679395368,42.241005421776,-32.24762338527551
1760516860.0927424,-27.448891917768723,-0.5167738705583104,0.6379651273899757,0.19911850575304801,-13.291668599854159,46.845848540237874,-30.26926439094955
1760516860.1029673,-27.785995094263527,-0.4937829565039066,0.6297176420668329,0.18899688592253172,-10.527937430430516,50.48519530056695,-27.514605811553857
1760516860.1128693,-28.07760861946093,-0.47750946759868135,0.6247441052063613,0.17579170907788658,-7.32214275893093,52.89735302597211,-24.043902593783848
1760516860.1226864,-28.32740284904386,-0.47065766837373313,0.623177885071765,0.15893767385540508,-3.7643192212766876,53.871546145872955,-19.950594922508813
1760516860.1326802,-28.539276742215907,-0.475157508562601,0.6248523044234413,0.13802538153821292,0.04506991118701824,53.25338719675099,-15.352790959750992
1760516860.1427138,-28.716667457675477,-0.4918665263172307,0.6293637133230265,0.11289452357730387,4.00145542729465,50.94545108815525,-10.382442711369817
1760516860.1527524,-28.86192671433104,-0.5203359349260245,0.6361950021647261,0.08373786599621817,8.00477781474834,46.905064014626504,-5.173349611716523
1760516860.162678,-28.9758187462268,-0.5586793375569884,0.6448838317318734,0.05119040526736591,11.970129257888976,41.14177404693333,0.15066463909602273
1760516860.1727998,-29.057190103753936,-0.6035753918533728,0.6552091211723048,0.01637699894616491,15.83920067915557,33.71668933012117,5.4860633923301805
1760516860.1826966,-29.102849194067606,-0.6504278980969949,0.6673622296765617,-0.019098271684646628,19.590509884561563,24.74498859259843,10.757263875823947
1760516860.1929598,-29.10767253084454,-0.6936960636331467,0.6820676321237739,-0.05322146954985648,23.245943317114456,14.401598494075506,15.920845636852013
1760516860.2028077,-29.06492606167354,-0.7273876688111381,0.7006202749422973,-0.0836825959613713,26.871106375139565,2.928560393226842,20.96581981229424
1760516860.2129934,-28.96676025666395,-0.7456782356844237,0.724811297152527,-0.10801361557352473,30.5673460143936,-9.3586497964664,25.90974393744996
1760516860.222673,-28.804820019502472,-0.7435897375050065,0.7567219810696453,-0.12373643062001814,34.45415982715985,-22.06921491786402,30.790641696698025
1760516860.2326953,-28.570914891291174,-0.7176430443057462,0.7983819781791655,-0.12852055708918533,38.64217285668787,-34.7425815312109,35.65487076501166
1760516860.2426898,-28.257716828478333,-0.6663920868125678,0.8513149297635446,-0.12036422412358584,43.198987721192054,-46.863518977011175,40.54147482895527
1760516860.2529984,-27.85947473002708,-0.5907550949124796,0.9160296814820263,-0.09781858914251038,48.11275699587853,-57.886786221578745,45.464301610329045
1760516860.2626855,-27.372740577819698,-0.4940822602651947,0.9915478971182086,-0.06026736236062582,53.260657757378375,-67.26959246853208,50.394193717467665
1760516860.272728,-26.797086563100017,-0.381938666998591,1.0750758113084258,-0.008250015614847938,58.390651325518526,-74.50850212472159,55.244567706435845
1760516860.2829762,-26.13576166789751,-0.2616245791058372,1.1619223381168198,0.05622260576190555,63.12418447370795,-79.1768259424319,59.86428255156588
1760516860.293006,-25.396201191836848,-0.14148854341781278,1.2457394538180226,0.12945307295183411,66.98456477216968,-80.95887887482489,64.04145260470473
1760516860.302812,-24.590277273842833,-0.030109679847491123,1.3191158507459264,0.20605584293218332,69.45102152132114,-79.67836930634712,67.5204927737373
1760516860.3127875,-23.734176093991138,0.06455949200405542,1.3744898166271498,0.27926229916985285,70.03286066237985,-75.31913670809018,70.03218754854937
1760516860.3229525,-22.847817401241134,0.13598628047598477,1.4052657499770305,0.34156252639354745,68.35282954915662,-68.03713138621981,71.3333548982837
1760516860.3328612,-21.95379351325015,0.17968335005389774,1.4069384366072126,0.38562798281364785,64.22506063336415,-58.162812881730986,71.24956940492815
1760516860.3428612,-21.075884068087294,0.19358959034367626,1.3779796932362225,0.40537952041275377,57.711848679395395,-46.19315955173612,69.71251181740233
1760516860.3529038,-20.237277319869072,0.17818393528457013,1.3202555734578016,0.3970154040944769,49.14581183195806,-32.77242336123626,66.78375753937517
1760516860.3627906,-19.45867954777423,0.1363633954857012,1.2388397203107202,0.3598021571494835,39.10983362747307,-18.660789725906707,62.659455676450854
1760516860.3726995,-18.75651457620846,0.07313398622277491,1.141255275576313,0.2964558672971167,28.375581165600956,-4.690498454882452,57.65463144052336
1760516860.382702,-18.141411524103223,-0.0048593742253455734,1.0363510888819616,0.21300139369208373,17.810154563282705,8.289880226589855,52.170219925106984
1760516860.392753,-17.617161049358934,-0.08996822278705602,0.9331132061595396,0.11808710553474551,8.267033227360471,19.48035524788438,46.64887243735888
1760516860.4036217,-17.18029251497984,-0.17434467068835274,0.8396824025484897,0.021839328044682485,0.48023446932473035,28.198485664799964,41.526441397558145
1760516860.4127645,-16.820379877570733,-0.250869768607345,0.7627185346572577,-0.06555869369818978,-5.020945602744061,33.944852489053055,37.185356842953716
1760516860.4233708,-16.521111886262347,-0.31408269025290736,0.7070991179633953,-0.13530953740888457,-7.964353369953799,36.45574857747486,33.91489250407168
1760516860.4328394,-16.26206062592579,-0.36091919351134033,0.675836523531845,-0.18119836740725365,-8.349399177461839,35.733744788181724,31.882282279533936
1760516860.4429522,-16.020966253300696,-0.39105567218451026,0.6700784482259619,-0.2003275449418466,-6.4254455635516985,32.04923176232888,31.11774896950674
1760516860.4534345,-15.776251209885528,-0.40672127289241705,0.6891078418184118,-0.1932785482490407,-2.6416665485156106,25.91084354972581,31.515264723264437
1760516860.4626977,-15.509411250714937,-0.4119708263633814,0.7303441125548347,-0.16372042496701675,2.4210100654291593,18.008412739402967,32.84899169375915
1760516860.4728742,-15.206926280556127,-0.41156341138819624,0.7894237253844055,-0.11759918803921182,8.124590706894562,9.136877939770995,34.80311377079039
1760516860.4826887,-14.861409186398923,-0.40971617527720083,0.8604638052784469,-0.06210749926121354,13.84526055730797,0.11210787352758608,37.01078346877433
1760516860.493055,-14.47186453652311,-0.4090600763970321,0.9365670335951011,-0.0046335763679299325,19.03350124599242,-8.31025724694876,39.09672921569699
1760516860.5027566,-14.043120029493366,-0.4100876424827165,1.0105376268990498,0.04815917456868536,23.258288452266846,-15.503497600987346,40.71794018324783
1760516860.512696,-13.584650307160848,-0.4112515334555623,1.0757035399913708,0.09102867637993536,26.23334373046256,-21.019132464041935,41.59766982567452
1760516860.5227056,-13.10907999719939,-0.4096788001018927,1.1267090765243741,0.12058059128451176,27.8256135447365,-24.61274631072006,41.54944723334014
1760516860.5331652,-12.630626182525782,-0.4022653799227633,1.160141173813661,0.13541319729633666,28.047695524735875,-26.245065003181747,40.48946453004948
1760516860.5429645,-12.163655974486627,-0.3867775318698685,1.1748662462737043,0.13599859556163663,27.037052103107076,-26.06001869349252,38.437288288839746
1760516860.5529995,-11.721439436833407,-0.3625857838602653,1.1719969649184463,0.12434509387326713,25.02575032792885,-24.3444989224367,35.50612280969092
1760516860.5633044,-11.315110278094323,-0.330821924844979,1.1544957603210102,0.1035092570491246,22.30507885630303,-21.476915744326813,31.884772603322762
1760516860.5743647,-10.95282741335727,-0.2939994760604298,1.1265236720149499,0.0770420118080422,19.18948025236225,-17.87278318587457,27.81401458296397
1760516860.582994,-10.639156935730792,-0.25532536979748605,1.0926987666709709,0.048456500685185,15.98369691708574,-13.935044866867573,23.560297505088442
1760516860.5927458,-10.374738843454317,-0.21797413656463283,1.0574150153545006,0.020793865998051338,12.956039742693127,-10.014949587724509,19.389567423937386
1760516860.602778,-10.156323910379726,-0.18452562274090537,1.0243215233243723,-0.0036622694586033577,10.319540015992143,-6.386650943229912,15.543664139479501
1760516860.612689,-9.977231475252706,-0.15665505284712047,0.9960096826376718,-0.023506262436921933,8.22162830309085,-3.236006367644786,12.221241833202003
1760516860.6228182,-9.828194348305193,-0.13506610867756574,0.9739132544682456,-0.03818347355577425,6.7419729549658,-0.6618256785212214,9.564586807808373
1760516860.6327264,-9.698464614689604,-0.11960191617394292,0.95839239432892,-0.047856805875840326,5.89725616595135,1.313562880952544,7.653044857887946
1760516860.6426811,-9.576998351867598,-0.10945576813353612,0.9489487208924088,-0.05321516100225591,5.651047908389246,2.7279967684643998,6.503048825873327
1760516860.6528318,-9.45353582760999,-0.10341573332073048,0.9445079364575478,-0.055266122172360356,5.92665645645071,3.660680499437139,6.074032975709554
1760516860.6626918,-9.31943734191231,-0.10009788454671198,0.9437097923681501,-0.05514263179539022,6.620942068211147,4.213501504091444,6.278957005786661
1760516860.672704,-9.16820112348675,-0.09814210666191124,0.9451592806232989,-0.053941241662928054,7.617507756813797,4.494314296790053,6.997824044724009
1760516860.6826954,-8.995654748351043,-0.09635820434433738,0.9476120560734723,-0.05260101400443076,8.798236701423672,4.60337037684224,8.092468511423897
1760516860.6926897,-8.799859830617777,-0.09381862754695407,0.9500856832677095,-0.05182721175613635,10.05263032550342,4.623506933905775,9.420966778078611
1760516860.7030213,-8.580798858123712,-0.08990083911351884,0.9519037637279144,-0.05206059610165895,11.28472442542021,4.614261398826993,10.850244682612306
1760516860.7127724,-8.3399285065877,-0.08428890594165811,0.9526912755049901,-0.05348955977000605,12.417552717548203,4.609735146410566,12.265796585080313
1760516860.7227464,-8.079689240451836,-0.07694816414168003,0.9523440596494683,-0.056097850584213904,13.395259586102327,4.619765207927294,13.577861126000995
1760516860.7328568,-7.803055141689478,-0.06808596546175727,0.9509911729932863,-0.059735994061548205,14.183085367839443,4.633758769368644,14.723872376348544
1760516860.7427,-7.5131882737782645,-0.058105998750595196,0.9489584346650178,-0.06420111269598133,14.765574044550199,4.6263923819545525,15.667472289837733
1760516860.752722,-7.213230418858438,-0.04755751595009672,0.9467311932751439,-0.06930910209444538,15.143476100541818,4.564294878456967,16.394784403927257
1760516860.7628179,-6.906230705860958,-0.03707862872414674,0.9449080478696431,-0.07494575640036355,15.329907453004138,4.412861388105948,16.90895064753696
1760516860.7727005,-6.595181342662669,-0.027335303343287935,0.9441358328519079,-0.08108891041375223,15.346336167394496,4.142492287911528,17.22405838211494
1760516860.7827265,-6.283118695811212,-0.018960424222767277,0.9450218491811284,-0.08780067827850034,15.218873853355545,3.7337561919733364,17.35950195035281
1760516860.7926955,-5.973239499756906,-0.012496979033724136,0.9480333602308305,-0.09519590546685275,14.975160991654073,3.181171582624177,17.3355588192025
1760516860.8028877,-5.668981162827969,-0.008348181830519066,0.9534089090552034,-0.10339817142304586,14.641915972847107,2.495465619166187,17.17058587538084
1760516860.812737,-5.374027194749368,-0.006739459795457013,0.9611070503748399,-0.11249610919679184,14.243050622227637,1.704296495230738,16.879846351723113
1760516860.8227031,-5.0922276537561,-0.007702226136718205,0.9708024777118657,-0.12250991883361792,13.79820552549809,0.8514840580381053,16.47565651088901
1760516860.8327324,-4.827458881408557,-0.011089508668278868,0.9819217254693776,-0.13337292659004818,13.321636075823259,-0.005244716834561748,15.968370107645708
1760516860.8427987,-4.583463557583155,-0.016622239974337392,0.9937051691961211,-0.14492899734570638,12.821524312282424,-0.7980686864879708,15.367717641667358
1760516860.8529642,-4.363698908490405,-0.023948343662423884,1.0052866920212653,-0.15694437893205232,12.29990005677333,-1.4545141381727364,14.68413521310542
1760516860.8626964,-4.171189739879643,-0.03268882562454404,1.0157856091861062,-0.16913061902944893,11.7533493856916,-1.9044197607828404,13.929871939587704
1760516860.8727849,-4.008358478310992,-0.04245288243731875,1.024402216061623,-0.18117263758669008,11.174560794781463,-2.0879812192577556,13.119794784201266
1760516860.8829288,-3.876804948513972,-0.05282240455460391,1.030502656116188,-0.19275412604468853,10.554561741386186,-1.9640107018936817,12.27188855922741
1760516860.8926876,-3.7770365138039157,-0.06332396824428192,1.0336773902481453,-0.20357329543539102,9.8853078811336,-1.5171693522921035,11.407465712485255
1760516860.9032586,-3.7081901689229957,-0.07341345392199189,1.0337637998962372,-0.21334647418548666,9.162173953823615,-0.7627583660426875,10.551057621438375
1760516860.9127707,-3.667820911268364,-0.08249256574400808,1.0308342516280877,-0.22180358437014353,8.385895548447241,0.25217689201426335,9.729891978857513
1760516860.9226828,-3.651840879137526,-0.08996395111340691,1.0251595601986865,-0.22868490094168917,7.5636199919878075,1.452140317177125,8.972834761975552
1760516860.9327586,-3.6546776246644446,-0.09531861698717514,1.0171606528554618,-0.23375002389352645,6.708907520209104,2.7407839350805387,8.308740381713239
1760516860.9428124,-3.6696797602578344,-0.09823761490495209,1.007359544670237,-0.23680623940044562,5.8407317891322545,4.011840236165197,7.764303985876783
1760516860.952862,-3.689742593887643,-0.09868159156338395,0.9963367437306258,-0.23775440267933437,4.98170933667446,5.161696918966304,7.361685976196324
1760516860.9627552,-3.7080713109951375,-0.09694114744394146,0.9846977319458132,-0.2366393255540814,4.155897894112263,6.101565941524202,7.116302695635849
1760516860.9727087,-3.7189608317493192,-0.09362903779117049,0.9730481542373195,-0.2336847793666896,3.3865246300391143,6.767281365390263,7.035192531033376
1760516860.982718,-3.718457261631102,-0.08960784813277853,0.9619766226648846,-0.22929537613761394,2.693945457238671,7.12523604269965,7.116259055513654
1760516860.9927268,-3.7047766130979047,-0.08585954961470357,0.9520442041933764,-0.2240174660776044,2.094023051147397,7.173715076531007,7.348488668612276
1760516861.002733,-3.6783921944942595,-0.08331518374548601,0.9437787253861228,-0.21846307696681103,1.5969829844687957,6.939732843913542,7.71299661174802
1760516861.0127258,-3.6417606402158453,-0.08267317478316479,0.9376697281969245,-0.21320989338480417,1.2066988992624426,6.4722359313844375,8.184543315685362
1760516861.0229344,-3.5987266553120225,-0.0842401885472151,0.9341579798829532,-0.20869520535191557,0.9202859082226319,5.83304496309437,8.733043718384483
1760516861.0329325,-3.55370872456736,-0.08782597575403114,0.9336138453800292,-0.205123994231147,0.7278526597887057,5.087115003164715,9.324599927963632
1760516861.0427897,-3.5108073870774508,-0.09271480268302933,0.9363020553112712,-0.2024113962177127,0.6122827796038179,4.29362160175007,9.921728079138774
1760516861.0527713,-3.47299191280767,-0.09772545473845548,0.9423353598082469,-0.20017617315702196,0.5489851063760353,3.499091229740771,10.48270188604605
1760516861.062714,-3.441514614085831,-0.10136161994575782,0.9516246342013079,-0.19779304126313388,0.5056536378429729,2.7333587188579536,10.960250957429524
1760516861.0727632,-3.4156758635498363,-0.10204327521902497,0.9638369957312423,-0.1944990042363845,0.4421884212505437,2.0086192310560556,11.300163746649394
1760516861.0827637,-3.393014041656017,-0.09839565853194038,0.9783755690155762,-0.18953632236587648,0.311024275463775,1.3213235138425188,11.440574059641971
1760516861.0927308,-3.369922408428178,-0.08955664326489823,0.9943936356001023,-0.18230675703506458,0.05816936789682876,0.6562085631419022,11.312780590957587
1760516861.1029296,-3.342609022617432,-0.07545059802463773,1.0108511714864783,-0.1725100516163108,-0.37476109167828675,-0.008598930854190476,10.844309341098075
1760516861.1128352,-3.3082370358655444,-0.05697269097914433,1.0266136846130176,-0.16024294933147915,-1.0473449329399351,-0.6966897339239394,9.964569103282214
1760516861.1230137,-3.2660333487978184,-0.03603454183937469,1.0405836118656526,-0.14604051423647768,-2.0160269221462235,-1.430004576282173,8.612911057535102
1760516861.132765,-3.218145471023169,-0.015438149671477561,1.0518458751907438,-0.13084672415321022,-3.3289752233405525,-2.228064641850525,6.74827848745973
1760516861.142706,-3.1700558768272287,0.001433681718365185,1.0598041821138293,-0.11590600862832495,-5.020679392546107,-3.1102667372321715,4.359055736117508
1760516861.1527417,-3.1304204014027035,0.011096321745969619,1.064284643999733,-0.10257427458351104,-7.106992824740848,-4.10071181946945,1.4713312511091752
1760516861.162955,-3.110279944810362,0.010563641500993079,1.0655870564814025,-0.0920618215406146,-9.58131356931704,-5.233797075529355,-1.8463270027357095
1760516861.1727588,-3.1217056965502517,-0.002020307765244982,1.0644687317730182,-0.08514436181552072,-12.41248056467045,-6.557713076438124,-5.483264403045886
1760516861.1828055,-3.1760668532284915,-0.02684612313181469,1.0620499823599387,-0.08190609826819716,-15.544851173425362,-8.13256423046389,-9.29337586267592
1760516861.1927466,-3.282223558769093,-0.062140061742207306,1.0596379287201512,-0.08159333392209034,-18.900990878501247,-10.020494210070508,-13.108080422098153
1760516861.2028828,-3.445002887153549,-0.10420745095351101,1.0584806192749674,-0.08264183778904748,-22.387376000361304,-12.267071494652226,-16.754528472134503
1760516861.21293,-3.6642804646264238,-0.14784696764247776,1.0594841365261012,-0.08289699792804422,-25.903291896572217,-14.875938919788119,-20.076801868768626
1760516861.2227077,-3.934866963417332,-0.18707165170730122,1.0629428572823754,-0.07999216758289707,-29.35253407836644,-17.78154168737144,-22.957102201432185
1760516861.232869,-4.247227337560053,-0.21600390493241847,1.0683401434223845,-0.07180927051400347,-32.656624472612755,-20.826608928099375,-25.33373399182069
1760516861.2427046,-4.58889708908056,-0.22978534006636359,1.074271289439102,-0.05692683444835291,-35.76732307934854,-23.75124579558252,-27.213116550838308
1760516861.2527523,-4.946345845583275,-0.22535127527839943,1.0785235296712505,-0.03496385659726545,-38.67563075046136,-26.198866526738115,-28.673932389293043
1760516861.2627356,-5.306988901613257,-0.20195026334161528,1.078322313021318,-0.006749198486789364,-41.414551130798834,-27.741188357466353,-29.86255949423981
1760516861.272717,-5.661054327285638,-0.16133217802036023,1.0707241655429152,0.02571983956415572,-44.05375472385174,-27.92084618606603,-30.979928415968764
1760516861.2827165,-6.003058129951136,-0.10757818703232531,1.0531099315803614,0.059526427548992795,-46.685890026254754,-26.306698090144124,-32.26082891645675
1760516861.2927687,-6.332705383125729,-0.04659832806700595,1.0237111550869358,0.09124958782672073,-49.40627432860699,-22.55429438943659,-33.94747637780493
1760516861.30289,-6.655111658561032,0.01462569484836392,0.98208766519481,0.11747650030638744,-52.28953331553134,-16.462754396899342,-36.25985136601447
1760516861.3128097,-6.980323184632619,0.0689302763436032,0.9294676412104864,0.1353277695793854,-55.367916725905765,-8.019620774245812,-39.365952626678954
1760516861.322693,-7.322202141082552,0.1098472232428165,0.8688667688146692,0.14291262203850885,-58.61616170242086,2.5729766261604614,-43.35559720297918
1760516861.3327038,-7.696825389039901,0.13233685606354822,0.8049245922695222,0.13964357161992594,-61.94680152894833,14.89484574374557,-48.221553278450216
1760516861.3426907,-8.12060509965241,0.13329211094102325,0.7434329078618485,0.12635842128861616,-65.2178166685814,28.32827188852982,-53.85129480344803
1760516861.3528066,-8.60836435286702,0.11178771623283856,0.6905791801241378,0.10522120953203123,-68.25179281845995,42.101964886943065,-60.03136497522396
1760516861.3627048,-9.171586878713637,0.06909179176765501,0.651988932863256,0.07941020909280071,-70.86284382976056,55.35640405215844,-66.46444407085711
1760516861.3728268,-9.81702013148117,0.008466007876110515,0.631728698634057,0.05265010485416898,-72.8853111674044,67.226404067027,-72.7972636128881
1760516861.3827713,-10.545765191302642,-0.0652350389965219,0.631503944071238,0.028682619630531116,-74.197593312379,76.93272001432851,-78.65600493541872
1760516861.3927376,-11.352945517013476,-0.14614737146128048,0.6502892443851748,0.010766316928292986,-74.73587516685768,83.86982566490106,-83.684954312247
1760516861.4027169,-12.228000736218322,-0.22809411958068626,0.6845087382624904,0.0012636010250780632,-74.49553555447332,87.67486855664566,-87.58381984910741
1760516861.4128237,-13.155589150285362,-0.30528268601218717,0.7286951088264438,0.001355075548352404,-73.52138003299207,88.26524714927652,-90.1390860237409
1760516861.4228044,-14.11700365207802,-0.37290664367141246,0.7764220999598899,0.010927343593462995,-71.89046559465456,85.8381129021715,-91.24516696141207
1760516861.432769,-15.09192435855303,-0.42759365230311386,0.8212910015579735,0.028668994611205062,-69.69263051409959,80.83221200879605,-90.91213060222547
1760516861.442707,-16.060271363429674,-0.46765333470717224,0.8578040882705253,0.052359206549446764,-67.01378220730433,73.85956639843019,-89.2584970556404
1760516861.4527502,-17.00390747237824,-0.4930884108354775,0.8820109799612854,0.07927678037272362,-63.925586141163556,65.62012910984826,-86.4899634191416
1760516861.4628155,-17.907982835527836,-0.5053699416787268,0.8918592848513291,0.1066340257664433,-60.48282563891941,56.81490556667368,-82.86752560784758
1760516861.4728065,-18.761797110605713,-0.5070319001516165,0.8872340424389882,0.13195372122151094,-56.72721536596365,48.07146166360801,-78.6706721549392
1760516861.483022,-19.55915269070013,-0.5011807179178246,0.8697248691901577,0.15333892544744146,-52.6948325099751,39.89127699149303,-74.16230268345743
1760516861.4928825,-20.298257244184388,-0.49102344341973225,0.8421979974457713,0.16961770501997991,-48.42404299256031,32.622763368869705,-69.56133769437193
1760516861.502769,-20.98128655841829,-0.47949480584660903,0.8082664965088926,0.1803702304224578,-43.96155344830709,26.458512748717958,-65.02687326092816
1760516861.5127158,-21.61373291138067,-0.469023300612349,0.7717492739222538,0.185861620704891,-39.36536540218758,21.451545874816187,-60.65493538047216
1760516861.5227528,-22.20364497795875,-0.4614349966619093,0.7361931687767956,0.18691011470411306,-34.70443572717038,17.543476596591688,-56.4862554632393
1760516861.532732,-22.760825479362435,-0.45796073513329066,0.7045082811681541,0.18471868719464962,-30.055550481367074,14.597468181372008,-52.52163818698155
1760516861.5429049,-23.29600862992221,-0.45929327049691254,0.6787407726888101,0.18069320065086986,-25.49830078354664,12.43012426141836,-48.74065077677189
1760516861.5528038,-23.820006921456706,-0.465640081186551,0.6599849816066421,0.17626556854161782,-21.10917812798569,10.838422078978036,-45.11945669557239
1760516861.562814,-24.342808845546067,-0.47673680781492467,0.6484207450114253,0.172737638751127,-16.955740234355734,9.619963412813911,-41.64448104662256
1760516861.5731723,-24.872632146711947,-0.49182026212223184,0.6434521421388478,0.17115931385260238,-13.091597041586727,8.586780161790715,-38.320013495857395
1760516861.5827138,-25.414986738451695,-0.5095949391595317,0.6439179804843471,0.17225075618693375,-9.55272669358277,7.574290860434451,-35.16946383532142
1760516861.592774,-25.971860983068066,-0.5282468318364599,0.6483398740119746,0.17637201646411066,-6.355444200185709,6.447470903961833,-32.23132879242874
1760516861.6027937,-26.541189933893495,-0.5455535467417463,0.655171104865876,0.1835343993500881,-3.496202599910743,5.105870074835064,-29.551706561578513
1760516861.61288,-27.116769511229403,-0.5591116142084671,0.6630114180086845,0.19343940912999266,-0.9532210784870325,3.488111140915045,-27.175397896416545
1760516861.6228247,-27.688731756508695,-0.5666615161368695,0.6707611647238653,0.20552774270879906,1.3103094341467734,1.5754310003133003,-25.137419963416512
1760516861.6327891,-28.244597986638933,-0.5664543093454071,0.6777013382262225,0.21902495267653374,3.3418896408330117,-0.6068749575782268,-23.456309323851304
1760516861.6428182,-28.770803596483937,-0.5575841971999665,0.6835008455656048,0.23298058036403163,5.194740141733872,-2.9913549195790137,-22.130044600410407
1760516861.652781,-29.25447542388052,-0.540213809227179,0.688165391345815,0.2463091849363993,6.922595735178843,-5.474455133558748,-21.1348725459259
1760516861.6627133,-29.685173483296314,-0.515640539773938,0.6919503020107161,0.25784875658242473,8.57452177640509,-7.9267311651674,-20.426845307824802
1760516861.6727896,-30.056306674995017,-0.486186930457983,0.6952606428761421,0.2664497359201213,10.189955177736888,-10.206315557492921,-19.94555457404596
1760516861.6827528,-30.366000399503253,-0.45493633802467726,0.6985568387301577,0.2710963304245433,11.794307858774175,-12.17401058540705,-19.619438069849856
1760516861.6928306,-30.617310703161902,-0.42536422974319943,0.702275295955748,0.27104648556910216,13.395728974212027,-13.70806757165486,-19.37208993907667
1760516861.7028267,-30.81780463225766,-0.40092578305764925,0.7067649169931202,0.26596470080330514,14.983805412810103,-14.716928653128722,-19.129083555132148
1760516861.7130032,-30.9786228645554,-0.38465324208595714,0.7122360697386513,0.2560170843151924,16.530922523105954,-15.148793206063964,-18.824785499025012
1760516861.722705,-31.113192204442548,-0.3788026868695283,0.7187205937576483,0.24190071616250708,17.996671813321854,-14.997519538897846,-18.40849881892051
1760516861.7327156,-31.23576838526984,-0.3845807568102811,0.7260476874263151,0.22478735477186182,19.335127875405284,-14.304839260946718,-17.84912085686132
1760516861.7427773,-31.35997917762594,-0.40197917710596426,0.7338460473636226,0.20617450631692538,20.504101509257602,-13.159110796361396,-17.13743345975071
1760516861.7528079,-31.497513844459657,-0.4297399647372414,0.7415822495300463,0.18765754125317277,21.474732048071363,-11.690953563623937,-16.285201527863332
1760516861.7627895,-31.657068826634255,-0.46545832970138884,0.7486368858345273,0.1706633258647083,22.239232796956124,-10.066097191334634,-15.320457506941574
1760516861.7727752,-31.843611817970764,-0.5058059445221647,0.7544070385582744,0.1562071232287521,22.81460977571094,-8.47559047380022,-14.278747813862784
1760516861.7828944,-32.05797437961145,-0.5468364639718509,0.7584136634045295,0.1447361338757576,23.241083937991423,-7.123238922187691,-13.190792311342047
1760516861.7930992,-32.29674168657866,-0.5843294492789114,0.7603903656640855,0.1361009490583745,23.575698915693536,-6.2101030601264835,-12.067964689663132
1760516861.803441,-32.55239281517772,-0.6141409028379299,0.7603359072263973,0.12965931256505048,23.883465456903448,-5.916342246733976,-10.888055667773605
1760516861.8127532,-32.81366073191989,-0.6325491395044295,0.7585237143921668,0.1244803035666323,24.229362310217606,-6.381504809758628,-9.584569650167543
1760516861.8227234,-33.06611178065409,-0.6365967149720136,0.7554736391658198,0.11959491904440307,24.674026983569615,-7.6851560005907285,-8.042939364490586
1760516861.8328125,-33.292961785905675,-0.6244215026384788,0.7518995648278441,0.11423605487294597,25.27431970695925,-9.830201268931011,-6.106268881710196
1760516861.842727,-33.476131438967386,-0.5955482476326042,0.748648140058207,0.10802177799776845,26.087952375722818,-12.73135069712556,-3.5915229837016307
1760516861.8532467,-33.59750064408837,-0.5510923157063558,0.7466404508259562,0.10105121646663223,27.179797250758522,-16.210951131381464,-0.3147739903327672
1760516861.8629992,-33.64026796698502,-0.4938224535095827,0.7468237882198425,0.09389761220758432,28.62669274784024,-20.003916730662468,3.878207082858226
1760516861.8730216,-33.59027787175939,-0.42804156704110874,0.7501362267156111,0.08749926406868945,30.51760428804061,-23.772699430226695,9.081378788546278
1760516861.8827248,-33.437160290229855,-0.35926916107616014,0.7574809430379573,0.0829673530384679,32.946844678508015,-27.132179680489696,15.30371941114218
1760516861.8928056,-33.17513924235979,-0.29373911073448955,0.7697004471063945,0.08134679365343539,35.99964600275495,-29.683103423469685,22.455380920392003
1760516861.9027767,-32.803404883371336,-0.2377558456277902,0.7875378532720901,0.08337695217294504,39.73149984949266,-31.05134530090449,30.3477269091442
1760516861.9127302,-32.325997843036546,-0.1969780035231382,0.8115779725125345,0.0893003321329304,44.14487587446956,-30.929021741655088,38.707591072298136
1760516861.9227118,-31.7512186828065,-0.17571934322085253,0.8421725727640206,0.09876007793113259,49.16843212149682,-29.11264578999283,47.203341677194715
1760516861.9327204,-31.09064230390061,-0.17636637468323194,0.8793596629177962,0.11081366172142464,54.64386503134936,-25.533473302219356,55.47818532277448
1760516861.942714,-30.357878373052156,-0.19900258282623376,0.9227791903142699,0.12407075723488124,60.323897581962264,-20.276054993271018,63.185064471398654
1760516861.9527519,-29.567262416527793,-0.24129921823100783,0.9715784503257245,0.1369371336861372,65.88228090269824,-13.582497417840809,70.01763238169701
1760516861.9627237,-28.732677286772628,-0.29869162207714417,1.0243070883949976,0.1479160080212487,70.93431633337049,-5.841509482027501,75.73293452469579
1760516861.9727783,-27.866685826509535,-0.364819859041886,1.078824162020309,0.15589299665047476,75.065196730408,2.4374633523249614,80.16324540901127
1760516861.9827485,-26.980104132278445,-0.4321823500481915,1.1322629848150332,0.16032315979909778,77.86351075213187,10.663869230979785,83.21668297148254
1760516861.9929543,-26.08206824666749,-0.4929370491644259,1.1811114579004456,0.16125722565083717,78.95794274962688,18.217457657678437,84.86843357009577
1760516862.002889,-25.180557504763073,-0.5397847107529943,1.2214610529286831,0.15918864934696061,78.0556400448108,24.508121191399123,85.14624093610698
1760516862.0129814,-24.283250416719106,-0.5668708884707445,1.2494475193889312,0.15476274562288123,74.98018964055919,29.038677672428214,84.11471432610426
1760516862.0227342,-23.398519255731905,-0.5706293252708857,1.2618434787515025,0.14844329654825242,69.70553301172622,31.46257824035575,81.86261141580052
1760516862.032733,-22.53632790485689,-0.5504467441828065,1.2566832028821548,0.14025726060469576,62.38018677981667,31.62687114591187,78.49564776041801
1760516862.042734,-21.70878788547602,-0.5089740333100041,1.2337463494475724,0.12971883999058878,53.33515549504075,29.5914374289846,74.1352456489739
1760516862.0528033,-20.930153072401648,-0.45189939853331706,1.1947422692568697,0.1159736126881297,43.07004005316484,25.619235133077304,68.92182116965358
1760516862.0627544,-20.2161030076775,-0.3870954036917442,1.1431244920710784,0.09812705761646222,32.21521239399579,20.138251128305384,63.020195896546326
1760516862.0727477,-19.58228693409075,-0.3232460084002547,1.083585797499343,0.0756619084324569,21.472628427698524,13.682005674051561,56.62440840868479
1760516862.0828424,-19.04226997899457,-0.2682591872803534,1.0213778842792036,0.048821930100915456,11.542476412678239,6.819612774056671,49.9592681536003
1760516862.092742,-18.605206938583184,-0.22786552014091285,0.961625045291723,0.018843838033494247,3.046205735605581,0.08753412792367604,43.27635181043686
1760516862.102749,-18.273713291569273,-0.20474840326530702,0.908761334565491,-0.01204978154708175,-3.542143410735504,-6.066380305733776,36.84299557868722
1760516862.1127644,-18.042452019624758,-0.19838565588161433,0.8661523073662942,-0.040926158085838514,-7.945301545559101,-11.319260683276056,30.924326494565914
1760516862.1228147,-17.89787337542222,-0.2055798857086121,0.8359034984203854,-0.06464200576197325,-10.105031661904317,-15.486888222382033,25.76024885691003
1760516862.1327674,-17.819328331745243,-0.22147974448869093,0.8188269552106859,-0.08045485506471488,-10.174514852702481,-18.515936060160797,21.540974034723465
1760516862.1427538,-17.781461474343768,-0.24078981282282116,0.8145327094754083,-0.08659730418708525,-8.483699138131641,-20.459780434456576,18.38557425119333
1760516862.1529453,-17.75746134395278,-0.2588580733851702,0.8216186178922997,-0.08267279104258762,-5.48510661608021,-21.445206648085225,16.327851422281412
1760516862.1627667,-17.722518204594625,-0.2724109291249622,0.837933454065446,-0.0697778774191369,-1.6900970770835904,-21.63782767702844,15.312581038324067
1760516862.1727533,-17.656793853067175,-0.27983733694712787,0.860881208060665,-0.05032421626178324,2.3943197320052927,-21.21277478818716,15.203242514113208
1760516862.1827564,-17.547354073294862,-0.2810549858232694,0.887727669989799,-0.027603486124888162,6.319742184688938,-20.334717839331717,15.80018308635802
1760516862.1928313,-17.388789305648658,-0.277085019020127,0.9158716858100255,-0.005194816348341347,9.735949633237414,-19.148269442811284,16.866288890876053
1760516862.203003,-17.18255862868337,-0.26950209361166605,0.9430536384926521,0.013654944465781662,12.412890345087506,-17.77708057471925,18.15600588790885
1760516862.2127674,-16.93535108573318,-0.2599166137402137,0.9674881081603975,0.02654914353124501,14.244890684840358,-16.328059510996873,19.443144816871182
1760516862.2231224,-16.65691432584463,-0.24960091709999382,0.9879216447728956,0.03226018396791879,15.239222768377557,-14.896519071871667,20.54337291948714
1760516862.23296,-16.3578383076829,-0.23931133010044894,1.0036273373689095,0.030803119449123843,15.492929425680565,-13.568756021083274,21.328536651106404
1760516862.2427495,-16.047716364349892,-0.2293018394325967,1.0143532127212675,0.023273667343066934,15.162826249486843,-12.420305549360563,21.73166845464378
1760516862.2528508,-15.733969176543129,-0.2194838805584384,1.0202408132132288,0.011508705205337788,14.43379572395214,-11.510264203316554,21.743273120941556
1760516862.2630517,-15.421443484756258,-0.2096623717108235,1.0217273600599008,-0.0023411253686809676,13.489909957477515,-10.873857558243346,21.400861276268778
1760516862.2728376,-15.11271741820605,-0.1997684786424407,1.019444779790782,-0.016228564289560383,12.49175179692221,-10.516231163147383,20.7744578038731
1760516862.2827477,-14.808891874818153,-0.1900165283212483,1.0141301359941877,-0.02853440429481832,11.5618188908475,-10.410078068545012,19.950928890060265
1760516862.2928553,-14.510559241886304,-0.1809389005384306,1.0065587691334095,-0.038251862396580724,10.77838168728564,-10.498473934188818,19.01957545718452
1760516862.302922,-14.218638138556159,-0.1732920049259682,0.9975036732715544,-0.045022855635279184,10.176875515302378,-10.702744606642911,18.060736532884388
1760516862.3130682,-13.934839420646671,-0.16786501298951229,0.9877170746149561,-0.04905068194639876,9.757004901991634,-10.93389733777872,17.138327703436396
1760516862.323095,-13.661659322834767,-0.16525102871317596,0.9779236214711785,-0.0509317225465381,9.493284821639183,-11.10543897411883,16.296461345064692
1760516862.3328903,-13.401943751296963,-0.16565105594245474,0.9688091908613373,-0.051453958858619135,9.34670759522306,-11.145341834749617,15.559666678213972
1760516862.342903,-13.158188419927479,-0.16876888720270133,0.9609906012108885,-0.051406180831553974,9.275524159484956,-11.00533985933464,14.935808663196447
1760516862.3529227,-12.931797481080224,-0.17382406213753532,0.9549629795104173,-0.05143149675807768,9.243663438305944,-10.666389282978956,14.420605474129156
1760516862.3627555,-12.7225119005449,-0.17967503450237707,0.9510370127446133,-0.05194418991894144,9.22597264758453,-10.139801353225312,14.00264131351912
1760516862.3728378,-12.528155184291824,-0.18501804692031862,0.9492881731563105,-0.05311282791528619,9.210131726927637,-9.464154015588358,13.66792727647048
1760516862.382804,-12.344751963218478,-0.18861242897208239,0.9495399461627705,-0.054898196903538476,9.195677228668416,-8.698604666577072,13.403336322535722
1760516862.3928196,-12.166978339016119,-0.18948048695818828,0.9513939872390167,-0.057125250848868686,9.190985104751409,-7.913658573527085,13.198582778326776
1760516862.4028242,-11.988826959721537,-0.18704085375204552,0.9543049274769889,-0.059565670037783645,9.209247385266949,-7.180753341861211,13.046769592572364
1760516862.4127614,-11.80433402934604,-0.18115527703792902,0.9576822207015805,-0.06201136088070074,9.264414155149323,-6.562122597056856,12.943806810091887
1760516862.4229555,-11.608223318776423,-0.1720919611734208,0.9609936589901404,-0.06432645849883255,9.367812841520127,-6.102265780447465,12.887151286664748
1760516862.4330268,-11.396363059668065,-0.16042630405842478,0.9638475561719946,-0.06647273696496557,9.525821795567879,-5.822019519416406,12.874332317435902
1760516862.4427443,-11.165990088111249,-0.14690970079453125,0.9660388355466993,-0.06850933341353413,9.738687186544025,-5.715794355586476,12.901658208853483
1760516862.4528258,-10.91571553397878,-0.13233865802711,0.9675535124624532,-0.07057243494416458,10.000392499537606,-5.752109660744359,12.963387761925961
1760516862.4627519,-10.645371897353911,-0.11745015273448232,0.9685347442870463,-0.07284344928432784,10.299408538874971,-5.877201935311999,13.051519767854373
1760516862.4728088,-10.355781893496639,-0.10285742835630843,0.9692211508467292,-0.07551413982897973,10.620122447436614,-6.021217317963469,13.156218698297673
1760516862.4827545,-10.04852312180848,-0.08902718888111195,0.9698729811536636,-0.078754721595754,10.944723586982867,-6.106302331226813,13.266774641165403
1760516862.4928653,-9.725736161961018,-0.07628838133057533,0.9707025444043696,-0.08268783711840698,11.255296515815337,-6.055745027292391,13.372905796833432
1760516862.5029035,-9.389989849965781,-0.0648574555298462,0.9718222135717851,-0.08736922554010337,11.535850893675159,-5.803189539929318,13.46615816920378
1760516862.5128193,-9.04418920488425,-0.05486570914111665,0.9732177728805395,-0.09277521251995428,11.774026734169485,-5.300889542802056,13.54113830049759
1760516862.5232027,-8.691495736475739,-0.04637873442049133,0.9747490051491363,-0.09879742741755741,11.962254943444828,-4.526036814054049,13.596330418415159
1760516862.532784,-8.335227039852565,-0.03940327375286067,0.9761747326374974,-0.10524563953188805,12.098214314227247,-3.4844266721861645,13.634300503128463
1760516862.5428805,-7.978711259374795,-0.03388217544419725,0.9771964792195531,-0.11185977885048333,12.184500480182312,-2.2110669636489755,13.661175637334644
1760516862.5527666,-7.625091381046954,-0.029683820028412307,0.9775133272199454,-0.11833184269623008,12.227520986648823,-0.7677208524113434,13.6854014151821
1760516862.5628364,-7.277100271690941,-0.02659657366605694,0.9768801235816926,-0.12433734489530779,12.235762317056436,0.7622843389238747,13.71591001670271
1760516862.5727658,-6.936849291036801,-0.024338060895774418,0.9751614421584651,-0.129574291168022,12.21771863133041,2.281400266967282,13.759955361181941
1760516862.5827932,-6.605679122646205,-0.022582289127207344,0.9723739318412619,-0.13380575748317444,12.179878817966122,3.68662687529272,13.820963751490579
1760516862.592816,-6.2841063748114925,-0.020998203109503667,0.9687098201317965,-0.13690045465955566,12.125190155020837,4.878923394677595,13.896788445261588
1760516862.6027703,-5.971869272959939,-0.019286308546356812,0.9645353600405678,-0.1388644429711348,12.052334941388002,5.77247082776523,13.97873606546096
1760516862.6130326,-5.668045413955903,-0.017200189243770835,0.9603607781700939,-0.13985673450228084,11.955987212031172,6.303028351787188,14.051649875310156
1760516862.6229768,-5.371202800910814,-0.014548935676743141,0.9567823892794614,-0.1401826004573821,11.827999450302318,6.434699059477871,14.09518729974701
1760516862.6328313,-5.079561204085727,-0.011190148938199893,0.9544020823659826,-0.14026182301138143,11.659253429790963,6.164526623549946,14.086219132932985
1760516862.64286,-4.7911723829379875,-0.007031237395994095,0.9537346433746501,-0.1405747055753283,11.441746099005767,5.524460885436974,14.00203343946388
1760516862.6528108,-4.5041508428622175,-0.0020528513648069542,0.9551193944798223,-0.14159442814959836,11.170416703862472,4.580345755373756,13.823813032768513
1760516862.6628199,-4.216986132714917,0.0036441602693373194,0.9586559701635898,-0.14371794569130852,10.844282569289371,3.4277231346578647,13.539748515048865
1760516862.6728015,-3.9289440708407017,0.009780194082373557,0.964180032298872,-0.14720816626938604,10.466629561359351,2.184460856244709,13.147192594968933
1760516862.682895,-3.640526524751381,0.015848008835795378,0.9712838521555663,-0.15215795169971755,10.044250191489054,0.9805310791279992,12.65344513579305
1760516862.692792,-3.3539163754921546,0.021098801906612882,0.9793751428742481,-0.1584821156348054,9.585965289608902,-0.05432886506843723,12.075031248744827
1760516862.7029426,-3.073297157419296,0.024585580155980138,0.9877604732900261,-0.1659378450697583,9.10083417249342,-0.8039149072035453,11.43562870365092
1760516862.7129176,-2.804923764554747,0.025273298879882295,0.995737149740183,-0.17416800987137854,8.596507670120532,-1.1783118239917365,10.763052863134234
1760516862.722923,-2.556850083598705,0.022203063853017967,1.0026776703225169,-0.18275685909041028,8.078102782401137,-1.1244548053652232,10.085872392390831
1760516862.7328434,-2.3382910671960238,0.014675561931530651,1.0080933375470384,-0.19128490198489728,7.547812213390023,-0.6329744850467985,9.4302762030735
1760516862.7429094,-2.1586832216872014,0.0024099504427721966,1.0116689821008154,-0.19937080879209923,7.005264321077065,0.2597737193246256,8.817724736500637
1760516862.7530434,-2.026574525418245,-0.014357313682852793,1.0132685639413517,-0.2066936150184255,6.448477607100771,1.4749464295247061,8.263713659438528
1760516862.7628055,-1.948507076137159,-0.03485222969969607,1.0129190750881167,-0.21299655248962607,5.875150015826021,2.8994295142567097,7.777712444735627
1760516862.7728624,-1.928057091894446,-0.05782406755900497,1.0107834904705064,-0.21808038384023765,5.283997860412455,4.398070645352469,7.364087865038333
1760516862.7827678,-1.9651745856935445,-0.08167740150883508,1.007130486056572,-0.22179586639499618,4.675895919188257,5.828438584757859,7.0236444060140615
1760516862.7928898,-2.0559245030747926,-0.10465632049979817,1.0023028896122814,-0.22404200249601858,4.054646417300964,7.05630479316035,6.755342178704407
1760516862.8028088,-2.192677704897345,-0.12505520768758013,0.9966841404589052,-0.22477184242103454,3.427300897547636,7.969967901942005,6.5577867085611175
1760516862.8128498,-2.3647387857260083,-0.1414261498956697,0.9906633894325285,-0.22400331115978478,2.804048649617002,8.49173100198677,6.430198137270455
1760516862.8228135,-2.559336424057162,-0.15275267931626124,0.9846014751452866,-0.2218294314623405,2.1977371703388533,8.585282154811615,6.372726259942435
1760516862.8328638,-2.76285418644058,-0.15856606198261136,0.9787999349594271,-0.2184207493462614,1.6230962223881258,8.25833235522861,6.386148808451813
1760516862.84276,-2.962154238407147,-0.15899182045487403,0.973475639490847,-0.2140144676968225,1.0957216311075606,7.560491047285578,6.471135533370956
1760516862.8528216,-3.1458410557531313,-0.15472502808177752,0.9687461002668841,-0.20889040486963012,0.630866814530343,6.576888495818697,6.62734022023614
1760516862.8628993,-3.305322460335106,-0.14694093350816004,0.9646326175678984,-0.20334004798453945,0.24209895220663696,5.418431125802051,6.852575228813409
1760516862.8728032,-3.4355496675865163,-0.13715338741330504,0.9610865498688269,-0.1976371440442008,-0.060103039603358464,4.2097874444523535,7.142241349400014
1760516862.8828506,-3.535353157734814,-0.12703682614916736,0.9580370680367363,-0.19201584364474003,-0.26970694004829665,3.0762643312697704,7.489068001583667
1760516862.892841,-3.6073317080726945,-0.11822824610192352,0.955449779490774,-0.18665846586169432,-0.3863145996252099,2.130696942218046,7.88310615748174
1760516862.9028132,-3.657295979943831,-0.11212618832223174,0.9533798737899519,-0.1816923335452885,-0.4160295462554458,1.4614079510764832,8.311839662559928
1760516862.9128342,-3.6933162244431474,-0.10970593119423551,0.952004337990291,-0.1771943083061883,-0.3718497683721663,1.122239424519884,8.760259085872288
1760516862.9230514,-3.7244731206340935,-0.11137227537993202,0.9516237898077643,-0.1732013381835847,-0.27344762219850777,1.1256234918226324,9.210783609812111
1760516862.9330041,-3.7594538086170033,-0.11687072934657192,0.9526315290286378,-0.16972421862630047,-0.1462401700178915,1.4395934327363393,9.643011969466
1760516862.9427981,-3.8051631739617204,-0.12527342633221406,0.955453156163402,-0.1667600766160812,-0.019717101169103548,1.9894790016090094,10.03340419281183
1760516862.952801,-3.8655280665138148,-0.13504863085302246,0.9604642124690035,-0.16429846405998727,0.07491824433987204,2.6647137315936376,10.355102873352418
1760516862.9628053,-3.940658951600199,-0.1442138889484468,0.9678958593959662,-0.1623179603946009,0.10762135104719942,3.330669885120723,10.578162984896682
1760516862.9727793,-4.026502003536938,-0.15056376253579656,0.9777403381381968,-0.16077498114781774,0.05257346306504895,3.8447435537472323,10.670451878809342
1760516862.9830017,-4.115066705932828,-0.15195347254121366,0.9896700227008419,-0.1595923418246159,-0.10902948485370992,4.075114425579318,10.599395384444852
1760516862.992769,-4.195250401099602,-0.14660949980938232,1.0029862340721438,-0.15865887867274986,-0.38705574697542144,3.9198274247436107,10.334581306118311
1760516863.0028043,-4.254205777477583,-0.13342893191657457,1.0166149666023847,-0.15784994281488135,-0.7819932496008399,3.323247694976749,9.851002253699974
1760516863.012819,-4.279117973414433,-0.11222353487863562,1.029164907634618,-0.15707063078764438,-1.2864503088342618,2.2867190615511808,9.132468447761394
1760516863.0228,-4.259182786896618,-0.08386330436562422,1.0390577508561347,-0.15631088458477216,-1.888740526814346,0.8706211623993172,8.174528545455676
1760516863.03294,-4.187515717897054,-0.05027934751464176,1.0447298193321595,-0.1556885361041168,-2.5781937426181027,-0.8138575605864229,6.986190056410421
1760516863.0428274,-4.062690616821756,-0.014301626475843482,1.0448855306949707,-0.15544958073569187,-3.3512569600061366,-2.6230303496365672,5.589862237315464
1760516863.0527802,-3.889627710685143,0.020664527928558267,1.0387600424453622,-0.15590165747351792,-4.21695561549713,-4.406551501154434,4.019208181259727
1760516863.0628114,-3.6796322621693816,0.05108364516171956,1.0263300571675524,-0.15728015466059425,-5.200109341916045,-6.036001174495507,2.3149235519203986
1760516863.0728445,-3.449515305225411,0.07378555367203027,1.008410771880705,-0.15957944071830715,-6.341032708574468,-7.430054614471151,0.5188337196782903
1760516863.0828202,-3.219883040739301,0.0864207959000668,0.9866010645500597,-0.1624070125955327,-7.691288172553988,-8.57014043221321,-1.3328905798812456
1760516863.0927684,-3.012834172397232,0.0877866434490774,0.9630835182974318,-0.1649199339680601,-9.30611063990214,-9.502217910981408,-3.2162389636321698
1760516863.1028087,-2.849423120067943,0.07795676456559172,0.9403321192110365,-0.1658791138077745,-11.2349738509452,-10.323355212978672,-5.124272577408501
1760516863.1128485,-2.7472994236125983,0.05818768894835396,0.9208048782431791,-0.16381964434835147,-13.512112004877155,-11.15530850898314,-7.0692882359817455
1760516863.122794,-2.7189017810319016,0.030623191987877097,0.9066882596218647,-0.15729958239162714,-16.148602205889556,-12.110258043732905,-9.0815531010006
1760516863.1328084,-2.7704748449021404,-0.0021374103760715643,0.8997229430577071,-0.14516620772180203,-19.12705381798979,-13.255549617562322,-11.204586698342819
1760516863.1429904,-2.9020119927511008,-0.03750770068499611,0.9011000231683982,-0.12677378976825512,-22.399341980656008,-14.584551887896378,-13.487666831012477
1760516863.1528044,-3.108044197017374,-0.07330626838990327,0.9113956406828038,-0.1021011190299842,-25.88740180018991,-15.999757098240151,-15.97684885508543
1760516863.1629403,-3.379041481177396,-0.10797476622854582,0.9305160201500025,-0.07174604901434728,-29.486939921342323,-17.312295301471202,-18.706208013562133
1760516863.172865,-3.7031136453617486,-0.1405718095953834,0.9576449039247766,-0.03680875181612256,-33.07394770510726,-18.25936135194356,-21.691121728754336
1760516863.1828635,-4.067706220383138,-0.17055981177002408,0.9912091545103996,0.0012958392232833562,-36.513956125105935,-18.537989151214283,-24.925069971566113
1760516863.1928537,-4.461061907439174,-0.1974625813543389,1.0288961035226385,0.04104146919653299,-39.673864472688685,-17.85059560610346,-28.380605696235868
1760516863.2029238,-4.873313316428865,-0.22050515322167202,1.0677610758419274,0.08095809491261031,-42.435783599712934,-15.955279952537602,-32.01402178431384
1760516863.2127805,-5.297157079456026,-0.2383543427385675,1.1044525879871574,0.11972988449394065,-44.71171762624063,-12.71244420012678,-35.77221394676767
1760516863.2227883,-5.728123511058411,-0.24907042844515098,1.1355577162274502,0.1562163072585088,-46.45725903710077,-8.119183102322909,-39.59969390371163
1760516863.2327783,-6.164502597766993,-0.250356093115433,1.1580361198714533,0.18941548239701228,-47.68200073390612,-2.3242839646824818,-43.443804057371224
1760516863.2428603,-6.607015538195894,-0.24012962542552427,1.1696773893108938,0.21840921443537076,-48.45426824544949,4.380334720114479,-47.25684428389055
1760516863.2530224,-7.0583261255627985,-0.21733859755079324,1.1694941364785134,0.2423359301600149,-48.89822793575338,11.591657823512262,-50.9948153576715
1760516863.2628057,-7.5224662605815,-0.1827809305876919,1.1579572953030912,0.26042324298785907,-49.18249617184028,18.846308614966595,-54.613522426188936
1760516863.272851,-8.004214240336914,-0.139583524998821,1.1369892961544266,0.2720774060241305,-49.50085073786135,25.681126751070234,-58.06359898259746
1760516863.2828524,-8.50843511883771,-0.09302417365952328,1.1096665464474842,0.27699384105531155,-50.04711801001538,31.692231811316073,-61.286409663702386
1760516863.2928312,-9.039392023317102,-0.04962920985824977,1.0796629090349559,0.27524847415292064,-50.98746774258965,36.58128412879567,-64.21262954922751
1760516863.3028286,-9.600068452251504,-0.015812730919798967,1.0505674787915376,0.2673509909625434,-52.43411102227172,40.180856352226385,-66.76454743973385
1760516863.312933,-10.191580763376308,0.0034833469315865883,1.0252638213244938,0.25425527335996584,-54.42470456213315,42.45651587882178,-68.86199646119856
1760516863.3230815,-10.812777794599672,0.005735189011999177,1.005523685381691,0.23731545211464383,-56.91141058497116,43.489385048547994,-70.43068186229236
1760516863.3330572,-11.460107944072696,-0.008845449382203758,0.9918782859325315,0.21817313977924316,-59.76231532090656,43.44707650724106,-71.4109794477836
1760516863.3429596,-12.127788775123674,-0.03761386218656672,0.9837420838332184,0.19858211248974672,-62.775739490521744,42.551408329748014,-71.76525031764977
1760516863.353164,-12.808255207640606,-0.07623715012520486,0.9797089144414033,0.18020587809402588,-65.7052658655085,41.0487174613932,-71.48225830229987
1760516863.362798,-13.492808056146359,-0.11962467402868804,0.9779230306019886,0.16443620708406625,-68.29093128810716,39.185189851567735,-70.57806703017658
1760516863.3734875,-14.172352802343697,-0.16280906609390516,0.9764400963832682,0.15227011406514088,-70.29093904223495,37.18747067005269,-69.09360122529938
1760516863.382879,-14.838118171624526,-0.20162837154906538,0.9735208797985345,0.1442596452174024,-71.50879119089657,35.24827254714723,-67.08979090078431
1760516863.3929687,-15.48227052030951,-0.23315317899079815,0.967829528786503,0.140527644021476,-71.81242968353241,33.51689316834381,-64.64170343996275
1760516863.4028413,-16.098378404748654,-0.25586716633418094,0.9585318280496715,0.14083138724998773,-71.14396350103208,32.09465309553319,-61.833060223689415
1760516863.4127803,-16.681716669105498,-0.2696420010693877,0.9453053358956761,0.14465349571224514,-69.52022877784627,31.03503422164548,-58.75202375531476
1760516863.422953,-17.229422445944607,-0.27555975737727856,0.9282829480992306,0.15130097225748454,-67.02555259416332,30.347905855005305,-55.4884565861675
1760516863.4330382,-17.740526011010722,-0.27563732699758686,0.9079544067226226,0.15999627519376022,-63.79868897001438,30.006901520531617,-52.132360917579874
1760516863.443019,-18.215880732232282,-0.27250059233837537,0.8850475319634462,0.16994989449185913,-60.01609110123672,29.958859525351286,-48.77300420304631
1760516863.4527698,-18.65801136688243,-0.26904282350679765,0.8604050494276348,0.1804123820104784,-55.873633895380244,30.134228159819386,-45.49817160943316
1760516863.4628026,-19.070891045577692,-0.2680875216447746,0.8348675546584741,0.19071204075398063,-51.5687160415691,30.457388381456102,-42.39291517983099
1760516863.4727871,-19.459647981204277,-0.2720691594644865,0.8091712238091076,0.20028714670908004,-47.28435256010913,30.855938207694177,-39.5371184468732
1760516863.4827847,-19.830198378012504,-0.28274968839286024,0.7838697424682451,0.20871661552066378,-43.17639090511306,31.268139544574073,-37.001334531368336
1760516863.4928958,-20.18880733593579,-0.3009997791694161,0.7592898834982162,0.21574506175055855,-39.36443761783654,31.64798316635481,-34.84085070128947
1760516863.5028403,-20.54159695115454,-0.32668231752146587,0.7355263093192957,0.22129433992208547,-35.92664163911947,31.967675799106644,-33.08874676105414
1760516863.5138345,-20.894046130831978,-0.3586723426451991,0.7124746905985244,0.22545610214884804,-32.898228314273226,32.21772396349394,-31.749516946174605
1760516863.5228417,-21.250548915769276,-0.39502682424149654,0.6898969442070728,0.22846461594674145,-30.27354989907105,32.40508153877706,-30.795159897768563
1760516863.5327837,-21.614105034376713,-0.43328340302765456,0.6675101813606509,0.23065163833220703,-28.01127438515035,32.5499732540281,-30.165249203012074
1760516863.542917,-21.986201975712863,-0.4708345833427383,0.6450899042823127,0.23238559698204525,-26.04206753195567,32.6819862372415,-29.771501483876005
1760516863.5527985,-22.366915242526574,-0.505308675718882,0.6225754108458124,0.2339985390751683,-24.277778966231676,32.83588161216201,-29.506198664010746
1760516863.5631382,-22.755211612362995,-0.5348943322026758,0.6001611718515607,0.23570753853686427,-22.620942433279478,33.047425442106594,-29.25297728627841
1760516863.5729933,-23.149399355645343,-0.5585629844221721,0.5783546083618215,0.23754136211702007,-20.973545779732028,33.349435951398284,-28.898215454399228
1760516863.5828712,-23.547638866009766,-0.5761636136682418,0.5579814366427084,0.23928678295139216,-19.24448346487768,33.768119994784655,-28.34146926645281
1760516863.5929964,-23.94841464631309,-0.5883838676274794,0.5401264700664395,0.2404705556434693,-17.355629079582535,34.31954095620459,-27.50390036633612
1760516863.6028597,-24.350877779498376,-0.5965901592071029,0.5260095448031291,0.24038998318254806,-15.246814143235637,35.005814151382445,-26.334130975669602
1760516863.6132638,-24.75499305694144,-0.6025757084295003,0.5168102779422993,0.23819479830741644,-12.880044471140497,35.81060204648479,-24.811293614834995
1760516863.623033,-25.16145989207831,-0.6082579072454024,0.513468958651281,0.23300745787133728,-10.243006542195317,36.6938261007328,-22.945206549810404
1760516863.6327844,-25.571414891600963,-0.6153725376753765,0.5165009041753569,0.22405487878726643,-7.351432698734938,37.58611338511743,-20.77370135878497
1760516863.6427863,-25.985960480616974,-0.6252083401120478,0.5258636201286657,0.21078063721084864,-4.249477244873454,38.38407117487865,-18.357214829400455
1760516863.652867,-26.405591161327884,-0.6384109951032904,0.5409069108518153,0.19291596215462173,-1.0071672513909138,38.947803365563395,-15.770822342570279
1760516863.6630473,-26.829601420616832,-0.6548687699858402,0.5604180832312099,0.17050461453353485,2.285732774044083,39.102106265445514,-13.093961836537447
1760516863.6728022,-27.255556862347994,-0.6736823730623342,0.5827554937639338,0.14389070668776363,5.529654784606151,38.64258583913213,-10.398303796258812
1760516863.6830733,-27.67889728229534,-0.6932200269056958,0.6060517143306202,0.1136839702786258,8.628729448663476,37.347571860532504,-7.7346638489096575
1760516863.6927752,-28.092721318544566,-0.7112586458328173,0.6284644332970648,0.08071556596272905,11.507160743435822,34.996128040664956,-5.120431898641115
1760516863.7027912,-28.4877780288719,-0.7252068836030067,0.6484543195506957,0.045994031486561504,14.127117982522728,31.391624028682653,-2.5294478569957937
1760516863.712784,-28.85266331937365,-0.7323950177066839,0.6650678799267762,0.01066910773354222,16.505869003868245,26.389279226036468,0.11360601082390362
1760516863.722905,-29.174196517708666,-0.7304037339560782,0.6781960404405917,-0.023988208446930465,18.7288917702301,19.924937632622598,2.9324324246062625
1760516863.732872,-29.43794388869982,-0.7173929768703291,0.6887675602253787,-0.05658119535118423,20.95508226053322,12.041296487960482,6.090634603816465
1760516863.7428102,-29.628862095668218,-0.6923871362717563,0.6988282390884704,-0.0855568533096318,23.41041200749287,2.9071787612115925,9.775074787362726
1760516863.754211,-29.732044234730985,-0.6554772321647029,0.7114615226799377,-0.1091624329619938,26.36775395970656,-7.1744716804771365,14.171866343556292
1760516863.762811,-29.733550042047725,-0.6079127468599773,0.7305259403572179,-0.12541975539075675,30.11289418385521,-17.773208787662455,19.437211165117887
1760516863.7728016,-29.62128645223325,-0.5520682488032898,0.7602122794180255,-0.13215849329368676,34.899330658130545,-28.353916950402496,25.666592996541016
1760516863.7828004,-29.385884872087868,-0.49127824927000346,0.8044486814349883,-0.12714552952452463,40.896647953399686,-38.31534102635989,32.86667725989048
1760516863.7928755,-29.02151087070423,-0.42954100759106983,0.8662033960688789,-0.10832816680877246,48.13880262096982,-47.04159349355435,40.93437384582024
1760516863.8028104,-28.526545207470495,-0.3711049824371573,0.9467604106510226,-0.07418048035602066,56.47976463868053,-53.961742424367976,49.64677977086948
1760516863.8129265,-27.90408620704449,-0.31997261920930914,1.045076117559355,-0.024113843295474422,65.5647789286246,-58.610582104625735,58.66431779831382
1760516863.8230414,-27.162233508197538,-0.2793798072190254,1.1573520710430354,0.041108389552827675,74.8256236100753,-60.6822172992749,67.54778914114694
1760516863.8327956,-26.314117717876364,-0.25132699604399084,1.2769587050731905,0.11902477714057794,83.50684750564794,-60.06769165162766,75.78870841048243
1760516863.8427882,-25.37764131493935,-0.2362458869972698,1.3948106081220664,0.2052778834374004,90.72656266492044,-56.869105870443725,82.85126263789306
1760516863.8530986,-24.374900263007568,-0.23288597515449808,1.5002324014546058,0.2936446234077736,95.57010980520224,-51.3858276299846,88.22321708543616
1760516863.8628747,-23.331272060397183,-0.23849380962048858,1.5822683687696477,0.3763631630827466,97.20842860453327,-44.073384168776954,91.47167842224178
1760516863.8728893,-22.27418855999295,-0.24931528052854549,1.6312789308149678,0.4447936318100973,95.02615950396111,-35.48164104391021,92.2976985208021
1760516863.8831253,-21.231655955469797,-0.2613629222056718,1.6405536714797828,0.4903940961695478,88.73882171812812,-26.184224849534615,90.58172051061341
1760516863.8931322,-20.230628057811696,-0.27127988358038024,1.6076035158516202,0.5059151227971774,78.47593654145095,-16.713760515647387,86.41098213488559
1760516863.9030366,-19.29536808529296,-0.27705816208973116,1.534821768743228,0.48663590279217595,64.80968715084613,-7.516002940061281,80.08157286301328
1760516863.912939,-18.445937268680602,-0.2783794981395001,1.429328661056758,0.4314132332091155,48.71725844345558,1.0694641762571813,72.07241021881427
1760516863.9228718,-17.696927508484965,-0.27645257106721177,1.3019942021931836,0.34331203592669834,31.477849459228093,8.801956313168535,62.99470271759586
1760516863.9328108,-17.056530322255615,-0.27339255451277256,1.1658213265926365,0.2296355285624677,14.519109541907575,15.513256402124435,53.52583886598389
1760516863.9428554,-16.52602636497624,-0.27136521925845875,1.0340258149694401,0.10126885076904203,-0.7614953838992979,21.07409159688374,44.338812940076245
1760516863.9528315,-16.0997841564696,-0.27180977162565384,0.9182167537429538,-0.028621170432099895,-13.170034385861651,25.3660199491298,36.037046291231135
1760516863.9631233,-15.7658434568267,-0.2750064073949855,0.8270188298911927,-0.14635056739834817,-21.855895489724674,28.267787523078603,29.101447031234855
1760516863.9731843,-15.507102412996582,-0.28009268232913964,0.7653192209313668,-0.2396559556475921,-26.397655287841584,29.659718055907746,23.85368236932119
1760516863.9828887,-15.303030572233377,-0.28544689155407865,0.7341564990559537,-0.2994576867762224,-26.825899171762355,29.44425457554076,20.43772766297262
1760516863.992811,-15.131722574168696,-0.2892384305224171,0.7311538674289138,-0.32111843693047176,-23.585267769780657,27.576783176769084,18.820394680796948
1760516864.002913,-14.972031471837331,-0.28993764045641224,0.7513343160609184,-0.3049648346052427,-17.447205571257516,24.098721329399677,18.80993404710996
1760516864.0128336,-14.805505476204017,-0.28665440199732894,0.7881282342758346,-0.25599850953397324,-9.390633396480359,19.164283176073713,20.089744320786085
1760516864.0228179,-14.617898841789748,-0.2792695139069794,0.8343932632126158,-0.1828957749572752,-0.4698987333591995,13.05309790126365,22.262292094063568
1760516864.032831,-14.400113693756293,-0.2683872194907513,0.8833076482664179,-0.0965271284338103,8.311522405501984,6.163055719967773,24.897276142297645
1760516864.042969,-14.148523534641784,-0.2551623670278109,0.9290554088565771,-0.008288024762155293,16.106143453661584,-1.0185438992637237,27.578070850201552
1760516864.0530941,-13.864708362737595,-0.24105630083584975,0.9672737045771176,0.07147478894719567,22.295512683384437,-7.962743618932617,29.941319480150568
1760516864.0630376,-13.554690488500498,-0.2275706325812408,0.9952672981707367,0.13471004002034173,26.525775608224247,-14.158126589035035,31.70591396536802
1760516864.0728066,-13.22780295905286,-0.21600524906721283,1.0120124585990218,0.17643195336167566,28.706082632892937,-19.170869061187673,32.68931506721924
1760516864.0829003,-12.895347642224708,-0.2072787649739211,1.0179820562177744,0.19496091534516582,28.975327477962182,-22.69463895359247,32.81105790522759
1760516864.0928483,-12.56920169708675,-0.20183003541708736,1.0148329293604499,0.191675726233816,27.64648708474012,-24.581807340417427,32.08503336417238
1760516864.1028438,-12.26051018546748,-0.19959666604929113,1.0050070608702668,0.17038702928062283,25.139675973900395,-24.85175726411434,30.6033655437098
1760516864.1134515,-11.978568890833792,-0.20005335306481364,0.9913053538375995,0.13647683779423508,21.914772888999295,-23.67674767406529,28.51522948982639
1760516864.1229632,-11.729966600695514,-0.20229194394186603,0.9764914974633919,0.09595633235428809,18.412500107060783,-21.349664284088814,26.00383731286094
1760516864.1330621,-11.518027915367332,-0.20513042568838055,0.9629717040421267,0.05458127671432229,15.009858381025701,-18.240390566177517,23.264272002689207
1760516864.1428328,-11.34257977777203,-0.2072444189906884,0.952576733330344,0.01713695981631527,11.992591041098297,-14.748224314845283,20.48410445909943
1760516864.152908,-11.200055402253152,-0.20731909011425,0.9464511031758377,-0.013032919448648997,9.544458773732803,-11.256980507342156,17.828006887020365
1760516864.1628156,-11.083936994346148,-0.20421725840288316,0.9450370040505667,-0.03422146233603286,7.7509283004759535,-8.097741639987586,15.42701338886844
1760516864.172774,-10.985509271127814,-0.19714867893236712,0.9481316754249818,-0.04628819395711249,6.613556044269839,-5.522258460326786,13.372680683369383
1760516864.1829224,-10.89484750866564,-0.18581227093158104,0.9549967645519982,-0.050370894479807325,6.070826665173149,-3.6881789764658315,11.716057542803016
1760516864.1928535,-10.801913711868158,-0.17047794612055048,0.9645024794183024,-0.04845576822318794,6.021332888766657,-2.6557858605973785,10.470970208458866
1760516864.2030175,-10.69760639349446,-0.15198239758970275,0.9752935957971908,-0.04289691191438929,6.345793662668087,-2.3948158605699987,9.620679434381435
1760516864.2128139,-10.574617532510599,-0.13163026044317488,0.9859658222198119,-0.035973895567345086,6.9253472092566835,-2.7992073839057987,9.126583603470733
1760516864.222819,-10.427991480145847,-0.11101164904000255,0.9952396226887095,-0.029556953012618944,7.654654607531834,-3.707218227767914,8.937461196644776
1760516864.232945,-10.255339290625995,-0.09176459387252439,1.0021160452756463,-0.02491763312610399,8.44942311712384,-4.924225254118414,8.997824111964997
1760516864.242819,-10.05672271356189,-0.0753259337385506,1.005996518757608,-0.022687528413743305,9.248844199281615,-6.245648011803255,9.254275855579564
1760516864.2529428,-9.834276009074916,-0.06272472648849892,1.0067470033180541,-0.02293803896344855,10.014042224533624,-7.477826057115527,9.65927307911974
1760516864.2630618,-9.591671843045749,-0.054467768875655014,1.0046902554504795,-0.025336312845751507,10.72392581837783,-8.455277426279709,10.172283799888266
1760516864.2727983,-9.3335469840527,-0.05053853742670099,1.000522341195012,-0.029328370777870864,11.369857180922867,-9.053438656239873,10.758899169661712
1760516864.2828586,-9.064979113862439,-0.0504902731975129,0.9951678053739381,-0.03430755258104252,11.950361732613478,-9.196551348887638,11.388843125511448
1760516864.2928967,-8.791059991887177,-0.05358677771306136,0.9896032997256665,-0.03973982303579465,12.466761078142392,-8.860712724522813,12.033922300638784
1760516864.3029962,-8.516564379243922,-0.05894356206164571,0.984686267519042,-0.04523270952690467,12.920209439627644,-8.07230287702049,12.666757440522817
1760516864.3128035,-8.24568630975958,-0.06563907250002317,0.9810226621639829,-0.050549560045203445,13.310231973995462,-6.902175682992724,13.260743089693245
1760516864.3228972,-7.9818118778516025,-0.07278691091154835,0.9788965363031368,-0.05558352660494944,13.634569777805714,-5.456241058660705,13.79125017046485
1760516864.332807,-7.7273163624990575,-0.07957624692712781,0.9782679921420104,-0.06031286669404486,13.889963234817904,-3.8633687321366823,14.237737502417676
1760516864.342843,-7.483400046581327,-0.08529516487221464,0.978830650818813,-0.06475838259066025,14.073444006680296,-2.261844750917208,14.586220721599801
1760516864.3528535,-7.249997468505286,-0.0893510763316717,0.9801104646168378,-0.06895637976334427,14.183722711350418,-0.7858288326818743,14.83145787308847
1760516864.3628418,-7.025800008142687,-0.09129637113957507,0.9815847652172184,-0.07295070423996484,14.222325710848677,0.44669374031017184,14.97824434363941
1760516864.373011,-6.808418317376396,-0.0908588763238692,0.9828012927586659,-0.07679945865405337,14.194239500068262,1.3431731743995956,15.041369046519417
1760516864.382823,-6.59468182538163,-0.08796842257257903,0.9834793079113321,-0.08058790216254341,14.107954257053452,1.8421405731630305,15.044053697562939
1760516864.3928032,-6.381036650962978,-0.08276643280555308,0.9835777528125014,-0.08443860600289047,13.974930014182917,1.9150465830966612,15.015019875022888
1760516864.402844,-6.163974093704099,-0.07558725615714755,0.9833184245772574,-0.08851199379642355,13.808601327320657,1.56474541437048,14.9846157002993
1760516864.412795,-5.940411990609595,-0.06690786747977372,0.9831560787912308,-0.09299363516513942,13.62307164034806,0.8215609628886079,14.980605664749028
1760516864.4228928,-5.7079679696855905,-0.057274489710948735,0.9836944478532971,-0.09806812459643777,13.431644650803365,-0.2619079278249382,15.024249740012053
1760516864.432814,-5.465104678068293,-0.04722634313421946,0.9855583259574788,-0.10388288154187825,13.24533139333795,-1.6161642180911227,15.12719351819463
1760516864.4428532,-5.211177138216832,-0.037241543815025605,0.9892445452265776,-0.11050884287588883,13.07147756360906,-3.15962655947773,15.289515965021346
1760516864.4529903,-4.946448607858106,-0.02772372792384747,0.9949836448952808,-0.11790819029821295,12.912665965294542,-4.802610236766619,15.499095324085848
1760516864.4628224,-4.672146104990443,-0.01903230332160786,1.0026450514541458,-0.12592066434483926,12.766039880634018,-6.450668116809928,15.732303050427728
1760516864.4727926,-4.390596036099712,-0.011540840303062032,1.01171099246192,-0.13427809787614764,12.62315370983072,-8.00779349761236,15.955941354569934
1760516864.482821,-4.1054239413816545,-0.005693994473891815,1.0213302929824717,-0.14265027790387227,12.470402494333495,-9.380051091823757,16.13028622392237
1760516864.4928305,-3.821741962010811,-0.002029821040850416,1.0304453405830203,-0.15071483321755574,12.290038077736776,-10.480012474269728,16.21304436100847
1760516864.5029132,-3.5462102099561497,-0.001144904033447036,1.0379677405482348,-0.15823360936858788,12.061754886154338,-11.232002141318508,16.16394819942058
1760516864.5128152,-3.286862830661891,-0.0036013193227424868,1.0429664522176574,-0.16511323909028502,11.764797801878037,-11.577742464818618,15.949593865020017
1760516864.523014,-3.0526363848830327,-0.009797317287085477,1.0448301286214514,-0.17143074340343328,11.380469723297189,-11.481667158648607,15.547995296621389
1760516864.5329766,-2.8526087379413356,-0.01983667872731154,1.0433704406497637,-0.17741409471570962,10.89478993886178,-10.935056783886663,14.952235692560013
1760516864.542846,-2.6950263284376845,-0.03343061298600408,1.0388418883301522,-0.18337913087034619,10.30092473082274,-9.958257123753038,14.17261416808001
1760516864.5528216,-2.586251695388061,-0.049856703973067955,1.0318683860369962,-0.1896356371969485,9.60095209259697,-8.600514516400917,13.236853473196442
1760516864.5629294,-2.5297980672166007,-0.06798982700791625,1.0232914935934692,-0.1963852023357891,8.806581030943459,-6.937295094863065,12.188230832250092
1760516864.5729864,-2.525626904092167,-0.08640938810108778,1.0139834172755033,-0.20363844091268057,7.938622888086868,-5.0652397824854765,11.081838960264093
1760516864.5831783,-2.5698531737445083,-0.10357038189619615,1.004682802380757,-0.21117552820072216,7.025261731439137,-3.095095776029751,9.979483934947588
1760516864.592857,-2.6549302854123407,-0.1180069485921252,0.9958996499874431,-0.2185616027415143,6.099413177785703,-1.143092403480539,8.943909058752324
1760516864.6028457,-2.770297723675523,-0.12852893264304543,0.9879027681189201,-0.2252126403461694,5.195615972746278,0.6786341223252698,8.033075605119347
1760516864.6129198,-2.90340321887819,-0.13437894550705676,0.9807697109463229,-0.23049456395825388,4.346928594948439,2.2717802814575627,7.295161217061583
1760516864.6230965,-3.0409702473718436,-0.1353309400950725,0.9744635032688346,-0.23383259221219277,3.58221364325497,3.5608014915638058,6.764799190145049
1760516864.6328244,-3.1703607525132877,-0.13172161961440285,0.9689055865988616,-0.23480921625369303,2.9240291616937943,4.499935338104454,6.460898624246285
1760516864.6428173,-3.280872159605464,-0.12441219892523472,0.9640299529567343,-0.23323492937228144,2.3871720694529586,5.077282200556008,6.386163578676368
1760516864.6528752,-3.3648099823395703,-0.11468418514246081,0.9598166499484506,-0.22918245544631352,1.977799233216682,5.315156903116584,6.528189781056571
1760516864.6628559,-3.4182002231855257,-0.10408042331259912,0.9563080047120865,-0.22298091571289108,1.6930219106370703,5.266365856548469,6.861801438944775
1760516864.6728508,-3.441049786238379,-0.09420969604832502,0.9536103545623486,-0.21517144504385247,1.5209170211164462,5.006621418199173,7.352144834427294
1760516864.6829987,-3.437120192612345,-0.08653758141374811,0.9518828423638709,-0.20643104036924967,1.4409754250086917,4.6238777635472905,7.958008731388679
1760516864.6928308,-3.41323899210381,-0.082187414734158,0.9513154331798004,-0.1974767532397936,1.425059916547164,4.205864863095309,8.634894926356115
1760516864.7029266,-3.3782262966072305,-0.08177394001880854,0.9520998823943119,-0.1889666183981077,1.4389425584447966,3.827435614071377,9.337496840752614
1760516864.712892,-3.341558767592076,-0.0852904228388049,0.9543983025531916,-0.18141542561297594,1.4444320534957042,3.539476096060331,10.021431070786278
1760516864.7228208,-3.3119307068184947,-0.09206815052378498,0.9583139750937717,-0.17514117991465342,1.402013673593747,3.361033691233305,10.644268556766537
1760516864.732877,-3.295897288740287,-0.10082294829320408,0.9638686975805305,-0.1702514509736448,1.2738433549658792,3.2759861329332076,11.16608863975256
1760516864.7428212,-3.296788506153362,-0.10979386768545663,0.970989880873563,-0.16666928267620287,1.0268863530180015,3.2350250858964733,11.549898105596355
1760516864.7528358,-3.3140570869136616,-0.1169653910416375,0.9795078693146938,-0.16418908420835265,0.635965085961773,3.1630143392550982,11.762293646146283
1760516864.7628279,-3.3431719377493185,-0.12035021897740392,0.9891602414573498,-0.162547297912006,0.08645835203473966,2.9709869288241793,11.774683493111674
1760516864.7728155,-3.3760995055636567,-0.11829818298989483,0.9995978417684348,-0.16149235875251997,-0.6236444954666913,2.571259027391519,11.565220902803732
1760516864.7828283,-3.4023379821360393,-0.10978914563316977,1.0103892428623098,-0.16084261787888957,-1.4826834522616572,1.8934619822105996,11.121358083959365
1760516864.792814,-3.410391358141439,-0.0946643995663654,1.0210256686008021,-0.16052637648324464,-2.4656429340061936,0.8988489788205528,10.442646511863973
1760516864.803058,-3.38950030196129,-0.07375289229499889,1.0309335289642745,-0.16060132572693833,-3.536172659764602,-0.40984132649121874,9.543155029799346
1760516864.8129306,-3.331393699420401,-0.04885618680338521,1.0395023411734505,-0.1612496902752843,-4.650450891932365,-1.985252806018959,8.452734523953433
1760516864.8228984,-3.2317970045182296,-0.02257000953485352,1.046130514736121,-0.16274208918705851,-5.762671619090493,-3.7402927581029406,7.216402244557641
1760516864.832953,-3.0914409620630288,0.0020575226625115855,1.0502831765694258,-0.1653627763447903,-6.831489292653968,-5.560781878414002,5.891374562880468
1760516864.8429425,-2.9163684779766603,0.021998604414275365,1.0515497976043475,-0.1692965923030161,-7.8263778671490085,-7.3238434755931126,4.541691989494429
1760516864.8530922,-2.717444051760945,0.03477898923230793,1.0496883546248212,-0.1744937012001235,-8.732755260885387,-8.918390030075614,3.23084986173581
1760516864.8630006,-2.509115141909837,0.038971251615545745,1.0446478384873008,-0.18054491552779986,-9.55500037983046,-10.263137477804651,2.01326894527866
1760516864.872893,-2.3076227304384505,0.034540595941539104,1.0365699756707625,-0.18660799965795222,-10.31706848559364,-11.317755649403072,0.9257348590058667
1760516864.882834,-2.1289693295646797,0.022957217289664003,1.0257794577757837,-0.19141825501909773,-11.061035842578606,-12.084174483736552,-0.019958222329851553
1760516864.8928082,-1.9870003920648347,0.007031330563158765,1.0127747272994836,-0.1933974200247696,-11.844274784210272,-12.597407001246655,-0.8420437085099285
1760516864.904204,-1.8919300486149184,-0.009522078317658176,0.9982268850980082,-0.19085046592182775,-12.735912748641477,-12.907864835066347,-1.590706273502882
1760516864.912876,-1.849548690747449,-0.022731000020309634,0.9829864187523281,-0.18221730500726024,-13.81284801964956,-13.059279488914829,-2.346541797928002
1760516864.9228387,-1.8612095448988164,-0.029127155702703737,0.9680915688577991,-0.1663316661911947,-15.15514610007299,-13.067432300257863,-3.215661299325766
1760516864.9331276,-1.9245410006726638,-0.0264965381339178,0.954769433623996,-0.14263624575782655,-16.8403862977437,-12.904729970308145,-4.321953049834088
1760516864.9429328,-2.034707188276626,-0.014493827765971025,0.9444187332309817,-0.11131177597916934,-18.93660015566457,-12.494419213531817,-5.797314474518004
1760516864.9529402,-2.185961886333797,0.004990042974232017,0.9385605099961276,-0.07329488009021788,-21.493842307404634,-11.716314591290208,-7.770794502496695
1760516864.9629076,-2.3732170931598233,0.02778814067845056,0.9387427663901838,-0.030181763874727124,-24.53506291665226,-10.423710253740975,-10.357525112588815
1760516864.97286,-2.5933741951395866,0.047785842844571574,0.9463904287485386,0.015961884509068096,-28.04761615609585,-8.468957360425037,-13.648128811305163
1760516864.982859,-2.846226734494513,0.05761234868020676,0.9626036265588758,0.06284475174970795,-31.977179917442044,-5.733311890995033,-17.699085657279863
1760516864.9928677,-3.134817072971287,0.04964426521706977,0.987923580764376,0.10819726908161842,-36.22585307656246,-2.155477250579741,-22.524430960398913
1760516865.0029929,-3.465202786001522,0.017217711016109527,1.022103563210471,0.14997583161174416,-40.655680766768086,2.2468299847868556,-28.08918065942168
1760516865.0128307,-3.8456647322759343,-0.04411479268517205,1.063936378494995,0.18649395065259988,-45.09797804488903,7.366777058528438,-34.30503849885659
1760516865.0228465,-4.285468555692049,-0.135496211723835,1.1111909093905663,0.21647457611630452,-49.367801418921864,13.01189816929779,-41.029158854252024
1760516865.0328646,-4.79336257575767,-0.25406793421455753,1.1606943063592154,0.23904204139720564,-53.28192298888968,18.920198737638092,-48.06690954802839
1760516865.0429397,-5.376039184261066,-0.3928401699626432,1.2085701025392166,0.2536889501123198,-56.67780190198434,24.78499167513887,-55.17957243897525
1760516865.0531218,-6.036793954070372,-0.541223218125688,1.2506176575601564,0.2602555809026004,-59.430480699218,30.2830661871777,-62.09758974250866
1760516865.0629022,-6.77458803130047,-0.6862149987762037,1.2827982571890595,0.25894443206079476,-61.46432361884373,35.10159308471335,-68.53921450052698
1760516865.072872,-7.583660959614192,-0.814129406125195,1.301770000246897,0.25036599971228085,-62.75727509134904,38.961789654948895,-74.23335255571894
1760516865.0828576,-8.453759377715604,-0.9126220432390985,1.3053834503639965,0.23558522493188624,-63.33677968582857,41.639798830533834,-78.94427968606952
1760516865.09307,-9.370950257830787,-0.9726428475764758,1.2930291866323014,0.2161244480787006,-63.268320391957644,42.98549432171056,-82.49506410982708
1760516865.1028724,-10.31888829110407,-0.9898749429333937,1.2657439287499408,0.19388648437430175,-62.639249377690774,42.93795875141275,-84.78608596661539
1760516865.1129577,-11.28032616361551,-0.9652851551774387,1.2260404620529306,0.1709877306628389,-61.54170232707684,41.53429669688487,-85.80518587040505
1760516865.1228693,-12.238618900734323,-0.904648050526608,1.1775009337809412,0.1495253627961828,-60.05843313285483,38.90836540727257,-85.62694508906802
1760516865.1329122,-13.17899412203482,-0.8172237778311479,1.1242280911713511,0.13133144410342312,-58.254266939073744,35.27796260998576,-84.40049138452719
1760516865.1428604,-14.089430273012763,-0.7139991465489443,1.0702697619186767,0.11777567519699993,-56.17400749548452,30.92149474390337,-82.32762235088788
1760516865.1529512,-14.961077879383325,-0.6059378320152131,1.0191212006963155,0.10966060093637832,-53.84583931548023,26.14717156355707,-79.6351312049721
1760516865.1630478,-15.788247434419493,-0.5025703623303744,0.9733775161979202,0.10721850525061227,-51.28816777005753,21.25927870699042,-76.54631683936263
1760516865.173005,-16.56805412100485,-0.4110921717368283,0.9345680980061755,0.11018798457724473,-48.51761036018592,16.526888919471833,-73.2565012564505
1760516865.1831632,-17.299845775937378,-0.33599598675957404,0.9031685755162617,0.11793366163665008,-45.55625651585778,12.159987603084124,-69.91610930904207
1760516865.192855,-17.984546331872355,-0.2791636477143376,0.8787577323234608,0.12957440769156242,-42.43698286396298,8.29633254471594,-66.62297494594804
1760516865.2028193,-18.624030567878325,-0.24028680650772272,0.8602682977817178,0.14409558702259423,-39.20623665768224,5.0000071195311735,-63.42369173944687
1760516865.2129726,-19.220618440781028,-0.21747281704557161,0.8462736977388441,0.16043257617863035,-35.924105361700924,2.2703201590178193,-60.32249408439696
1760516865.222897,-19.776745354279008,-0.20790724324976326,0.8352579282263468,0.1775243150912976,-32.661696419179584,0.05801659147479103,-57.29537927646147
1760516865.2329347,-20.294829460050227,-0.20846964906722726,0.8258295566957566,0.19434581899041303,-29.496053912656354,-1.715045045404525,-54.3067537920613
1760516865.2429218,-20.77731856617188,-0.21622511285616772,0.8168592219924571,0.20993407115825202,-26.50319161942119,-3.1365205032918,-51.325684744217796
1760516865.2528455,-21.226861435170658,-0.22874157884822383,0.807539468175154,0.22341989247931715,-23.75024404499782,-4.287516108573267,-48.33891543504664
1760516865.2629085,-21.64651923624965,-0.2442165267651702,0.7973823865854843,0.23407102513798064,-21.288002024776514,-5.231639391833499,-45.35827954487889
1760516865.2728622,-22.03992149929896,-0.2614331019903031,0.7861794304877965,0.24134357986270868,-19.145048110375924,-6.009648038235545,-42.42108546713007
1760516865.2830315,-22.411283064258072,-0.2795973004580775,0.7739465706028833,0.24493358169993842,-17.324322918332424,-6.639030065970287,-39.58340235408052
1760516865.2928927,-22.765234531471503,-0.29812565934112933,0.7608699076279614,0.2448178978385603,-15.80235253878773,-7.117092744647895,-36.90775375066409
1760516865.302875,-23.106471206144846,-0.31645310973816915,0.747258148785876,0.24127337542337857,-14.530777228895037,-7.425868717052939,-34.44809214020126
1760516865.3129375,-23.43927984352398,-0.3339142505182847,0.73350324299291,0.23486422767290316,-13.439477608703017,-7.537310170539064,-32.235611666542205
1760516865.3228364,-23.767041786446306,-0.3497243602730799,0.7200491970380477,0.22639110841637333,-12.44059327837524,-7.41768675456142,-30.268714230041727
1760516865.332839,-24.091823572155747,-0.36305785986262445,0.7073691242327055,0.21680149976082458,-11.433009186151885,-7.030671600515412,-28.50939155361375
1760516865.342881,-24.414149257619282,-0.3731989500346479,0.6959493424159741,0.20706944621090168,-10.307318037770116,-6.339173678179391,-26.886777147601872
1760516865.3530037,-24.733008710692697,-0.3797251156414349,0.6862766646199289,0.19806107959161004,-8.951697063452668,-5.306461021958543,-25.30708259881701
1760516865.3630786,-25.04610486970692,-0.3826797952920803,0.6788230756018774,0.19040812971090115,-7.25935634484175,-3.8974403952815715,-23.667942236991443
1760516865.3729148,-25.350294820541404,-0.3826952556359219,0.6740227247088476,0.18441304572239725,-5.138026676008528,-2.081079897344456,-21.874586981367727
1760516865.3829246,-25.64214663625645,-0.38103833019173006,0.6722393790810619,0.18000586211160674,-2.521348421770687,0.16511594683209332,-19.85528126885619
1760516865.3928566,-25.918521571137504,-0.3795657917712398,0.6737263834614916,0.17676481741958927,0.6187621875051972,2.847957606015632,-17.573918339818363
1760516865.4028575,-26.177097446247274,-0.3805888589355777,0.6785842622182015,0.17400128244206423,4.260343364640089,5.948666495800214,-15.038308332282455
1760516865.412844,-26.416768875950712,-0.38665726559888164,0.6867233578062574,0.1708965910248752,8.322134374800763,9.41092607859003,-12.303274570272006
1760516865.4229343,-26.637887470915846,-0.40028316379338363,0.6978408736218723,0.16666614225366072,12.658807524571396,13.12853943314607,-9.46810339200293
1760516865.4328907,-26.842331939772276,-0.4236316827986118,0.7114218535494903,0.16071811144698434,17.0624598398373,16.935202446374667,-6.668225922911621
1760516865.4429772,-27.033413939874574,-0.45820504583555255,0.7267689276352708,0.15277370114931083,21.271695873244532,20.599406273410537,-4.0613592266697625
1760516865.4532123,-27.215624236864567,-0.5045420249570387,0.7430568990966828,0.14292373476820527,24.988939614626833,23.827446956532192,-1.8088070707721422
1760516865.4628558,-27.394209784305783,-0.5619515169931707,0.7594018066461495,0.13161022728462932,27.90575445664371,26.276874685884557,-0.05329047305419724
1760516865.4730341,-27.574563662448544,-0.6283066805512648,0.7749349024472528,0.11953803709097705,29.735053911147077,27.581482750785618,1.1044977393648365
1760516865.4829323,-27.761427015292593,-0.6999441970039598,0.7888776059537064,0.10753731644246767,30.248184395546918,27.387234205525488,1.6276560790560004
1760516865.492938,-27.95794928693181,-0.7717275496235053,0.8006173838302313,0.09640878921365592,29.313830779628844,25.396558481568245,1.5597730108832588
1760516865.502854,-28.16471228326244,-0.8373263416463252,0.8097830109089272,0.08678813738995615,26.934417111586313,21.416482768465567,1.0332825102944645
1760516865.5129762,-28.378869917421355,-0.889732586071447,0.8163129847264926,0.07906107922211608,23.274330286250915,15.404404906604347,0.26688654331693984
1760516865.523035,-28.5935718833924,-0.9219921298855719,0.8205083452881036,0.07334714787872085,18.673460980948317,7.504304915876029,-0.44929671746971733
1760516865.5334668,-28.797819172617668,-0.9280867234594986,0.8230635876800578,0.06955228103457423,13.639923181462109,-1.9338737537492936,-0.7804774352621067
1760516865.5428808,-28.976844380829224,-0.9038609448589325,0.825073798591996,0.06747558931916466,8.81777643347255,-12.35786654620592,-0.38342445799749164
1760516865.5528886,-29.113031314996867,-0.84785016879127,0.828016022231959,0.0669467825455951,4.929098308022341,-23.04362025567741,1.0522676822403083
1760516865.5628555,-29.187303384631146,-0.7618480994260048,0.8336937780268063,0.06796279044907923,2.6944643053567576,-33.15300618224227,3.763925272764651
1760516865.572958,-29.18083422586838,-0.6510755201175847,0.844121030083193,0.07078369209648097,2.7410075341748956,-41.814468457762985,7.88311104092253
1760516865.5831025,-29.07687797897932,-0.5238715216172048,0.8613205623310072,0.07594986208935388,5.5113700202968,-48.21765466500523,13.415890977133111
1760516865.592947,-28.862489141157056,-0.39089769375766464,0.8870299761668411,0.08420352365340586,11.188364819996107,-51.70939857634101,20.238652020407258
1760516865.6028929,-28.529910128917653,-0.26391280628208397,0.9223398045985468,0.09632993115444578,19.648121126057774,-51.876928411750875,28.108672068078214
1760516865.6128807,-28.077452232350698,-0.154256876319608,0.9673240994972867,0.1129580820317501,30.449474013017568,-48.60542581710043,36.685953737720666
1760516865.623014,-27.5097795134103,-0.07128262713947989,1.020754776639642,0.13436812167537884,42.86120110564304,-42.10078611444737,45.5615894921718
1760516865.632847,-26.83761073896928,-0.02104164317755799,1.0799934977818682,0.16034158486502978,55.92335682213443,-32.87370286642509,54.28807590991253
1760516865.6430235,-26.076951400756368,-0.0055066947327436005,1.1411134295379577,0.1900666708333091,68.53546430871195,-21.686908210230538,62.408200235938686
1760516865.6528518,-25.248020983485244,-0.02248082688296688,1.199242371775486,0.22208849106797793,79.56250668825955,-9.472584184643692,69.48101020364842
1760516865.6628587,-24.37403348411167,-0.06617037605676504,1.2490786266345835,0.2542917742967747,87.94866219642665,2.769098490167322,75.10532524735946
1760516865.672871,-23.479935946967256,-0.12825857238388227,1.28552036700691,0.28392664166334813,92.82797111082425,14.077102001230271,78.94241485317187
1760516865.683047,-22.59114301386342,-0.19924280777164202,1.3043460078836975,0.3077211069461269,93.62067962128494,23.628685716987714,80.73925770490973
1760516865.6928666,-21.732257329085208,-0.26978881664358234,1.3028668423542082,0.3221366073095526,90.10427142076654,30.818376694214713,80.35218596562349
1760516865.7028503,-20.92575652257214,-0.3318937667559696,1.280444640161127,0.3237930235684566,82.44947230581792,35.30741431631827,77.76831993541873
1760516865.7128484,-20.190659548342097,-0.3797145161741626,1.238748252042753,0.31002674154554893,71.21406979585406,37.0383746876718,73.12010747804406
1760516865.722938,-19.541240570109178,-0.4099806159361351,1.181646714223697,0.27948391476604906,57.29168352348623,36.21446418043409,66.68768807585391
1760516865.7328722,-18.985910002729774,-0.4219686008546464,1.1147168475467788,0.2326177606250142,41.81881032817909,33.248043293125555,58.8852852260389
1760516865.7428973,-18.526410730126074,-0.4170829450969092,1.0444542222745727,0.17195783837754539,26.050563043478135,28.687541804407932,50.2308928305322
1760516865.7528834,-18.157480416287,-0.3981720028913149,0.9773617184378071,0.10204944291162565,11.22154502051091,23.135054322997753,41.30193007527257
1760516865.7629676,-17.867112363827005,-0.3687684925120917,0.9191082966831552,0.029021874103526704,-1.5885290791892874,17.16777037477786,32.682230605150465
1760516865.772918,-17.637503351800977,-0.3324431126263234,0.8739048087488157,-0.04017634841629648,-11.565359157659024,11.274782184755509,24.907279929409647
1760516865.7833526,-17.44669439559563,-0.29239213679870935,0.8441691399671531,-0.09876053190870662,-18.23172358726324,5.817122920897943,18.414982611177688
1760516865.7929428,-17.27078633762486,-0.2512789169693914,0.8304834892701133,-0.14113933710954019,-21.472127421064407,1.0140233443029945,13.508438995672972
1760516865.8029954,-17.08647185450842,-0.21126174391450836,0.8317954240169229,-0.16379346542222825,-21.51036240963944,-3.0464982796132363,10.335309449922207
1760516865.8129582,-16.87351755238396,-0.17409891288612558,0.8457821365916821,-0.16582279166703717,-18.84738532487631,-6.378542430187119,8.885649590412882
1760516865.8228943,-16.616798713735538,-0.14123057408254222,0.8692859855531875,-0.14904360936456926,-14.172283690122148,-9.059116905564258,9.007196347253515
1760516865.8329003,-16.307552628111427,-0.11377967866499022,0.8987423256484631,-0.11761385951029162,-8.26160171672866,-11.188113437793913,10.434622117145553
1760516865.8428693,-15.943666033506183,-0.09247120423630092,0.9305525445491938,-0.07726872048397572,-1.8820184467604255,-12.855812925599212,12.82769081274042
1760516865.8528926,-15.52901796168005,-0.07752097942335076,0.9613887849263443,-0.03433250931977618,4.291142981600977,-14.123427182616197,15.812674099302917
1760516865.8631048,-15.072102857543822,-0.06857016641577539,0.988433977350446,0.005288086021149172,9.731153709464188,-15.018140872238293,19.021718949801834
1760516865.8729649,-14.58428700893418,-0.064723657405167,1.009558224625519,0.03693923031881198,14.089288824005516,-15.540143886567037,22.12588633399691
1760516865.8828683,-14.078062523108512,-0.06470201639069503,1.0234241042322614,0.05775143276811053,17.19758480303262,-15.67658353237237,24.85905791729045
1760516865.8929303,-13.56557644230799,-0.06706896095115636,1.0295144078335443,0.0668122335022265,19.0498814076855,-15.416846129581067,27.03156351466048
1760516865.902971,-13.057583539057182,-0.07047345355173626,1.028086627341241,0.06499927003644956,19.768215874585934,-14.764752614197558,28.53391647354031
1760516865.9128819,-12.56284918675139,-0.07384906641240864,1.0200679634106435,0.054551427150672425,19.562024668348297,-13.745267980537042,29.33219027313617
1760516865.9229445,-12.087938836420934,-0.07653202417426634,1.0069055802917701,0.0384910243525143,18.68665149432047,-12.405393267265891,29.457202214041022
1760516865.9329963,-11.637279553128396,-0.07828161724846942,0.9903826102692962,0.02001849395709008,17.406011841062362,-10.810494546188707,28.989837722237233
1760516865.9429626,-11.213364132569662,-0.07920683332669406,0.9724094990201146,0.0019854027315901342,15.962516387559441,-9.038115062330931,28.044696078934177
1760516865.9528687,-10.81698454332451,-0.07962097281665731,0.954807497626563,-0.01348041717516928,14.555844092057905,-7.171263421252597,26.753898883614013
1760516865.9628737,-10.447422739668513,-0.07986213790260077,0.9391122157649439,-0.02516320531396855,13.330950647600323,-5.292506975182781,25.252464700534944
1760516865.9732122,-10.102581737912747,-0.08012739454436199,0.9264301126127683,-0.032764597215503566,12.374742457218368,-3.479345601521119,23.666198205665548
1760516865.9829552,-9.779089460482233,-0.08036482051008029,0.9173724954298881,-0.03675942144765588,11.720092204024294,-1.8007035810700707,22.102651358490238
1760516865.992874,-9.472433618449497,-0.08024896116763891,0.912071456449715,-0.03815396788937344,11.35531595200788,-0.31416186233231397,20.645421520913242
1760516866.002948,-9.177179928810395,-0.07923886014811474,0.9102604011381659,-0.03820515244841795,11.236900550658438,0.9362908345438494,19.351821888577224
1760516866.0128696,-8.887295492190292,-0.07669497150835514,0.911390866437609,-0.03815455603200009,11.303211910375568,1.921896540786051,18.253728478595963
1760516866.0231087,-8.596562596076453,-0.07202033787209217,0.9147604812068979,-0.03901852406880326,11.487168472263983,2.629831498135668,17.361134047675133
1760516866.033082,-8.299043742523285,-0.0647939823508464,0.9196357014747273,-0.04145822790933495,11.726399113623662,3.062642848573599,16.66763677152272
1760516866.0428793,-7.989552480093997,-0.054874514641781114,0.9253585702793569,-0.04573606361599104,11.970092907972283,3.2363108006476824,16.156832027692587
1760516866.0529015,-7.6640898349773705,-0.04246166884174001,0.931428863579965,-0.05174985351348191,12.182417415306091,3.1771712693779808,15.808457041465749
1760516866.0628812,-7.320213427823801,-0.028110086494317593,0.9375554415383722,-0.05912519373093192,12.34290078986567,2.9182402302170733,15.603233570169284
1760516866.0728872,-6.9573130126763685,-0.012695206306090816,0.9436746182855763,-0.06733985840116398,12.444491935249683,2.4956299408820906,15.525669235046802
1760516866.083145,-6.576773116389518,0.0026635482410245098,0.9499374220074558,-0.0758533873059258,12.490148467064008,1.9456984753133095,15.564541922671976
1760516866.0928586,-6.182007324088254,0.016714579536497645,0.9566707866504442,-0.08421935994588563,12.488794282684749,1.303362190383824,15.71128661757059
1760516866.1028605,-5.7783459263072565,0.02821358318234598,0.9643199087887162,-0.09216492900340205,12.451376534079913,0.6016947613892059,15.95692024354963
1760516866.112869,-5.372755982290725,0.03608108933758739,0.9733796671311545,-0.09962943162184934,12.387573056550538,-0.12739086757616425,16.28840694339872
1760516866.1228871,-4.9733844277902,0.03955981369390629,0.9843215471381704,-0.10676032483958049,12.303489640439148,-0.8518571839053345,16.68545136315619
1760516866.1330807,-4.58894549690527,0.03834308961747084,0.9975195724068467,-0.11387027551411699,12.200469861403086,-1.5382879723158625,17.11860540706322
1760516866.142879,-4.228011069950522,0.03264283484309583,1.01317602238615,-0.1213641039021643,12.074946262900495,-2.1512904966515536,17.549302233661503
1760516866.1530776,-3.8982895435208422,0.023174154071718595,1.0312469378042353,-0.12964825698862403,11.919118748032995,-2.654011835118824,17.93203378358122
1760516866.1629038,-3.6059899021273796,0.01104902590831653,1.0513701951856886,-0.13903780303986882,11.722171658479146,-3.0099492811641033,18.218433748119846
1760516866.1728938,-3.355364609805411,-0.002410766317895109,1.0728067573207793,-0.14967624167467322,11.471737175008546,-3.1859055448172917,18.362605760148526
1760516866.1829374,-3.1485025487192777,-0.015910401407999507,1.094417535034932,-0.1614825251247677,11.155370488770805,-3.15562268896173,18.326747990426114
1760516866.1929817,-2.9853935656271897,-0.02841556333692699,1.1147074504672165,-0.17413778926572757,10.76190041815599,-2.9034015687420376,18.086053598581785
1760516866.2029078,-2.864216939825271,-0.03931796183465426,1.1319634812269672,-0.18711934439010747,10.282620865445674,-2.4269503019568472,17.632033958634025
1760516866.2129161,-2.7817465223384605,-0.04847936115416153,1.144486626465959,-0.19977923174696047,9.71235376956879,-1.7388330559804306,16.973766407758816
1760516866.2228777,-2.733750107805541,-0.05613964380609041,1.15087548048924,-0.21145079195667363,9.050420453286236,-0.8661626285855122,16.13700452500816
1760516866.2329226,-2.715303472593755,-0.06272861026627814,1.1502848316525538,-0.22155571355428083,8.301507786731086,0.15149943353647655,15.161478603849401
1760516866.2429569,-2.721018305893863,-0.06866289483022395,1.1425805944937335,-0.22968289963799496,7.4763321024979765,1.2657892635846573,14.096955990161227
1760516866.253006,-2.7452514857156993,-0.0742122606049101,1.1283472982170686,-0.23562128878778893,6.591926746284563,2.4242781334707164,12.998698721885209
1760516866.2630475,-2.782379501122905,-0.07947926787905261,1.1087580405673414,-0.23934696127410893,5.671350237063524,3.575704045543756,11.922894669078222
1760516866.273013,-2.827178036836226,-0.08447690365488401,1.085360893145853,-0.2409813450574153,4.742655804219882,4.675018423757865,10.922518502896676
1760516866.2829885,-2.8752746393677855,-0.08924655696905567,1.0598497042984711,-0.24074346447083914,3.837073976613537,5.687547129240385,10.04395125505127
1760516866.2930424,-2.9235884677186696,-0.09395387492259426,1.0338708461121675,-0.23891299302887187,2.9865011212851367,6.591616576825815,9.32456136670558
1760516866.303018,-2.9706588465425394,-0.09892314755290013,1.008888433168594,-0.2358083304288234,2.2205085974270657,7.379138962557901,8.791305327119698
1760516866.313004,-3.01678414513907,-0.10459937737239139,0.9861083397081234,-0.231773017255093,1.5631597683891632,8.053892637531394,8.460233204167391
1760516866.3228965,-3.0639244764924336,-0.11144820461366499,0.9664524302781381,-0.2271589806857016,1.0299499960134535,8.627561463781998,8.336612397105505
1760516866.3328807,-3.1153567138253218,-0.11981735887379397,0.9505725384186596,-0.22229683571240827,0.6251860089744344,9.113978960854745,8.415264870469152
1760516866.3429384,-3.175108778863703,-0.12979183667171176,0.9388911377738852,-0.2174500207339653,0.3401015124967417,9.522405817614272,8.680699549900401
1760516866.353137,-3.247240461531464,-0.14107816841594936,0.9316517187876848,-0.21275831835449435,0.15195791896537125,9.850976854252247,9.106739338970952
1760516866.3628848,-3.3350728924445585,-0.15294987674838512,0.928961246828569,-0.20818447936147796,0.024297515150951354,10.081597937295525,9.655580326017024
1760516866.3729591,-3.4404896489836623,-0.16427698986767353,0.9308125507627817,-0.2034823774389381,-0.09159239656502773,10.177476302845262,10.276530746510472
1760516866.3828988,-3.563432270920973,-0.17364816755905413,0.9370840129392088,-0.1982040008503272,-0.2540649850343321,10.084096149228039,10.904984522847483
1760516866.392965,-3.701688164636395,-0.17957625289297388,0.9475227292793492,-0.19175497009391967,-0.5275128126588023,9.733854661004324,11.462400458249212
1760516866.4028983,-3.8510250523399963,-0.1807612446419088,0.961721278853025,-0.18349612520539374,-0.978006074659498,9.053880799005134,11.858101521410967
1760516866.412916,-4.005676389142953,-0.17637300960337937,0.9790969663664705,-0.172876234559947,-1.6684168559182981,7.975921076838986,11.993532722651175
1760516866.4229043,-4.159133629872323,-0.16630838088602257,0.9988800075491079,-0.15957241147754855,-2.6532892467139497,6.446704607090145,11.769229095217655
1760516866.4329293,-4.305150391016252,-0.15137076362720112,1.0201181172997187,-0.14361206499296242,-3.9737599983310745,4.436960343093004,11.09420457812597
1760516866.4429486,-4.4388113858902365,-0.13331860554250768,1.0417086468624361,-0.12545110138882096,-5.65291569749491,1.9473125648652923,9.89686740247019
1760516866.4529426,-4.557481417201984,-0.1147398724863561,1.062470337601736,-0.1059848849136208,-7.692047710893634,-0.990298591186839,8.13601243467255
1760516866.462919,-4.6614460103135515,-0.09873522252282148,1.0812599244634993,-0.08647215872848495,-10.068272571044139,-4.316180128561443,5.810070706713696
1760516866.473048,-4.75409283157349,-0.08842873862675726,1.0971234925330904,-0.06836286988318656,-12.733893283703656,-7.950726856617166,2.9627350888192043
1760516866.482887,-4.841557988630324,-0.0863689031412072,1.1094530850081834,-0.053042732849857034,-15.617737658429755,-11.804506890847897,-0.3165992872992609
1760516866.492986,-4.931864617155446,-0.0939300703399818,1.1181040853264936,-0.041536908142048586,-18.628636733911815,-15.787561416555343,-3.898432419650515
1760516866.5029247,-5.033693557921822,-0.11085885979266936,1.123427638219415,-0.03424003111303169,-21.661270564139468,-19.8146923225126,-7.624623116646339
1760516866.5129387,-5.155014547147398,-0.1351040080600068,1.1261899759222516,-0.030745827828897364,-24.604738479608606,-23.804431088941755,-11.32442147701331
1760516866.5229425,-5.3018407532676886,-0.16301190735428264,1.1273839055183357,-0.029830637538636306,-27.354197295020253,-27.6713880328107,-14.832877426138902
1760516866.5331476,-5.4773417889342575,-0.18988309011181204,1.1279755792921953,-0.029607215165008596,-29.82552398468509,-31.314271155501057,-18.009044727331197
1760516866.5431,-5.68147475286125,-0.21079839104816459,1.1286562065946208,-0.027821563191318035,-31.972113110806806,-34.604171798741156,-20.751574714953954
1760516866.5529077,-5.911190854493133,-0.22155585168692293,1.129669160685411,-0.022230414418534756,-33.80177624903938,-37.3788526754259,-23.009881673990396
1760516866.562943,-6.161167896681984,-0.21952103289866343,1.1307543547276881,-0.010980815243482557,-35.390622426705214,-39.44815376537544,-24.789848410212727
1760516866.573022,-6.424929042187244,-0.20420273434315805,1.1312083414461074,0.0070812859406592325,-36.890131578146374,-40.61317279881001,-26.15385043860891
1760516866.582895,-6.696155364528391,-0.17743334313864179,1.1300250770581852,0.032225885613657135,-38.52369917523911,-40.69817975298771,-27.215574218615416
1760516866.593161,-6.969988409309531,-0.1431308261269787,1.1260731542263838,0.06380265776842249,-40.570034020819925,-39.590462550146476,-28.130569331031555
1760516866.6031191,-7.244138671662663,-0.10670172442741173,1.1182748196171985,0.10034996307227964,-43.333077778040035,-37.28063149544001,-29.083637544819418
1760516866.613069,-7.519652783552782,-0.07419217265749078,1.1057656203712032,0.13981783113288446,-47.10123206937851,-33.89490679455715,-30.274067684697965
1760516866.6230898,-7.801238253488771,-0.05131728698425013,1.0880229137147337,0.1798553848136535,-52.10174445818379,-29.71159631390361,-31.899526913929865
1760516866.6332383,-8.097096109529765,-0.04250990470847108,1.0649568038023416,0.2181109131403918,-58.45809573782584,-25.156121940186292,-34.139269607379475
1760516866.6429029,-8.41826585583129,-0.05013116501818593,1.0369597230571796,0.25250294029916454,-66.15839721117426,-20.772175311839003,-37.13727003481148
1760516866.6528986,-8.777540738842557,-0.07397772457241258,1.0049111137203004,0.2814335355890972,-75.04091263312392,-17.17025735314816,-40.98588961441517
1760516866.6629157,-9.188061504119945,-0.11119844120406738,0.9701332674306472,0.3039250907188161,-84.79929693644341,-14.958326073721322,-45.71076146004713
1760516866.6730466,-9.661740024695032,-0.15668564427877266,0.9342961983771463,0.3196697269632696,-95.00604102495943,-14.662118649665638,-51.25781284852293
1760516866.6829026,-10.207693707701846,-0.20391970339787435,0.8992732871906891,0.32898917820682116,-105.14919431995138,-16.644818207769376,-57.48382432523704
1760516866.6929414,-10.830876874035985,-0.2461220467703802,0.8669532396469926,0.33271366229933097,-114.6756691931255,-21.037154580162593,-64.15251562523518
1760516866.702923,-11.531068887632996,-0.27745330703744936,0.839020571898667,0.33200111566374657,-123.03464924559383,-27.689593609438155,-70.93848283635141
1760516866.71297,-12.302327063377673,-0.2939593955074082,0.8167321228835168,0.32813284947841076,-129.71640582687814,-36.157311444723796,-77.4409868005007
1760516866.7232327,-13.13295467267613,-0.2940644022668883,0.8007348973720614,0.32233356597475527,-134.2841749603259,-45.72529310685404,-83.2085211885173
1760516866.7329988,-14.00598773759596,-0.27857942638662625,0.7909713567568961,0.3156618988862036,-136.39868752884465,-55.4748340478599,-87.77357553273305
1760516866.7431128,-14.900171469353229,-0.25033187000353324,0.786693561045363,0.30899417480662283,-135.83605541753062,-64.38487321461012,-90.69540070847808
1760516866.752907,-15.791369069702677,-0.2135669076766668,0.786575235416416,0.3030861636452935,-132.50001747566557,-71.45407541402504,-91.60696919867831
1760516866.7629144,-16.65431131960141,-0.17325700648799888,0.7888941985251726,0.298665789124232,-126.4291557397599,-75.82485931698102,-90.26072933494282
1760516866.773082,-17.464551431686232,-0.13442146600537386,0.791758400980056,0.2965017998595844,-117.79878313340596,-76.89007995196151,-86.56653647745446
1760516866.7828927,-18.20044413500592,-0.10152891566698997,0.7933513924126165,0.2974108816111982,-106.91620009927219,-74.36661101460292,-80.61499530277766
1760516866.79315,-18.844937274097344,-0.07803419537228908,0.7921674522959663,0.30219575957232564,-94.20755901443425,-68.32620911266709,-72.68094875690906
1760516866.802927,-19.386963927167642,-0.06608288719106199,0.7871993239231614,0.31153366061988297,-80.19518639628016,-59.18102892045578,-63.20494696936979
1760516866.8128994,-19.82225899447729,-0.06639697386217393,0.778044670439524,0.3258485648660608,-65.46587608893458,-47.62763865208275,-52.75440396958914
1760516866.8229156,-20.15349012240119,-0.07833100813156488,0.7649141317577878,0.3452009448810077,-50.63271388046783,-34.558685154205286,-41.969640600989436
1760516866.8328934,-20.389676624074628,-0.1000659158332911,0.7485470181194287,0.3692200652536566,-36.294528416865006,-20.9552202582527,-31.502222408744654
