timestamp,angle,linear_acceleration_x,linear_acceleration_y,linear_acceleration_z,angular_velocity_x,angular_velocity_y,angular_velocity_z
1760516709.5173025,-7.167606690724618,-0.07873980514409615,0.9628890875280546,-0.18537466401761402,11.004758050136166,0.4420825790436872,10.30843671950724
1760516709.527233,-6.955011370892368,-0.06457991128638027,0.9673883136070893,-0.18923321922582795,10.912892537946068,1.1105219289127817,10.576439675773097
1760516709.5372467,-6.72014087304635,-0.05171277831276986,0.9717478002906011,-0.1930194494632131,10.794768794218774,1.9377310319156205,10.747130695101273
1760516709.5472398,-6.46924423120925,-0.04108599113974235,0.9755248425101428,-0.1966554777950447,10.658082644481688,2.8700853495319354,10.800709786948621
1760516709.5573292,-6.209845973710063,-0.033308255524802315,0.9783674819902373,-0.2000642806544909,10.515155556881757,3.8449669006000775,10.730899958141341
1760516709.567236,-5.949640187967489,-0.028537057359401635,0.9800611274569558,-0.20316547291227255,10.381253310485645,4.798927907439258,10.545733538226061
1760516709.5772395,-5.695352261080164,-0.026450704478857993,0.9805502562869535,-0.2058710241488709,10.272260462086406,5.6761964322716985,10.266463714311868
1760516709.5872972,-5.451774091630487,-0.026310087368174317,0.9799324592081872,-0.20808653669195298,10.202120770944562,6.436179998165435,9.924791193994352
1760516709.59724,-5.221142736730762,-0.027096733274076197,0.9784273061929945,-0.20972163825550386,10.180494264090466,7.058672044117914,9.558851407539038
1760516709.607233,-5.002965183889033,-0.027699207462532092,0.9763272797755006,-0.21070947097778417,10.211014525500268,7.5457481128823884,9.208545586762535
1760516709.617339,-4.794308993294527,-0.027112429179167008,0.9739415582898197,-0.21103175094058696,10.290394652455145,7.919837194806925,8.910824144823124
1760516709.627245,-4.590494658044469,-0.02461340445635412,0.9715444318153463,-0.21074349736462286,10.408483406685475,8.218100918361495,8.69549085714599
1760516709.6373537,-4.386054593297629,-0.019881695646405052,0.969337289133916,-0.20999035964221643,10.549248804933901,8.483933548967311,8.582025719621576
1760516709.6474373,-4.175779967664228,-0.013043920095981687,0.9674277452685565,-0.20901168897568498,10.692563308704322,8.756977230459684,8.577814407451397
1760516709.6574588,-3.9556706142398244,-0.004637369005906483,0.9658256364775751,-0.20812520467179,10.816568015292525,9.06341622439506,8.677995909865462
1760516709.6672392,-3.723635338689744,0.004495528529744347,0.9644552398657618,-0.2076943995184564,10.900302481823775,9.408388128394558,8.86689256495162
1760516709.6773422,-3.479849449954732,0.013357189739985374,0.9631833185807317,-0.20808530314530757,10.926220163858003,9.772084897026604,9.12070710577717
1760516709.68729,-3.2267483043420935,0.020957388791254174,0.9618599645038277,-0.20962187278222116,10.882193199381266,10.110526121711548,9.41093380431306
1760516709.6973338,-2.9687053520451396,0.02645566951859087,0.9603643562578212,-0.21254816357733852,10.762666989833058,10.361155122039742,9.707816483180284
1760516709.7072284,-2.711494051648786,0.029258778085529128,0.9586444117042638,-0.2170021056600708,10.56875834770083,10.452484861006374,9.983246012698546
1760516709.7172358,-2.461649605987219,0.029064412328348714,0.9567410530230523,-0.22300282038396305,10.307277277689538,10.31620825203757,10.212711574115911
1760516709.7272863,-2.2258274545998042,0.025860037564728006,0.9547937304561414,-0.23045216291616746,9.988849397983234,9.899688786726927,10.3762198066044
1760516709.7372563,-2.010220077858256,0.019893619877447494,0.9530294626587218,-0.23915005716611443,9.62547828639186,9.176678207521773,10.458357973814916
1760516709.7474525,-1.8200673637106612,0.011628682072096101,0.9517388978488122,-0.2488204175926025,9.227980937965258,8.154452350987333,10.447820207949706
1760516709.7572603,-1.659288066332596,0.0016871097169526322,0.9512409336186767,-0.25914138339985476,8.803744506426167,6.876200300151056,10.336733457019449
1760516709.767231,-1.5302594481952703,-0.009220209598187751,0.9518369383887761,-0.26977336793609,8.35519973078671,5.418295181777432,10.120063776332406
1760516709.7772834,-1.4337626031628905,-0.020370408957451087,0.953758564944287,-0.2803815218556713,7.879299832954094,3.8828758310657148,9.795310659463219
1760516709.787261,-1.3690867922310987,-0.031102197567976473,0.9571171832901054,-0.2906527035879301,7.368135103335159,2.38686269552171,9.362623406297281
1760516709.797371,-1.3342559677232977,-0.04087232795957416,0.961865130416215,-0.3003082711305909,6.810605775133468,1.0490274818199579,8.825374743309172
1760516709.807285,-1.3263204059211022,-0.04928582930996734,0.9677778012123825,-0.3091128913608266,6.194852256050712,-0.02303383042760058,8.19108437717993
1760516709.8172557,-1.3416593230712064,-0.05610104145064181,0.9744608897322583,-0.3168779785447512,5.510972294924001,-0.7442425154504144,7.472429597291178
1760516709.8272514,-1.3762670817782152,-0.06122110290907384,0.9813806552929659,-0.32345854727262335,4.753509968921096,-1.0602668275960687,6.687983077209145
1760516709.8372567,-1.4260289989035573,-0.06468704191644462,0.9879106593374896,-0.3287449030993529,3.923300704707817,-0.9518003670849347,5.862341178161996
1760516709.8472536,-1.487007834823163,-0.0666801460103055,0.9933884683600772,-0.33265378899452397,3.0284459631938647,-0.43474329822012214,5.02545253271519
1760516709.857344,-1.5557480765011484,-0.06752841748359632,0.9971786441961992,-0.3351244223311456,2.084376961574696,0.4432290751868174,4.211160508528691
1760516709.8675177,-1.6295761126113817,-0.06770415287124606,0.9987396907260854,-0.33612227636151537,1.1130818608524682,1.6087982106773384,3.455141638875628
1760516709.8774803,-1.706852538560833,-0.06780116073771411,0.9976903061975134,-0.33564928320212256,0.1416146953788511,2.970745188575713,2.79250368938132
1760516709.887274,-1.787127571430263,-0.06848638216595611,0.9938663088257146,-0.3337560336173475,-0.799979991272969,4.428250022407237,2.2553152226563262
1760516709.8973486,-1.8711579540213712,-0.07042664105536774,0.9873580807770819,-0.3305508332977793,-1.6811679431977746,5.878857799447232,1.8703121409926904
1760516709.9072838,-1.960757634331191,-0.07419591436460776,0.9785217407659416,-0.3262017688714847,-2.473649855094177,7.225432935682421,1.6569858349546893
1760516709.9172683,-2.058472009569254,-0.08017249452978151,0.9679636602018795,-0.3209299417590554,-3.154058847126839,8.381627215121304,1.6262015133655
1760516709.9272585,-2.1670859215824647,-0.0884386869410585,0.9565028007921204,-0.3149933799907521,-3.7063386671211567,9.275578031451818,1.7794229524795904
1760516709.9374213,-2.288998496976501,-0.09869787688595916,0.9451161179095339,-0.3086615711331306,-4.123495812885493,9.851760972624081,2.1085388520203594
1760516709.947294,-2.425521840398625,-0.11022456437579777,0.9348703623637287,-0.3021813267646744,-4.408452239447401,10.071177741737573,2.5962091795235587
1760516709.9572732,-2.5761825516509202,-0.1218618800693678,0.9268416704838272,-0.29573719914783264,-4.573820240796606,9.910350173071963,3.2165952614897177
1760516709.9672513,-2.738122036469594,-0.13207804705076995,0.9220239256575613,-0.2894138863041625,-4.640570106360469,9.359837853863764,3.9363268487739256
1760516709.9772882,-2.905701622186109,-0.13908853065920546,0.9212288242864228,-0.283172303654811,-4.635738957799545,8.423107335551522,4.715605477271641
1760516709.9872983,-3.070419288399982,-0.14104415785885258,0.9249848435988421,-0.27685277373925155,-4.589499200604554,7.116492691791121,5.509433706863279
1760516709.997503,-3.2212320689254486,-0.1362766310968858,0.9334469882230442,-0.270215881013004,-4.532028226666252,5.47068723247545,6.26905962429474
1760516710.0072992,-3.3453458644618714,-0.12358116565883823,0.9463315188903545,-0.2630233093419843,-4.490670639851686,3.5337243255425235,6.943798301121175
1760516710.0172596,-3.4294772948660173,-0.1025021305934697,0.9628888660016813,-0.25514925202118593,-4.487854340621789,1.3748031080031675,7.483411950315499
1760516710.0272899,-3.4615100481248122,-0.07357407273199798,0.9819251406213514,-0.24670133272051192,-4.540121203046526,-0.9123084985222385,7.84118257858668
1760516710.037262,-3.4323701443687,-0.0384618262365787,1.0018797044533752,-0.23812151825570563,-4.658473856943042,-3.208056727913901,7.977679849565421
1760516710.0472732,-3.3378510842931215,5.497261400101544e-05,1.0209621939940947,-0.23023361533361425,-4.850030244130423,-5.370017737447665,7.865005135991051
1760516710.0572522,-3.1800596156644234,0.03829114310607448,1.0373439386461387,-0.22420527753496844,-5.120725393838601,-7.241582493377489,7.490999339012521
1760516710.0673926,-2.968154350999585,0.07206420156417381,1.049383965831424,-0.22140103583726614,-5.478527915897006,-8.66710785894746,6.862594364335416
1760516710.0773175,-2.7181296070065626,0.09726094935970653,1.0558526949178433,-0.2231228743049053,-5.936399420060817,-9.512659234736198,6.007264789053405
1760516710.0873582,-2.4515507392323292,0.11047373085300073,1.0561069890267174,-0.23026882001842172,-6.514110722777622,-9.68952397978447,4.971533550703948
1760516710.0973232,-2.1933448820397823,0.10958483894660252,1.0501774198490523,-0.2429807286951903,-7.238154173037327,-9.17594254386333,3.8158430428155725
1760516710.1072674,-1.9689445645767178,0.09417659131091875,1.0387514892996288,-0.26038057928869257,-8.139414051518873,-8.03173959035234,2.605870203783528
1760516710.1172721,-1.801222723659343,0.06567893058442938,1.023063996414879,-0.2804904240458509,-9.248873919639303,-6.401280232982963,1.4013901247457428
1760516710.1274872,-1.7077138162979595,0.027221946190175178,1.00472517329245,-0.30039067097489547,-10.592196503496385,-4.502423738988096,0.2447271380318893
1760516710.1372929,-1.6985762477865485,-0.01678244477081802,0.9855227771474744,-0.3166090155142273,-12.184268672994037,-2.602300885110309,-0.8486990174988456
1760516710.1474566,-1.7756244037639721,-0.06125985131013081,0.9672283847700044,-0.3256703021968781,-14.024706467747617,-0.9838310429324408,-1.8954116172938813
1760516710.1572895,-1.932569329121161,-0.1011939414672343,0.9514281069499333,-0.3246950404967518,-16.094993647405058,0.0910368727389702,-2.942973085032073
1760516710.1672876,-2.1563935604031887,-0.1323349649884954,0.9393906737494588,-0.3119221994309331,-18.3575580538383,0.41487721375489817,-4.062806544478319
1760516710.1772552,-2.4295903307264055,-0.15178703899498905,0.931982479592848,-0.28705138166609373,-20.756774424222797,-0.14032083069758686,-5.337743352315379
1760516710.1872687,-2.732859872633766,-0.15838596067451785,0.9296353542355826,-0.25134160086798074,-23.221640694965394,-1.6103145517952762,-6.846505262853533
1760516710.197309,-3.0478049258579887,-0.15281446973804572,0.9323647425497337,-0.20745351388468278,-25.66972163087369,-3.9387498587249206,-8.648164558680577
1760516710.2073085,-3.3592110329598306,-0.13744425967797777,0.939825845141895,-0.15906677810266934,-28.01194873908982,-6.988909047274738,-10.769851105687811
1760516710.2172744,-3.6566145243030292,-0.11593493158815604,0.9513893871506063,-0.11034010441791607,-30.158060264731496,-10.563940769155703,-13.200434334290598
1760516710.2272832,-3.9350153761448854,-0.09265350222718302,0.966220355543107,-0.06530715520166067,-32.022790699483025,-14.431504401047958,-15.891661062886257
1760516710.237271,-4.19474771384812,-0.07200193686307643,0.9833500047122475,-0.02731162115099651,-33.53317210645119,-18.34878564100183,-18.766609900380864
1760516710.2472627,-4.440651920519007,-0.05775372430536793,1.0017397176034135,0.001425473051225534,-34.63727495643675,-22.084828398334473,-21.733783622442825
1760516710.2575705,-4.680782235980714,-0.05250147956830478,1.0203414197756955,0.02004242952546712,-35.31429462988723,-25.438709136993253,-24.704055977983707
1760516710.2672615,-4.924922247030027,-0.05730223889795761,1.0381594107091965,0.029054140313645005,-35.58513243222999,-28.25356593930586,-27.60719220837421
1760516710.2772636,-5.1831656618630895,-0.07157459347670024,1.0543121087971938,0.030168022588954266,-35.52171720966668,-30.427256001217426,-30.404810456993346
1760516710.287259,-5.464760191202403,-0.09325829349195393,1.0680855079954203,0.025948968579521947,-35.252570279113925,-31.92022280833658,-33.09737364112539
1760516710.2973654,-5.777327636999825,-0.11920352984946464,1.078970259655063,0.019399855757287258,-34.96186636215805,-32.76022700092212,-35.72392111898114
1760516710.3074358,-6.12648607506082,-0.14572270884326963,1.086680441523808,0.013524352216242945,-34.87971679837071,-33.042445074402686,-38.35452407717502
1760516710.317297,-6.515827691002403,-0.1692154620306071,1.0911572855006413,0.01092948536116406,-35.26265323204896,-32.92267437763206,-41.076648713946526
1760516710.3273275,-6.9471572913575175,-0.18676821446211392,1.092561619165476,0.013514013081388231,-36.36518326237932,-32.601504957452725,-43.97757217948466
1760516710.3372707,-7.420873927584995,-0.1966338578386045,1.0912571056205271,0.02227740495895882,-38.40543841522939,-32.29855521405398,-47.12561026435776
1760516710.3473551,-7.936379392295997,-0.1985158557086739,1.0877856194195845,0.03727068465900687,-41.52971911568222,-32.21807614831696,-50.55311413858576
1760516710.3572862,-8.49241788849333,-0.19361230380445435,1.0828351327918722,0.05769162672543308,-45.78157873962106,-32.50990846254493,-54.24395425679789
1760516710.36726,-9.087284748302833,-0.1844138933364781,1.0771970217645113,0.08210346547738448,-51.080780331020215,-33.23218139035496,-58.12757295285677
1760516710.3773084,-9.71888185705854,-0.1742892684659034,1.071705366657556,0.10873338397187196,-57.2162299529275,-34.3234791083444,-62.08075185776572
1760516710.3872716,-10.384636275235822,-0.1669254945590854,1.0671499110662117,0.13579159921304795,-63.855209250161565,-35.5918851295566,-65.93712888102161
1760516710.3975542,-11.081329395129977,-0.16571401662342752,1.064158819203984,0.16174841360364337,-70.56915339613762,-36.7261856994854,-69.50332005137065
1760516710.4072502,-11.804901371206704,-0.1731800627391984,1.063056360175362,0.1855156705176207,-76.87398861619144,-37.330892723313845,-72.57937687385316
1760516710.4173396,-12.550297923465076,-0.19054698514086874,1.0637133455009513,0.2064995738155732,-82.28083930744859,-36.98231565113746,-74.98046556449063
1760516710.4272678,-13.311416990922208,-0.21751012545744547,1.0654233161668338,0.22452209235344645,-86.35104790920205,-35.29848666731987,-76.55640319030454
1760516710.4373147,-14.08119628985803,-0.2522689119437632,1.066850541331547,0.23964264625890574,-88.74824376374568,-32.0120983495574,-77.20620785897013
1760516710.4472606,-14.851862738576713,-0.2918288044022518,1.066098866944777,0.25194072061860867,-89.2798756492118,-27.033455016709997,-76.88595242860504
1760516710.4573607,-15.615340625612452,-0.33253543424883825,1.0609355638129634,0.26133472990011586,-87.92139009143688,-20.490485046624485,-75.60954128388512
1760516710.467261,-16.363786553236224,-0.3707481150000082,1.0491680646200499,0.2675069100966014,-84.81828732393595,-12.735708748174964,-73.44318952108462
1760516710.4772668,-17.09018832434658,-0.403512613880837,1.0291170372033984,0.26997251644607073,-80.26456087303707,-4.315714105456937,-70.49518482587621
1760516710.4876037,-17.788938789186332,-0.4290730624134782,1.0000727001952723,0.26827591847321985,-74.66007009647352,4.093816103024882,-66.9028871471854
1760516710.497491,-18.456282186293528,-0.44709196829670583,0.9625961136721682,0.2622383184738147,-68.45346490955923,11.777002927679938,-62.81888280466215
1760516710.5072703,-19.090536506452544,-0.45853192602881837,0.9185620828747106,0.2521556536588742,-62.08040248777023,18.074759895758387,-58.397862579595305
1760516710.5172772,-19.692024216414502,-0.4652594409449844,0.87092366853254,0.23886810341607465,-55.907889670517875,22.472600466532406,-53.78531824279654
1760516710.527292,-20.26269177791061,-0.4695026660408332,0.823262478735678,0.22367986130140616,-50.19407902806367,24.66489576036493,-49.108732934321864
1760516710.5372918,-20.80545561534922,-0.4733038173290424,0.77923352957322,0.20816533094117126,-45.06922591951752,24.587249560437442,-44.47165487706882
1760516710.5472953,-21.323366312352807,-0.4780746830615319,0.7420147833235395,0.19392770702808473,-40.539006761689706,22.415505494723305,-39.95083220600233
1760516710.5575714,-21.818722885353893,-0.48432037250385124,0.7138532005682756,0.18237306197460648,-36.50719415006812,18.535422489784164,-35.59636814163865
1760516710.5672946,-22.292287378577306,-0.491556557874672,0.6957786981365621,0.1745416361908362,-32.81159667072204,13.490282279501203,-31.434610957968335
1760516710.57746,-22.74274446293704,-0.4984150844917422,0.6875286942878146,0.17101514206733767,-29.265697475958877,7.914842373701802,-27.47323115608596
1760516710.5873883,-23.16652139719897,-0.502912240701757,0.6876822245003146,0.17190347326510763,-25.698664107125747,2.463897641778662,-23.707676832550153
1760516710.5972886,-23.558029552455743,-0.5028358996137536,0.6939591278180124,0.17690438482136522,-21.987917989124153,-2.2569713817147377,-20.12798422291607
1760516710.6073163,-23.910312760691607,-0.49618936641735795,0.7036178424096757,0.1854183087439924,-18.080482478215192,-5.751663899255701,-16.724814925804644
1760516710.6173744,-24.21600549712485,-0.4816184573659603,0.7138863171578862,0.19668709038474055,-14.001252002816242,-7.678915329648403,-13.49364907851888
1760516710.627318,-24.468438959106532,-0.4587498204328518,0.7223681856288217,0.20992037897458987,-9.847967169023699,-7.878130290626158,-10.43633751646708
1760516710.6373115,-24.662703370639075,-0.42838144080632573,0.7273703517471802,0.22438379381059076,-5.774197052344339,-6.3731031966337515,-7.559728931951562
1760516710.6473145,-24.796485552493927,-0.3924899699732832,0.7281057169143431,0.23944028665523553,-1.9631319438447157,-3.353719822105331,-4.871766384250697
1760516710.6573126,-24.870546929318976,-0.3540529971229023,0.7247454326615737,0.25454672646535126,1.403682573417001,0.8612896907196791,-2.3761249555736987
1760516710.6673348,-24.88877647087636,-0.31671768263845584,0.7183232755036401,0.26921105515554344,4.177722237075574,5.874678962093667,-0.06697838881573429
1760516710.677369,-24.85782919667896,-0.2843675368597459,0.7105170213001759,0.28292128894129986,6.26998391768631,11.266149380780318,2.0742860930935367
1760516710.6874225,-24.786428525288663,-0.2606453102844602,0.7033432513005075,0.29507010941808387,7.668379153078336,16.644223737962164,4.078786911893396
1760516710.697297,-24.68445893880297,-0.24849046023381802,0.6988082604306857,0.3049095218160648,8.443135650869255,21.686737246153427,5.985457364199144
1760516710.7072892,-24.561997072414943,-0.24974933186792586,0.6985646137953476,0.311565754520286,8.739031492234805,26.16476523133795,7.832401000664451
1760516710.717292,-24.428421708497897,-0.2649112288485463,0.7036289469546742,0.3141204653407922,8.755317199403946,29.948436192003594,9.646208519503977
1760516710.7272902,-24.29171009151113,-0.2930082401752764,0.7142124552564441,0.31173442573809207,8.716482794396333,32.996634532765185,11.43219505335207
1760516710.7373264,-24.157979867067134,-0.3316920058758965,0.729694113244857,0.3037764863631517,8.839175436520861,35.33512438583617,13.168683626938229
1760516710.7473025,-24.03128617721588,-0.37747502799015675,0.748734424999005,0.2899292443917249,9.301733617251138,37.028799187008865,14.807660096340577
1760516710.757299,-23.913643482364197,-0.4261057315766136,0.7694997828787689,0.27025821175557846,10.222256746854304,38.15381422391285,16.282611023891256
1760516710.767288,-23.805217270295646,-0.4730356311147057,0.7899535147523508,0.2452401271344287,11.648881015485806,38.774640416815664,17.522540207041178
1760516710.7772808,-23.70462162098427,-0.5139285747027879,0.8081675082128253,0.21574943172048114,13.562815494897865,38.929793868151,18.469491279221355
1760516710.7873027,-23.609261276913074,-0.5451532071372003,0.822612362372514,0.18300499602640175,15.891880583654531,38.62827856181672,19.095824804594685
1760516710.7973046,-23.515668169336564,-0.5641931877676717,0.8323906766390454,0.14848226247963905,18.530641622170798,37.85681036665639,19.41733604158347
1760516710.8072722,-23.419799682434324,-0.5699124742228387,0.8373855883444483,0.11379816630349943,21.36290555542801,36.595910285574675,19.49911810479239
1760516710.817279,-23.317286164826996,-0.5626332611000274,0.838305549053013,0.08057936553201492,24.282914623114333,34.84122828475769,19.452631948317297
1760516710.8274043,-23.203633933343053,-0.5440215464319539,0.8366183244273332,0.05032997364544609,27.21242473299212,32.625273960043366,19.42427730486108
1760516710.837569,-23.074402328896827,-0.5168138135102751,0.8343812499164442,0.024320473285900753,30.111621058765415,30.03437822339168,19.57735343123345
1760516710.8473063,-22.92537517750909,-0.4844389521910838,0.8339871322532767,0.0035193243952605117,32.98247131321271,27.216374474845605,20.070306355925464
1760516710.8573236,-22.752737198229102,-0.4505901153966714,0.8378542009382538,-0.011420236519772023,35.86381874090567,24.376102790192995,21.03451744420624
1760516710.8673694,-22.55324902715389,-0.4187941945916259,0.8480954004217429,-0.020121176199632246,38.81842013226902,21.758070943208427,22.554719401588162
1760516710.8773077,-22.324399958565408,-0.3920214719043983,0.8662073578384912,-0.022410319202389905,41.913253640244925,19.617991467817504,24.65457180245088
1760516710.8873026,-22.064513574843716,-0.3723746396993975,0.8928204475205819,-0.01824294408384072,45.195653119860474,18.18704210256175,27.28911273590601
1760516710.8973434,-21.77278982620027,-0.3608902844738312,0.9275461836074025,-0.007658839344051579,48.66898755935387,17.634264696928913,30.344874410881193
1760516710.907287,-21.449282789558744,-0.35747316913251354,0.9689465992046742,0.009200236440194394,52.272425311123264,18.033323298252856,33.64756834066929
1760516710.9173064,-21.09482873143471,-0.36096387399475166,1.0146348814702755,0.03199670357453923,55.86944685449412,19.3397765888366,36.9765226385133
1760516710.9272995,-20.710948530515655,-0.36931904035556173,1.0615008214055326,0.06003666532036802,59.24888278671519,21.38403286830376,40.08452345578631
1760516710.9375064,-20.299750748911496,-0.37987049470010237,1.1060402022992248,0.09208112383380934,62.14030143969223,23.88321716274006,42.721334912088125
1760516710.9472845,-19.863859938645813,-0.3896322471917712,1.144752296226994,0.12618972223060118,64.24288250667726,26.47230040408328,44.65885603828712
1760516710.957298,-19.40639350620892,-0.3956386820443177,1.1745526510692,0.1596661505275834,65.26411146955672,28.75119993939681,45.71552761068889
1760516710.9672923,-18.931009826375156,-0.3953072281235287,1.193135401844696,0.1891647035343571,64.9624009318479,30.340773538251526,45.77724513984648
1760516710.9772744,-18.442043979002197,-0.3868095672386504,1.1992226453884718,0.21098667648042357,63.1866546591693,30.937889846991173,44.81190083220526
1760516710.9873464,-17.94472676243086,-0.3694081881979002,1.192662627146589,0.22154411307306146,59.90615018536125,30.35936154286015,42.87511882616251
1760516710.997351,-17.445444022716096,-0.34368716579260666,1.1743733883376333,0.2179116905777674,55.22581643884424,28.566888065584806,40.105921945373865
1760516711.0073404,-16.95194325812612,-0.3115968651582581,1.1461595632715975,0.1983523166983732,49.384451753332776,25.669334369281838,36.712750637701944
1760516711.0174341,-16.473348605329306,-0.27625177411167073,1.1104504142002956,0.16270777406379025,42.73593537169276,21.90305868360507,32.95198511054526
1760516711.0274067,-16.01982561518655,-0.24146883552432863,1.0700156854080813,0.11258514793738876,35.71559571285608,17.594485242741282,29.102435091568108
1760516711.0373058,-15.601768221363695,-0.2111026120342429,1.027709658035562,0.05131323917906635,28.79562535082996,13.11153713333926,25.43977182764544
1760516711.047295,-15.228480835033094,-0.18830553686243254,0.9862719671780503,-0.016331516193775576,22.434942721306935,8.812062366596749,22.2143385201672
1760516711.0573049,-14.906494420363389,-0.17488879872970803,0.9481850263204372,-0.0846149517388365,17.03005519065917,4.997765673857225,19.634288565095815
1760516711.0673776,-14.637841565190195,-0.17095418772390467,0.9155675493903095,-0.14750927683745826,12.873757916836153,1.8809606007917696,17.85417439491694
1760516711.0772917,-14.418740039531597,-0.17489908788554986,0.8900812824558006,-0.19944865356021257,10.127468934083177,-0.4312554047160819,16.96782482823247
1760516711.0873134,-14.239118927180739,-0.18378733764503336,0.8728408817969051,-0.23605895514289496,8.810733306963938,-1.9343245497689703,17.004162946460323
1760516711.0973418,-14.083245971498147,-0.19397432704207793,0.8643344134442167,-0.2547359089642589,8.808488376145025,-2.707438834079503,17.92537239761794
1760516711.1073139,-13.931438822092684,-0.20181785417114906,0.8643745467210411,-0.2549674816313036,9.893807337655472,-2.883762308802109,19.627852901796157
1760516711.1174595,-13.762572243872917,-0.20431080389532102,0.8721033791819127,-0.23834191898540463,11.761676606778614,-2.6163772179003315,21.94706245223667
1760516711.1276412,-13.556920698336132,-0.19952279975363033,0.8860667170365035,-0.2082426968357677,14.068274337503123,-2.046887483060643,24.667321066365652
1760516711.1373358,-13.298841089101371,-0.18680817804983105,0.9043595674941229,-0.16929338601584248,16.470220329799524,-1.2824764133876214,27.53700378119475
1760516711.147299,-12.978887907135203,-0.166800807733277,0.924828310919242,-0.12666346934046463,18.659123971872763,-0.38499232351128243,30.288524122284127
1760516711.1573677,-12.59510988451835,-0.14125378178736794,0.9453013462311757,-0.08536630967700383,20.38811180358834,0.6271394751589924,32.661405998971794
1760516711.1673286,-12.153441506588146,-0.11278676279386793,0.9638129778269277,-0.04966780249355778,21.4885293631482,1.766054607587534,34.425884571171
1760516711.1773036,-11.667227307960658,-0.08458263381587887,0.9787874211884738,-0.022685544007099025,21.876441294880294,3.0545461941059524,35.404140931845824
1760516711.187356,-11.155983671480708,-0.06004548575838916,0.9891605574202523,-0.0062075283082165195,21.549748347308817,4.504123774106792,35.48655252290018
1760516711.1973953,-10.64352424061951,-0.04241413854761883,0.994432166406137,-0.0007119526834180217,20.57760492666759,6.096130250174398,34.64109287822832
1760516711.2075715,-10.155583587840955,-0.03433308326974631,0.994654477960358,-0.005537849513383427,19.084323246135142,7.770189488635764,32.91498921634791
1760516711.2173245,-9.71710206602557,-0.03741477428373507,0.9903693840975699,-0.01914405858550626,17.23012565930865,9.422720848334784,30.428716545851348
1760516711.2274323,-9.349397061117143,-0.05186839207272056,0.9825066681550335,-0.0393986835891846,15.191033940196188,10.916298133434704,27.363226643066113
1760516711.2373288,-9.067531529311795,-0.0763001475597475,0.9722540563120162,-0.06385858412404888,13.139950345885735,12.09856010553198,23.94191964028625
1760516711.247389,-8.878263427797876,-0.10778642139688502,0.9609121415025992,-0.09002232488435628,11.230646177294396,12.827453096385815,20.40926777444801
1760516711.2573657,-8.778961807331148,-0.14226398784742494,0.949752078082374,-0.11555758249703255,9.585920500696838,12.998043742882121,17.00822541905255
1760516711.267303,-8.757759053182998,-0.17518012518029727,0.9398936769845673,-0.13850352440092242,8.290595290495963,12.565335982222296,13.958628550550097
1760516711.27744,-8.794984822665958,-0.20225134177772694,0.9322130617235233,-0.15743336798140675,7.389326600474491,11.557896238454612,11.438683030627324
1760516711.2873783,-8.865670746362978,-0.22014785301046014,0.9272802968041204,-0.17155001710781492,6.888593310689189,10.078826851223416,9.57131933771433
1760516711.2974124,-8.942711241483018,-0.22695932177333944,0.9253266499556396,-0.18069336800455318,6.761837380486792,8.293374714557487,8.41664213546942
1760516711.307531,-9.000162897755354,-0.22237162566423482,0.9262454215298846,-0.18525990018625008,6.9566264664168616,6.405407660277468,7.970991570991657
1760516711.3173146,-9.016171998957041,-0.207558770377366,0.9296303418058839,-0.18605866614611946,7.402825112763394,4.627283154216616,8.172369223095238
1760516711.3273141,-8.975121105887133,-0.18484914636847322,0.9348484265788539,-0.18413924633066697,8.020974733555398,3.1487459795243407,8.911274355806773
1760516711.337319,-8.868749391456078,-0.15725516177574395,0.9411355100083484,-0.18062449783851942,8.730288086452818,2.1103281524886803,10.045430407073006
1760516711.3473244,-8.696188994458307,-0.12796238727095485,0.9476986286176826,-0.17657056227268908,9.45579766239853,1.5855161572154852,11.416515125536023
1760516711.3573089,-8.463034424814001,-0.09986435799048551,0.9538108699630259,-0.17286544753922342,10.134252751608926,1.5740850826570514,12.866885744856159
1760516711.3674233,-8.179695216538626,-0.07520762140379417,0.9588883027336336,-0.17016892898214134,10.718383617718267,2.0068964075231044,14.254440071056353
1760516711.377489,-7.859357787160535,-0.05538428300086709,0.9625423986841689,-0.16889129943476863,11.179212589063528,2.7605158963292267,15.464148768158067
1760516711.387312,-7.515898641875669,-0.04088159172103009,0.9646042139685903,-0.16920566881283647,11.50623906408776,3.6785690001507576,16.41534717044245
1760516711.3973517,-7.162054102675558,-0.03137346918787007,0.9651194438162664,-0.17108627653746164,11.705556365397374,4.596015314896742,17.06447854337063
1760516711.4073539,-6.808072753608414,-0.02591928574460471,0.9643171147743042,-0.17436290957479653,11.79622282273764,5.3625084072674944,17.403541112251123
1760516711.4173632,-6.460971450449893,-0.023222609265020767,0.9625585804514588,-0.17878022450789935,11.805440312252843,5.861591349645486,17.454945547918612
1760516711.427315,-6.124404444934582,-0.021899334574933992,0.9602763173086583,-0.18405214160338162,11.763241447870946,6.023479609921458,17.263807401678914
1760516711.4373276,-5.799059809972473,-0.020711494937892445,0.9579128582975419,-0.18990544771432352,11.69742916676241,5.830391105987339,16.888867764733142
1760516711.4476435,-5.483434794516384,-0.018737968050104248,0.9558687872452823,-0.19611148043633078,11.629443280953442,5.314577374961418,16.393250315674656
1760516711.4572928,-5.17481780145681,-0.015470941919671263,0.9544653463940587,-0.2025080806635297,11.57165407542029,4.5501978558695075,15.83613535946426
1760516711.4673076,-4.870312944375851,-0.010841573757234246,0.9539230406921535,-0.20901463462945508,11.526330440423619,3.6408326014524355,15.266196737088665
1760516711.4773836,-4.5677701281399266,-0.005186529727891919,0.9543544017855558,-0.21564122857635634,11.486251084234507,2.704701611167265,14.717352837992506
1760516711.4873145,-4.266517008438641,0.0008303562390572099,0.9557677560643709,-0.22249023478563734,11.436684406902936,1.8595931522960831,14.207068337838972
1760516711.4972908,-3.967822283888719,0.006327651358429008,0.9580788305507656,-0.2297467908015599,11.358300705434957,1.2092004389412523,13.737132546370349
1760516711.5072913,-3.6750495312756013,0.010335412368216447,0.9611274040112098,-0.237654563831714,11.230507596414304,0.8321433951137143,13.296549276568802
1760516711.517296,-3.393486187134883,0.011934269851377681,0.9646969167201322,-0.2464748648743294,11.034695916470787,0.7745128252477691,12.865927016956022
1760516711.5274498,-3.129856934858856,0.010395121230034709,0.968536048747391,-0.25643020753451834,10.756930904757818,1.0463806671683558,12.42259604895613
1760516711.5375047,-2.8915624702728664,0.005306200403142847,0.9723818675144582,-0.2676377894529285,10.389723941719554,1.62237576435552,11.945636701315221
1760516711.5473256,-2.6857270560904274,-0.003331601832493335,0.9759831008915255,-0.28004411683521285,9.932679964819492,2.4460918890600247,11.420089186907553
1760516711.5573375,-2.5181838021072,-0.015062921057251504,0.9791198779112382,-0.29337726394819663,9.392017937369918,3.4377396349624467,10.839807249156662
1760516711.5673413,-2.392558069714215,-0.02900602344218722,0.9816154456622715,-0.3071338452271636,8.779160983683505,4.5040854372048065,10.208672969624264
1760516711.577316,-2.3096093002197087,-0.04395343895791973,0.9833380021581392,-0.3206108442240681,8.10873964301653,5.549406600131235,9.540160834708013
1760516711.587339,-2.2669536184825936,-0.05853057254112925,0.9841955677776861,-0.33298062247174803,7.396419472382377,6.4860305702579595,8.855480720375045
1760516711.597427,-2.259223701399585,-0.07138483783615565,0.9841301782295467,-0.3433966567147997,6.656953203448822,7.243092745131095,8.180708389078438
1760516711.607538,-2.278647358442387,-0.08137315060974668,0.983117341463285,-0.35111136995162445,5.902781571532276,7.772449090851925,7.543408589072085
1760516711.6173298,-2.3159584189795397,-0.08771780787942188,0.9811729708009705,-0.35558554958211797,5.143385225371555,8.051171613135004,6.969262346992787
1760516711.627342,-2.3615032066461397,-0.09010727494207542,0.9783648840845914,-0.35657014514385693,4.385449589368207,8.080649573250678,6.479137287093725
1760516711.6373127,-2.4063788807910305,-0.08872768305151364,0.9748220329904228,-0.35414563078400907,3.633770125861052,7.882899273162787,6.086918961512367
1760516711.6473927,-2.44343809680341,-0.08422160880809121,0.9707339559517276,-0.3487116494013306,2.8927033653150853,7.495122853643793,5.7982888847653005
1760516711.6573217,-2.4680176882677904,-0.07758210550297408,0.966335936176966,-0.3409291310068351,2.1678537054889677,6.963747334362103,5.610514003433853
1760516711.6673625,-2.478297523981655,-0.07000168674696038,0.9618804781120224,-0.3316262071881885,1.4675908756705665,6.339072771334017,5.5132062484427475
1760516711.6773305,-2.475264607634929,-0.06270546892393168,0.9576008484120974,-0.32168573807343126,0.8039633505519965,5.671298830841072,5.489914335810562
1760516711.6876037,-2.4623304089996187,-0.05679976080369222,0.953676172654503,-0.31193465072186805,0.1926557196323993,5.008188913016248,5.52032167751092
1760516711.6973276,-2.444704023273038,-0.05315972574865857,0.9502087421700238,-0.3030531938442804,-0.34816114204935894,4.394108640568759,5.582751447377925
1760516711.7073817,-2.428646395505227,-0.05236627149669579,0.947221236358583,-0.29551642842744896,-0.7999701183183152,3.869774149150745,5.656637907942997
1760516711.7174323,-2.420722093083344,-0.054689189431892236,0.9446747280626201,-0.28957254628776363,-1.1466735446355696,3.4718630555412164,5.724629666420664
1760516711.7273896,-2.4271336687520013,-0.06010424563207421,0.9425012042933955,-0.2852551585074957,-1.37747430612096,3.2317165288804044,5.774052805272699
1760516711.737388,-2.453180568703902,-0.06832737756216033,0.9406411375624557,-0.28242138417313667,-1.489350787687152,3.1726715098797955,5.797567821101719
1760516711.7473383,-2.5028430735974463,-0.07885013007753884,0.9390780546031187,-0.280805135248116,-1.4887029785426547,3.3060386613233375,5.792978861788099
1760516711.7574084,-2.578465979889184,-0.0909671212881624,0.9378650367411537,-0.280075028549644,-1.3919037166480213,3.6262842800082207,5.762272269951005
1760516711.7673287,-2.680514279543248,-0.1037960570687398,0.9371396764543775,-0.2798879811737564,-1.2246556397742783,4.1064596333726735,5.710057847090184
1760516711.7773502,-2.8073900918818158,-0.11629902994426657,0.9371239077545489,-0.2799320376632818,-1.0202030452693343,4.695219728664772,5.6416541823656905
1760516711.7873342,-2.955324591733804,-0.1273172155229009,0.9381049764703493,-0.27995503835603236,-0.816571604202339,5.316787333622718,5.561100288450085
1760516711.7974246,-3.118377660704313,-0.13562892968151988,0.9403953773308722,-0.27977932292763097,-0.6531143011627949,5.87490972620138,5.469393476678358
1760516711.807374,-3.2885829178206034,-0.14003477138628903,0.9442734656401699,-0.27930619461807366,-0.5667368890452796,6.261252124867771,5.363247079314057
1760516711.8173592,-3.456266772555886,-0.13946638892844349,0.9499116357679648,-0.2785158910055399,-0.5882540364669068,6.367858383323328,5.234623600091831
1760516711.8275578,-3.610556081783953,-0.13311072905656926,0.9573035388587526,-0.2774681494121661,-0.7393591574011676,6.102421898209189,5.071220346505199
1760516711.837415,-3.7400794896900873,-0.12054027305591572,0.9662045429426601,-0.27630536455620724,-1.0306408671100353,5.404309287673905,4.857965346303528
1760516711.847346,-3.833860442857263,-0.10183809509379997,0.9761006101291163,-0.2752558930159362,-1.4609363682590089,4.25872236862096,4.579432442491202
1760516711.8573601,-3.882376654461255,-0.07769904110064674,0.9862204026965723,-0.27463048287199804,-2.018104767508076,2.706207468747823,4.222918416556675
1760516711.8674092,-3.878701587428577,-0.04947467307869035,0.9956028001725125,-0.2748017292413642,-2.6810797305384866,0.8450345574735475,3.7817484404210737
1760516711.877327,-3.8195569772627116,-0.019120832800940516,1.0032241244986309,-0.2761566005659853,-3.4228634558301603,-1.175174833724168,3.258204029125549
1760516711.8874469,-3.706040995095106,0.010980991044591073,1.008173288701088,-0.27901659524933675,-4.213981489491512,-3.168832692705198,2.665347550631061
1760516711.897345,-3.543812260225797,0.03831952225950531,1.0098409962692338,-0.28352970506722147,-5.025860432631291,-4.937353761608098,2.02702993357504
1760516711.9076743,-3.3426202534775,0.0606114890934258,1.0080716599183064,-0.2895522346565341,-5.83365940807018,-6.296588438736816,1.3755892436222668
1760516711.9173648,-3.115234546653561,0.07613738381587055,1.0032277268517886,-0.29655180656274177,-6.618301061409265,-7.104349377928694,0.7471922933787394
1760516711.9273324,-2.875971601222693,0.0839754301117345,0.9961407824758771,-0.30356818363585053,-7.367751531790429,-7.283260304059586,0.17535673147179634
1760516711.937338,-2.639099754024961,0.08408673150990009,0.9879622649862804,-0.3092614289694623,-8.077856557855103,-6.834798420011728,-0.31624907087245635
1760516711.9473271,-2.4174068454407185,0.0772477677136146,0.9799598847493624,-0.31205857814822396,-8.753118642287923,-5.8419740463644985,-0.7202771480394543
1760516711.9573524,-2.221155593445549,0.06486138044270406,0.9733179135331588,-0.3103849190258662,-9.407647536923434,-4.460189264796118,-1.049961116818253
1760516711.9675,-2.057553849794211,0.0486964487329528,0.9689866534709538,-0.3029399225312312,-10.06618756434242,-2.8979088628610676,-1.3400064154702755
1760516711.9773505,-1.930751587512891,0.030612449953244438,0.9675991316301742,-0.288958745976017,-10.764750003878438,-1.3903909176320675,-1.6435647322990605
1760516711.9873574,-1.842265636774706,0.012320864561396912,0.9694483506409483,-0.2683969536798212,-11.550117965698707,-0.17056076614017016,-2.025547945675295
1760516711.9973404,-1.7916554606749036,-0.004780363633869995,0.9745066403593868,-0.2419921258989375,-12.47748254761788,0.5588966349649072,-2.553366104646555
1760516712.0073256,-1.7772534027771023,-0.019688463030979847,0.9824683225080507,-0.21118511488046196,-13.605767994639768,0.6488195558962123,-3.286847654703037
1760516712.017341,-1.796792589446617,-0.03180818268578687,0.9928014831654544,-0.17791508322618196,-14.990759231374058,0.019827999904940507,-4.269435472725897
1760516712.0273528,-1.8478510869011788,-0.04092444754541418,1.0047999193369808,-0.14432853509549573,-16.676822997596357,-1.3297682184524098,-5.522631729308384
1760516712.0373454,-1.9281101163285752,-0.04716635337929423,1.0176302062096385,-0.11245990519362158,-18.688633435965475,-3.324758155045918,-7.045089405596901
1760516712.0474262,-2.035485513017589,-0.05098596988264552,1.03036998904026,-0.08394730637331302,-21.024685339584742,-5.822081896922063,-8.816832466010705
1760516712.0575936,-2.1682263444390286,-0.053163806067599885,1.0420334386490433,-0.05983886952909375,-23.654350584416807,-8.62719827086935,-10.80801578145067
1760516712.0673673,-2.3250782206202842,-0.054837782505938265,1.0515824630329045,-0.04052228041275276,-26.519737012301906,-11.516516139865182,-12.990629968970694
1760516712.0774822,-2.5055777783899362,-0.057533891598019485,1.0579302491185736,-0.02577850570006649,-29.542693915960008,-14.264319563020932,-15.350821948971921
1760516712.08757,-2.7104831928957704,-0.06315908014911557,1.059954302530198,-0.014931865924748381,-32.63615927186554,-16.67200112800035,-17.899180585476426
1760516712.0974329,-2.942270381921709,-0.07390881974254129,1.0565424293162067,-0.007052051578280639,-35.71796342666575,-18.596399604711863,-20.67648962236142
1760516712.1073508,-3.2055604367420965,-0.09205011852641831,1.0466907919998483,-0.001160599173020631,-38.72450521945382,-19.972857276358685,-23.753057110262727
1760516712.1174688,-3.5073132781531933,-0.11956834567547676,1.0296578019609357,0.0035989122750964726,-41.62156877964076,-20.827828234702125,-27.220687247968005
1760516712.1273482,-3.8566389821899074,-0.15771191775924126,1.0051570825413159,0.007853826763865335,-44.4099330653637,-21.276212290905896,-31.17753451366262
1760516712.1373632,-4.264141476168692,-0.20652294503912058,0.9735545893507976,0.01196741268995374,-47.12422406639567,-21.500672235406554,-35.70737325056245
1760516712.1474614,-4.740804870250924,-0.2644827567268557,0.9360239054268238,0.016068378419759475,-49.82454472125892,-21.714069166907002,-40.85609526821887
1760516712.1576777,-5.296536271643316,-0.32840332483298207,0.8946115277395545,0.02012688643302572,-52.581671060073944,-22.11098154947524,-46.60923882925265
1760516712.1673372,-5.938565505611317,-0.3936497353032402,0.8521707329402671,0.024052992882711045,-55.45788010401707,-22.818427022398918,-52.874736467689644
1760516712.177348,-6.669954691101718,-0.454701567713314,0.8121369641277983,0.02778966847031178,-58.48656531194413,-23.857618035132447,-59.474714681978064
1760516712.187358,-7.488481266409707,-0.5059773580217272,0.7781397946625651,0.03137463262915327,-61.65444816489654,-25.126892355059343,-66.14919387719289
1760516712.197353,-8.386122955636807,-0.542770755114285,0.7534819209120788,0.034957562765949,-64.8902065138731,-26.411253367049834,-72.57310771299346
1760516712.2074106,-9.349290005710813,-0.5620927529243364,0.7405682713880258,0.03877730122733709,-68.06260391546911,-27.41767473265861,-78.38627009270127
1760516712.2176132,-10.359823737792912,-0.5632099986980532,0.7404226368686596,0.043115340619383775,-70.9897004887388,-27.829197118447723,-83.23368941586047
1760516712.2273657,-11.39663269030014,-0.547739568482793,0.7524440132343926,0.04824047591298199,-73.45857129416703,-27.36634519672702,-86.81097817945685
1760516712.237344,-12.437708389717695,-0.5192878113663956,0.7744945143940629,0.05435197634631673,-75.25252024844245,-25.842615196314572,-88.90713086474389
1760516712.2473495,-13.462193586050626,-0.4827465752253323,0.8032934985467053,0.0615269385834644,-76.18073430906858,-23.20231481646881,-89.43588015091927
1760516712.2573557,-14.4521843721436,-0.443432281170112,0.8349887962391355,0.06968430474096454,-76.10451687383517,-19.533605016054498,-88.44829066443486
1760516712.26736,-15.394021001519903,-0.40625777128466284,0.8657434878453361,0.078583817982362,-74.95520404913046,-15.055831718107962,-86.12327229310038
1760516712.2773561,-16.278932858052528,-0.37508221519899715,0.8922136669236738,0.08787181428385459,-72.74126833274778,-10.086043017011391,-82.73806823814431
1760516712.287787,-17.10302393422327,-0.35232049005556043,0.9118584370934373,0.09716683128431489,-69.54482494301676,-4.993124553964734,-78.62550984586213
1760516712.2976263,-17.86669248733382,-0.3388320607640161,0.9230817525357897,0.10615819534275898,-65.50971072741348,-0.14867717937857597,-74.12721755855553
1760516712.3073595,-18.573652940149458,-0.3340592775220963,0.9252397613168519,0.11468292901295485,-60.82417450617126,4.117644174627958,-69.55145474261604
1760516712.3174276,-19.229760630939857,-0.33635028234129194,0.9185554164799625,0.12275442412965656,-55.70124083787384,7.552922596906482,-65.14180557416977
1760516712.3273797,-19.84183461690698,-0.3433868693231155,0.9039740114199039,0.1305347093039765,-50.359318338876825,10.002870805099985,-61.05964887443976
1760516712.3373573,-20.416641886868284,-0.35264237012765143,0.8829829974764974,0.138261389850503,-45.004882476731126,11.4198681398238,-57.38066416515854
1760516712.3473666,-20.960158675085797,-0.3618088722439153,0.8574142754087988,0.1461531254108043,-39.81831272547411,11.857870604892984,-54.10370060131238
1760516712.3573887,-21.47716672456812,-0.36914422660228563,0.8292452942448978,0.15432127080806968,-34.943394021013006,11.456195731873654,-51.16902559763698
1760516712.36737,-21.97117842116446,-0.3736950929164028,0.8004132576065847,0.162711272868129,-30.48065700887516,10.415051984734694,-48.48199804820447
1760516712.3773527,-22.444623445652205,-0.3753621381851019,0.7726542448908336,0.171088281050109,-26.484546742156557,8.966188335958284,-45.93768997979031
1760516712.3873546,-22.899184815128553,-0.3747968984648253,0.7473770532243723,0.17906973920907376,-22.96425264624013,7.342273535111356,-43.44218404635771
1760516712.3973536,-23.336156094845432,-0.3731553550895137,0.7255799373553531,0.18619557455715433,-19.887844845561954,5.748618229152198,-40.927280239620146
1760516712.4073544,-23.75670795536795,-0.3717684824432758,0.7078162484622684,0.19201665268905807,-17.189156352157557,4.3405651912735115,-38.35695800240766
1760516712.4173775,-24.161995589700677,-0.37181008330453064,0.6942111239112891,0.19617791696213202,-14.77666705202477,3.2092006960900528,-35.72580905956832
1760516712.4273596,-24.55309670503157,-0.37403938133425285,0.6845250582233411,0.19847600948613767,-12.543523490293412,2.37695808254463,-33.051350596652746
1760516712.4374602,-24.930827031206835,-0.3786719671100644,0.6782523805652123,0.19888060048654635,-10.37779804354173,1.803290831139621,-30.363218064990217
1760516712.4476073,-25.295520043881556,-0.3853961994267134,0.6747366833143089,0.19752022215732296,-8.172167593413109,1.399127703065472,-27.692455076060813
1760516712.4573493,-25.64686763006681,-0.3935145840633951,0.6732842038300411,0.19464289080812783,-5.832367428238832,1.0476013748910717,-25.063473873611755
1760516712.4673412,-25.98389648860802,-0.4021624519965845,0.6732600588089395,0.19056611952611002,-3.2840148834437612,0.6277969225905754,-22.490034794184915
1760516712.4773936,-26.30511137955627,-0.41054651003007997,0.6741585979940902,0.18562950357365937,-0.4776487149339649,0.038053523397810464,-19.975249725449906
1760516712.4874144,-26.60878828902957,-0.41815289841394415,0.6756456572425602,0.1801579493507001,2.6079601623519966,-0.7844043810853419,-17.514605317480136
1760516712.4974258,-26.8933622520561,-0.42489056640520934,0.6775754036381317,0.1744378095360751,5.9640554959935095,-1.8501627506829215,-15.100551331329537
1760516712.5073435,-27.157831524871913,-0.43115212019487065,0.6799861479221637,0.1687038578914569,9.551531794343367,-3.1125336515249975,-12.727250129441135
1760516712.5173573,-27.4020933578096,-0.43778731833833656,0.6830780421426329,0.16313299036745593,13.301888218595318,-4.471679022894884,-10.394433356382674
1760516712.527433,-27.62713839641251,-0.4459956844493301,0.6871734693788135,0.15784078196775067,17.119560325911777,-5.787842137822047,-8.10976765899418
1760516712.537352,-27.835059015659105,-0.4571546013927018,0.6926603047355553,0.1528790930019438,20.885780006549236,-6.902295147434133,-5.889532643727188
1760516712.547408,-28.02886275430976,-0.47260533837082164,0.6999191444969755,0.148235621452563,24.464092473137857,-7.663249814420027,-3.7576309254887166
1760516712.5573502,-28.2121149606187,-0.49342179883011333,0.7092379247966208,0.143838324529406,27.707528173545544,-7.952817422673579,-1.7429717066260844
1760516712.5673647,-28.388460206775218,-0.5201886577778871,0.7207219117069233,0.13956806755015047,30.467310292201443,-7.710439807304378,0.12474595127382446
1760516712.5773747,-28.561088761412908,-0.5528172518791253,0.7342136277813112,0.13528070493126423,32.603008221118785,-6.9483022774888425,1.8206936095758166
1760516712.5877454,-28.732218420814196,-0.5904251099851594,0.7492429013107436,0.1308348173659098,33.99416955323511,-5.755248479376423,3.3315590061489084
1760516712.597355,-28.902649976721904,-0.6312974947583448,0.7650279716234165,0.12611592961742987,34.55342744459721,-4.287602621892193,4.6623654675765485
1760516712.6073444,-29.071431888233803,-0.6729415419587178,0.7805428783689564,0.12104664006156557,34.24067739107156,-2.747701105572021,5.842375458225585
1760516712.6173584,-29.23564885844278,-0.7122384738382443,0.7946551085657463,0.11557793938787672,33.07717248877334,-1.3532657334567686,6.928843329167263
1760516712.6273944,-29.390340206649288,-0.7456934171901889,0.8063223346153745,0.10966875510572623,31.15751086160056,-0.3025032314210706,8.007415036559093
1760516712.6373575,-29.528558295621178,-0.7697706572315922,0.8148210859532824,0.10327166763273163,28.65676147424653,0.25928384178185887,9.188254618478396
1760516712.6473505,-29.641586488821062,-0.7812848946852927,0.8199682508609916,0.09634481003001445,25.829702966108165,0.26582931502683615,10.59756852813001
1760516712.6574993,-29.719337011896798,-0.7778024632861442,0.8222921158664219,0.08890047272762648,22.999595583142572,-0.2559999304832862,12.365060598016452
1760516712.667515,-29.750931957735062,-0.7579982268956837,0.8231126797825015,0.0810845611797702,20.53511639729912,-1.1871531740043113,14.608775153101034
1760516712.677672,-29.725437757448695,-0.7219168171061628,0.8244971845920988,0.07326619430801656,18.815845415334618,-2.3330867310920516,17.41943904949846
1760516712.687354,-29.63269002361163,-0.6710969876745798,0.8290643348649573,0.06611000301143549,18.188672018884667,-3.454357696654535,20.84650421448972
1760516712.6974103,-29.464128372789688,-0.6085296536178395,0.8396261696138769,0.060606111939991485,18.919434959217735,-4.306859805434261,24.88756334426111
1760516712.707357,-29.21356342576046,-0.5384318006882254,0.8586891972330155,0.05804013892160698,21.145791840108213,-4.685453150501692,29.48192177579417
1760516712.7174091,-28.8778119133547,-0.4658326161238761,0.8878823585857422,0.05989281826011887,24.83843676021364,-4.463519542119937,34.50832843590384
1760516712.727379,-28.45715143652753,-0.39599295101221266,0.9274207639928634,0.06766428088192564,29.77797445395071,-3.620897719527649,39.78659654705318
1760516712.7373688,-27.955560719095025,-0.33372106600267587,0.9757339821749815,0.08262396177802978,35.55373518097454,-2.254016784221374,45.083145625190895
1760516712.7474515,-27.38072424518695,-0.2826959021718076,1.0293773729294204,0.10549899961189145,41.588573982834845,-0.5647801091252851,50.12109533104696
1760516712.757367,-26.743792594869625,-0.24493798323970428,1.0833023287654662,0.13613620654398956,47.19050682035814,1.171664831587323,54.59600403819648
1760516712.7675452,-26.058902824602008,-0.22055813989608788,1.1314904404547284,0.1732021207011332,51.628201005036566,2.656317391088454,58.1982221713628
1760516712.7773476,-25.34247850697154,-0.20786378341505468,1.1678701775967057,0.214010074175437,54.22308717182102,3.6252952192622514,60.641796046083726
1760516712.787386,-24.61234749301822,-0.2038239033340161,1.1873548563900636,0.25456618763339073,54.44659384751348,3.907808012325249,61.697921362043886
1760516712.7973845,-23.886736058542315,-0.20480798579640697,1.186792409058813,0.289895365814152,52.00762479277383,3.4709576178532138,61.228608528836936
1760516712.8073866,-23.18321573198879,-0.20743951983523676,1.1656158823357203,0.3146452480781764,46.91423709079588,2.439977047640722,59.21441459689551
1760516712.8173661,-22.51768524373754,-0.209356525423458,1.1260330452366087,0.32389062469461805,39.49569608179419,1.086297388211974,55.76981539239967
1760516712.8273659,-21.90345929117004,-0.20967061215323776,1.0726920490384717,0.3140008669848571,30.37692535183544,-0.21774112751188227,51.14152079786512
1760516712.8374789,-21.350512563076986,-0.2089842922459119,1.0118888291988248,0.28340515986844494,20.40588603968121,-1.0709383437221778,45.68837602084829
1760516712.8473935,-20.864904797877745,-0.2089583678369917,0.9504990421352089,0.233094819446244,10.543802256816381,-1.1282124620542644,39.84535807177767
1760516712.8574128,-20.44840371122431,-0.21157069163681072,0.8948795173511349,0.16673486803264648,1.7362017407477297,-0.1800847338878948,34.07733854892007
1760516712.8674922,-20.098330859103083,-0.21830955955997225,0.8499722527800853,0.09031926718188152,-5.212742936081344,1.7919411660684887,28.82983099088954
1760516712.8777096,-19.807671326472505,-0.22955612665824648,0.8187687447725596,0.0113923958110522,-9.740664122643462,4.597910316153008,24.483626444082976
1760516712.887387,-19.565495115645355,-0.24433208399289297,0.8021862298939486,-0.06204406512236592,-11.586063048087182,7.8649543797151065,21.318590935703014
1760516712.8973591,-19.35772265733773,-0.2604602016140117,0.7993076239553744,-0.12274111787946898,-10.799043077427974,11.100760676137496,19.489920975507943
1760516712.9074044,-19.168223950128567,-0.2750569296224031,0.8078691237669278,-0.1652948239266118,-7.706788794578693,13.781137561820785,19.018508184725487
1760516712.9173913,-18.980176405417552,-0.28518919067967713,0.8248523611137955,-0.18690596992522251,-2.8449255505337505,15.442868477253906,19.795782484759943
1760516712.9273608,-18.7775385277852,-0.2885034239244887,0.847049539025259,-0.18766662692672792,3.1298246665616647,15.762970779550399,21.60214936958409
1760516712.9374032,-18.546450495859347,-0.283672260300074,0.8715098489585734,-0.17034322247650652,9.530040509056864,14.60979937589917,24.136708773294902
1760516712.9473846,-18.27636976762819,-0.27057992639898304,0.895825379808084,-0.1397373679235254,15.718160781231742,12.058472623427658,27.05448895593881
1760516712.9574094,-17.96079528174279,-0.25024852210329956,0.9182569552996055,-0.10178587349685264,21.168525620454297,8.370837688116815,30.006324849590698
1760516712.9676862,-17.597512816032136,-0.22456737829671983,0.9377280915823355,-0.0625915955873562,25.506565126153408,3.946915658307914,32.676129456444485
1760516712.9775138,-17.18837963692117,-0.19591721902852643,0.9537304810249928,-0.027558503220718674,28.524508167525777,-0.7407485059871272,34.81083982493431
1760516712.9877212,-16.738734566823577,-0.16678263038642652,0.9661883825379511,-0.0007538846126910924,30.175803913336395,-5.216775493385393,36.23968691362769
1760516712.997489,-16.25655762379212,-0.1394258926938691,0.9753213324348287,0.015441973472348993,30.552431837921162,-9.06476688287748,36.88132374079049
1760516713.0073876,-15.751510068352129,-0.11566031557705188,0.981527748577273,0.020396570996261788,29.850511239739696,-11.972574266266417,36.739329089344594
1760516713.0173962,-15.233967620555623,-0.09672572830066645,0.985294468416744,0.015038036250336076,28.330126751244446,-13.756701672346384,35.88829792137847
1760516713.0273736,-14.714129640938173,-0.08324749512281318,0.9871268778469462,0.0014875194132284387,26.27505433479316,-14.365925314134454,34.45384672586815
1760516713.037437,-14.201259714235348,-0.0752581461397763,0.9874936473631042,-0.017410638475385216,23.957174229149267,-13.867752781868003,32.590261231307004
1760516713.04742,-13.703095722396109,-0.07226887841145697,0.986785966154478,-0.038583219558691116,21.60900245195499,-12.423402339764658,30.45923626662787
1760516713.057389,-13.225455953139647,-0.07338323975841553,0.9852967024502235,-0.059178164137499385,19.4062494461417,-10.257365707637376,28.21238376666223
1760516713.0673902,-12.772054016084438,-0.07744181238391927,0.9832243920697941,-0.07691702187782576,17.4608583654941,-7.6266014625379235,25.97913591978541
1760516713.0776198,-12.344519223938105,-0.08318134575095418,0.9807004969582899,-0.09031624300737603,15.823682114239666,-4.792680536016717,23.8605384810742
1760516713.0873685,-11.942608207222243,-0.08939266919929707,0.9778308508534861,-0.09876539206247426,14.494835619019224,-1.9985772999781255,21.928368085711252
1760516713.09738,-11.564590143605047,-0.09506670886312406,0.9747380063265916,-0.10247169400447688,13.438877274587645,0.5492157101869202,20.22815833155458
1760516713.107399,-11.207781523374312,-0.09951811208290669,0.9715920065575576,-0.10229883963073222,12.601528292435807,2.692955649293535,18.784239605497827
1760516713.1173768,-10.869183742775718,-0.1024690311270068,0.968622275635848,-0.09954027491146414,11.924825814783599,4.330094480339544,17.60492717200858
1760516713.1273913,-10.546138996668956,-0.1040699190893255,0.9661097223482583,-0.09567001420655144,11.358421904487411,5.413858796709253,16.686533649366027
1760516713.137363,-10.236885480402153,-0.1048394115702058,0.9643621537480062,-0.09210804225508604,10.865935146398826,5.9483357705907665,16.015715803992524
1760516713.1474078,-9.940886194370975,-0.10552347877134878,0.9636772771833672,-0.09002802074115365,10.426472445264267,5.979056719288571,15.570445516279701
1760516713.1574712,-9.658841250285995,-0.10689858976333176,0.964298265882549,-0.09022638423002323,10.032368243185358,5.580706947745833,15.320356534444375
1760516713.167657,-9.392366639483242,-0.1095639202401775,0.9663682856895686,-0.09306270461002279,9.684684125057142,4.844004063369358,15.227292086697167
1760516713.1774077,-9.143409964214234,-0.11377450268609104,0.9698920544832407,-0.0984697736207706,9.388057561022507,3.8637829761069122,15.246646588548323
1760516713.1874006,-8.91354514432814,-0.11935754676953533,0.9747138588954036,-0.10602101062351384,9.146175830405078,2.729849502465863,15.329706815020655
1760516713.1974456,-8.70331921725404,-0.12573152847325791,0.9805207242919365,-0.11503627376144988,8.958640237551194,1.5213397414864773,15.426810891398391
1760516713.207379,-8.511807441300602,-0.1320204131565735,0.9868740881179798,-0.12470550185445027,8.819452656306666,0.3044077001297028,15.490882867084443
1760516713.2174022,-8.336477408372541,-0.13723233852011082,0.9932645119273877,-0.1342116680239497,8.716946154581835,-0.8676550342388459,15.480827370990875
1760516713.2274594,-8.173385586306365,-0.14045789152174415,0.999176871892509,-0.14283878170703032,8.634773494228867,-1.9530825595851398,15.364361855352834
1760516713.2374184,-8.017649760432265,-0.14103981456578413,1.0041517233713544,-0.15005506015747058,8.553553120381432,-2.920163389375655,15.120036669708014
1760516713.2476125,-7.864082402477605,-0.13867685134176297,1.0078319552315345,-0.15556494273972557,8.4528640438149,-3.7462552843657546,14.73834400060744
1760516713.2575982,-7.707855342876803,-0.13344926349502545,1.0099909153717153,-0.1593273715429889,8.31336910365893,-4.417354295048188,14.221888608468237
1760516713.2675464,-7.545096276396459,-0.12578112745574027,1.010545979008276,-0.16154203911284415,8.118873765804587,-4.927872438617104,13.584606911016563
1760516713.2774036,-7.3733660361741755,-0.11636860730338872,1.0095646314677302,-0.16260849734362476,7.858114868063298,-5.280124524479425,12.85004659552771
1760516713.2873826,-7.191998967891061,-0.10609816375249317,1.0072653154163949,-0.16306439995239239,7.5260693258428155,-5.483135024895984,12.04880318215516
1760516713.2974186,-7.002293261906933,-0.0959632971416865,1.0040070340061136,-0.1635101642024482,7.124599879917025,-5.550672364112167,11.215337694892554
1760516713.3073864,-6.807523755365987,-0.08697602263399278,1.0002584214100336,-0.16452867297605878,6.662308885641276,-5.498770548785346,10.384527816076684
1760516713.3175707,-6.612736245041428,-0.0800660978737915,0.9965416802289756,-0.16660877207260708,6.1535485030816215,-5.343263410958805,9.588399840845666
1760516713.3274105,-6.424287128899337,-0.07596685289239621,0.9933553222818077,-0.17007973616096672,5.6166453829647685,-5.097922833683756,8.853516683122054
1760516713.3374116,-6.249126812330561,-0.07509929143035414,0.991087704693725,-0.17506294307603282,5.07154268583182,-4.773619157008083,8.199416413586967
1760516713.3473961,-6.093890294676852,-0.07748132004179603,0.9899397256345409,-0.1814482066525442,4.537212930494596,-4.378570110007444,7.638292064893193
1760516713.3574052,-5.963933499377774,-0.08269634967410866,0.9898778039438967,-0.18890255295144048,4.029292129093724,-3.919361127036968,7.175825359839391
1760516713.3674386,-5.862502777056592,-0.08994577476655308,0.9906335174975037,-0.19691422872056963,3.558375976194785,-3.402173624403206,6.812827295946982
1760516713.377657,-5.79022023564749,-0.09818569909704872,0.9917535214671589,-0.20486516997036452,3.1292921897780674,-2.833661746377754,6.547178825775592
1760516713.387653,-5.745009982440383,-0.10632289278989121,0.9926883762068012,-0.2121174687300896,2.7414517661174247,-2.2211700558121548,6.375540268994979
1760516713.3974385,-5.722501555444365,-0.11342899003159265,0.992898841691992,-0.21809818671310321,2.390140813800063,-1.572355269756167,6.294402710921378
1760516713.407465,-5.71685085436406,-0.11892749965636257,0.9919560481621572,-0.22237040585869622,2.0684047087347914,-0.8945779092554966,6.30026408672026
1760516713.4173918,-5.721834445291546,-0.1227132777742723,0.9896164739939889,-0.22468248001087746,1.7690495315175754,-0.19453744477286394,6.388987205312931
1760516713.4273984,-5.732015209039987,-0.12517695005769558,0.9858610467950396,-0.22499014215402752,1.4862728312482547,0.5214691545472698,6.554663704178276
1760516713.4375548,-5.743758028236559,-0.12712552690688683,0.9808971278764002,-0.22344798551116923,1.2165420839633811,1.2465021712795554,6.788464862337986
1760516713.4474037,-5.7558986854527205,-0.12961133008969586,0.9751299476701971,-0.22036962266986249,0.9585430815111597,1.971234230690259,7.0779313600985425
1760516713.4574344,-5.769931405312009,-0.133699034284581,0.9691138301203326,-0.21616100471696764,0.7122704510299589,2.681815656468161,7.406950300551822
1760516713.4674034,-5.789665537713535,-0.14021121213669122,0.9634923764343523,-0.21123817952359467,0.4775542343341795,3.357819620493815,7.75638454852743
1760516713.47744,-5.820393061232893,-0.14949589502108365,0.95893267108216,-0.2059459959532444,0.2524401459018312,3.9708120036897787,8.105075412687132
1760516713.4874442,-5.867692619731448,-0.16125724754814494,0.9560556081275643,-0.20049492124542698,0.03183661393709383,4.484072164783976,8.430819646572548
1760516713.4974184,-5.936062333726809,-0.17448382033024146,0.9553651910042609,-0.19492895481424133,-0.19326960533691434,4.853878717236168,8.710957138030507
1760516713.5073972,-6.027613584933527,-0.18749793484759028,0.9571827924803658,-0.18913067319232002,-0.43589203922268316,5.032579278269298,8.922377885481634
1760516713.5175414,-6.141064829155395,-0.19813466927973547,0.9615946781881972,-0.18286194899610556,-0.7124418346221877,4.973398985798309,9.04100758952981
1760516713.527619,-6.2712457349113375,-0.20404069636106026,0.9684210530510444,-0.17583216372694294,-1.0415895792838425,4.636621438914767,9.041081396445525
1760516713.5374026,-6.409258264571417,-0.20306320695038074,0.9772130894420991,-0.16778085967699993,-1.4428077449922725,3.9964148390049417,8.894689128484703
1760516713.5473835,-6.543346488896943,-0.19367910405983735,0.9872818810921448,-0.15855997610860523,-1.934840066663976,3.0472163144636903,8.572118749982478
1760516713.557627,-6.660410014256663,-0.1753976454320545,0.9977605478454402,-0.1482024397352065,-2.5343476978797757,1.8083052077913173,8.0434176437412
1760516713.5674312,-6.747972723396095,-0.14905993411020932,1.0076977205497786,-0.1369673404558561,-3.2549578574749036,0.3250964652412535,7.28135103776676
1760516713.5773938,-6.796310612889731,-0.11696035538421864,1.0161767597929496,-0.12535445753009228,-4.106870896578627,-1.3341214048926002,6.265610641211009
1760516713.5874553,-6.8003736593200665,-0.08273130828705487,1.0224496697532988,-0.11408094451464432,-5.0970438727511915,-3.0867049633842263,4.987775006544477
1760516713.5974224,-6.761127677243507,-0.050964152727394546,1.0260679693302106,-0.10401198831700155,-6.2297586275366434,-4.849139236883513,3.4562076627802747
1760516713.6073825,-6.686006059998751,-0.026584480727668336,1.0269862402121155,-0.09603963580024186,-7.5071465632764545,-6.553839502119161,1.6998529898598531
1760516713.6173873,-6.588299163072632,-0.014053923095094012,1.0256100503234484,-0.09091486172247679,-8.92910542992885,-8.166137677815172,-0.2301998053638916
1760516713.627389,-6.485504165131489,-0.016523549800672145,1.022761355474993,-0.08905812664312955,-10.492172171333598,-9.697153958894509,-2.262403725779583
1760516713.6374605,-6.396872691431497,-0.03509901745563855,1.0195448466866726,-0.0903947374613076,-12.187375870526424,-11.20799004050787,-4.310308298063029
1760516713.647463,-6.34057509409765,-0.06837783280621432,1.0171204397733562,-0.09426890893766615,-13.997713815943628,-12.801743234746915,-6.281855825351779
1760516713.657401,-6.330997955006227,-0.11237706511349724,1.0164163448702344,-0.09947588880438127,-15.896330161399227,-14.602236479936613,-8.091344652444068
1760516713.66739,-6.376672799194102,-0.1608951418717151,1.0178418396832087,-0.10441982055591525,-17.846466234232537,-16.72159730306285,-9.672144652349159
1760516713.6773715,-6.479200629559903,-0.2062674428795557,1.0210667208055582,-0.10737022450492034,-19.803781734907744,-19.222041132014397,-10.987850002846791
1760516713.687402,-6.633327404926379,-0.24040713405414843,1.0249236304268898,-0.10676440135576748,-21.720930113844357,-22.079483526283727,-12.039752479007259
1760516713.6973991,-6.828100537729626,-0.2559845365795263,1.0274686724984434,-0.10149156804360397,-23.553597306970417,-25.1572594571664,-12.86924778602576
1760516713.7073908,-7.048852963352609,-0.2475904040929259,1.0262130276849113,-0.09109711678108688,-25.26679076496391,-28.197085826683285,-13.554806558464128
1760516713.7174091,-7.279653592731406,-0.21273889725885323,1.0185134791053163,-0.07586121697383126,-26.840068666629133,-30.831725086591142,-14.204146859833267
1760516713.7274053,-7.5058360332563545,-0.1525797168417215,1.0020794461373264,-0.05673283814652932,-28.27061421494197,-32.62014658510527,-14.942989550944208
1760516713.7374454,-7.716254130506859,-0.0722014879110299,0.9755213465343221,-0.035132754827562326,-29.573553139698657,-33.102039890508394,-15.902133789539503
1760516713.747402,-7.904988409286771,0.01956878350615418,0.9388402095370787,-0.01266999603531427,-30.779607005859695,-31.864959523998575,-17.20455099109797
1760516713.7574184,-8.07232012911916,0.11092057758583869,0.8937505178554183,0.009161518377522387,-31.93086479889053,-28.614623487957104,-18.95384521246542
1760516713.7673917,-8.224883303748834,0.18835417861561066,0.8437390955860301,0.029231986356382415,-33.07582412839475,-23.237271111867308,-21.224884363165586
1760516713.7774923,-8.374991116358125,0.23842106933985335,0.7937916734577771,0.04690741368861868,-34.264684432903074,-15.842825826534781,-24.056803998651443
1760516713.7876542,-8.539212850717329,0.2497254937755881,0.7497691328486485,0.062030415787728055,-35.54526694013728,-6.7791983426565325,-27.44812479691056
1760516713.7974946,-8.736357363891765,0.21490114807947416,0.7174921341876328,0.07476054885887656,-36.959271054564226,3.3883890342965115,-31.353664248752533
1760516713.807403,-8.985101397936068,0.13219256022552578,0.7016905566052665,0.08533661772112006,-38.538256220029005,13.933652218050474,-35.683371334909594
1760516713.8173983,-9.301574738929032,0.006254100658282526,0.7050621182751908,0.09386587339310623,-40.298964671920665,24.054618493427842,-40.30391489132018
1760516713.8274045,-9.697252349915187,-0.15211421107595688,0.7277007647807844,0.100244403330161,-42.23831391339196,32.974483105445685,-45.044294347157084
1760516713.8375185,-10.177474164910674,-0.32733763153087325,0.7670543290630594,0.10424801835938974,-44.32922731348844,40.039422780024026,-49.70649734351795
1760516713.8474562,-10.740807244267542,-0.5013063886906002,0.8183958429175329,0.10573638245309326,-46.51883352584881,44.79490292599904,-54.08125208199281
1760516713.8574958,-11.37931194975151,-0.6560512277960664,0.8756507069171953,0.10485472012413115,-48.73003096072219,47.0278847198503,-57.96753145053801
1760516713.8674288,-12.079619587144053,-0.7763628634322289,0.9323722216992167,0.10213236719427463,-50.866256857313026,46.77168834106996,-61.193161676893574
1760516713.8774395,-12.824605195068468,-0.8518929852198195,0.9826758510732434,0.09843930941175796,-52.818359757239776,44.27886863394582,-63.63311822265399
1760516713.8874388,-13.595360658233739,-0.8783636423121939,1.0219832891725056,0.09482513235945392,-54.47238085734684,39.97218700631085,-65.22209171147519
1760516713.8974302,-14.373149761521699,-0.8576906722470224,1.0474769450380796,0.09230370537372694,-55.717665014347034,34.38430097823822,-65.95870098275068
1760516713.9074976,-15.141061721159858,-0.7970858523371901,1.0582283855527184,0.09165581171816108,-56.455332786083915,28.094884905264266,-65.90021510534703
1760516713.9174023,-15.885163045037176,-0.7074380029915246,1.0550321664613183,0.09330531558593108,-56.60713863309205,21.671568796274542,-65.14857762858584
1760516713.927431,-16.59505756569291,-0.6013804092142876,1.0400258904265338,0.09729352125684745,-56.12410777892135,15.619373204292978,-63.83045075408623
1760516713.9374363,-17.263877111976036,-0.491422755369313,1.0161955344299585,0.10334453361595138,-54.993593687124275,10.342122071796428,-62.0753461302781
1760516713.9474087,-17.88782047029939,-0.3884240049000976,0.986860247789918,0.11099098899171733,-53.243073162693875,6.1181133633946025,-59.99624559940673
1760516713.9574127,-18.465421361748064,-0.3005653560011229,0.9552147393808879,0.11971824868013121,-50.93933027474462,3.0908911363898377,-57.67631882491586
1760516713.9676404,-18.996748764935347,-0.23287426144096807,0.9239835883567159,0.1290862063818568,-48.18258154365309,1.2744203776883376,-55.163673730957406
1760516713.977694,-19.482724855490485,-0.18726126482386896,0.8952123098603326,0.13879912335807182,-45.09623323414288,0.5705282226015188,-52.47410898866253
1760516713.9874816,-19.924695221386685,-0.16296756650997304,0.8701914833048282,0.14871181336635378,-41.8138916749202,0.795315987570708,-49.60022202418152
1760516713.997414,-20.32431571389927,-0.15728399311661842,0.8494898377072447,0.15878051204181803,-38.46566416275162,1.7105346732328175,-46.52433365845172
1760516714.0074418,-20.683743085992933,-0.16638689629934839,0.8330621536937298,0.16898310069262248,-35.16571872156641,3.0557921377083206,-43.23249554564594
1760516714.017419,-21.006043317112095,-0.1861398879082096,0.820396743369354,0.17924031927237682,-32.00273741335677,4.577943957478584,-39.72710160722149
1760516714.0275085,-21.295672825122868,-0.21273387866364446,0.8106730844745951,0.18936492856522744,-29.034431927507264,6.0549740223517805,-36.03609262272727
1760516714.0374892,-21.55885532805274,-0.24308334730296785,0.8029103382085173,0.1990525075554506,-26.28666866720296,7.312846660923094,-32.2173026774711
1760516714.0474536,-21.803681941886957,-0.2749579269320955,0.7960981080284717,0.20791232608379948,-23.756960198419456,8.23494055813372,-28.35716303223686
1760516714.057451,-22.039809985187446,-0.3068897157045714,0.7893079772885913,0.21552606276584116,-21.42126427602629,8.76455708281336,-24.563853697409414
1760516714.0675755,-22.277722952367153,-0.33794031494850135,0.7817859280042807,0.22151912129007845,-19.242469003274785,8.901566693608913,-20.95607808227123
1760516714.077607,-22.527624715133925,-0.36742704992151515,0.7730223815397727,0.22563176760641063,-17.17887369653694,8.69457285210972,-17.649667944435688
1760516714.0874653,-22.79814987837122,-0.3946965061659862,0.7627922330136777,0.22777980698249786,-15.19138704092277,8.230111313219558,-14.744765573087218
1760516714.097526,-23.09514866481351,-0.4190045233899543,0.7511574523883268,0.2280940813069114,-13.24874075445349,7.620374250738664,-12.316074712412414
1760516714.1074338,-23.420820954544034,-0.43952494650737195,0.7384321681034646,0.22692768878807912,-11.330415620322434,6.990726786364724,-10.407695926834506
1760516714.1175015,-23.773417325009817,-0.4554723025565142,0.7251205059218472,0.22482402591473682,-9.427177948171488,6.467913301262782,-9.032774194401137
1760516714.127497,-24.147606644585057,-0.46629342344105046,0.7118435593948574,0.22244699392839765,-7.5393749378965005,6.169478825726295,-8.17705278297195
1760516714.137448,-24.53546391500825,-0.4718674059168395,0.6992706353538827,0.2204825643136922,-5.6735454891925,6.1946964871223855,-7.804740355269586
1760516714.1474144,-24.92790011057516,-0.47265534226933936,0.6880638013382231,0.2195262209176038,-3.8382767601096615,6.617215971241576,-7.8649453656682295
1760516714.157444,-25.316268599130105,-0.46975661147214903,0.6788373737021661,0.21997452323705396,-2.040360262656769,7.479653188556093,-8.297249431986575
1760516714.1674597,-25.693853620945596,-0.4648500774943222,0.6721275498178725,0.22194075554253123,-0.2821709687994546,8.79034822924767,-9.035606556107155
1760516714.1776032,-26.056976379125043,-0.4600222477941611,0.6683633847720587,0.22521197010851168,1.4390958893035402,10.522471070018451,-10.010456933100162
1760516714.187687,-26.405536457943736,-0.4575078791353006,0.6678299853898766,0.22925718542832296,3.1301017943403027,12.615499396863667,-11.149554453112431
1760516714.1974008,-26.742922535036033,-0.45938732724466336,0.6706187385613764,0.23328642686666393,4.798203278022012,14.978820708503227,-12.37838487871222
1760516714.2074137,-27.07534889997718,-0.46729410467638904,0.6765670203302634,0.23635044653619147,6.447132971425112,17.49690949623824,-13.621095986581429
1760516714.2174196,-27.41077348928982,-0.48218242872531125,0.6851989204132991,0.23746355813097564,8.072503099352252,20.03533366715767,-14.80256967373229
1760516714.2274525,-27.757606559829302,-0.5041881129271092,0.6956855777494901,0.23572900620344833,9.658243546300268,22.446821777420634,-15.851755507623226
1760516714.237432,-28.12341998192251,-0.5325930232214158,0.7068459017670596,0.23044784152972703,11.17502601461378,24.576767449135673,-16.705806867961346
1760516714.2474623,-28.513826810654166,-0.5658835721810681,0.7172050927388097,0.2211966863320623,12.581448999428856,26.267863172907678,-17.314034993453323
1760516714.257409,-28.93163940643332,-0.6018833355014498,0.7251204414227235,0.20786575948123154,13.828324679835536,27.36406435315669,-17.640355690160916
1760516714.2674866,-29.37634972701495,-0.637937920383578,0.7289729809289227,0.190655431583988,14.865961058472841,27.71470161672284,-17.66292953952071
1760516714.2774208,-29.84392142005742,-0.6711338671011038,0.7274116190577968,0.17003611353823958,15.653978276406825,27.18002101840511,-17.37022156020793
1760516714.2874243,-30.326851097419812,-0.6985396815873351,0.7196247041967657,0.14668180837413577,16.172908054857476,25.639425572085383,-16.753678035443908
1760516714.297668,-30.814449592618665,-0.7174608061248139,0.7056027254123167,0.12139289710069391,16.436472554244286,23.00308606080623,-15.798379801938584
1760516714.307446,-31.293305898838828,-0.7256957371593196,0.6863458067084917,0.09502803786372994,16.502945891118415,19.226529618554622,-14.47399948720826
1760516714.317412,-31.747912397917695,-0.7217675147932485,0.6639640661132558,0.06846480761114446,16.483455227610037,14.326620695881239,-12.728761584231851
1760516714.3274333,-32.16143645114634,-0.7050918331857439,0.6416229269796022,0.04260049804955777,16.544710347307074,8.396348623003675,-10.488621032954775
1760516714.3375278,-32.51661272106588,-0.6760418508237231,0.6233037712224416,0.018389745368545533,16.90370882391155,1.6152662293731959,-7.662615474736902
1760516714.3474174,-32.796702828399575,-0.6358864362652017,0.6133838433020424,-0.0030990303064820316,17.812580941849944,-5.747584637946253,-4.1537436516689885
1760516714.357647,-32.98643543568934,-0.5866087462208373,0.6160826283949475,-0.02063473874835936,19.5329064960977,-13.340821632754018,0.126633674880423
1760516714.3674166,-33.07282183595516,-0.5306435795373615,0.6348614429097978,-0.03280918316705048,22.30051270045173,-20.749292495200816,5.243482244018046
1760516714.3774328,-33.04575860898643,-0.47059079205706283,0.6718788486727011,-0.038078925591908654,26.283899699050643,-27.523663033531612,11.224114729550067
1760516714.3874156,-32.89838141126609,-0.40896071486853075,0.7275869463947687,-0.03487712080925164,31.5417321252068,-33.21854732913514,18.046678548111515
1760516714.3974094,-32.62720194950504,-0.347992021152475,0.8005201339410523,-0.02179943867466763,37.98655412270953,-37.43474815644436,25.63114129157271
1760516714.4074233,-32.232112687537736,-0.2895640018476581,0.8873036886815621,0.0021422117462258582,45.3622743145384,-39.8598292772409,33.83248384090829
1760516714.4174461,-31.716358435927543,-0.2352044281401779,0.9828911785836778,0.03721782073599268,53.24180462550433,-40.30083818506751,42.43647054710164
1760516714.4275873,-31.08654735706532,-0.18616767839732487,1.0810078073975333,0.08266765945153466,61.048825488908506,-38.703696790300846,51.159500075906934
1760516714.43743,-30.352719114890437,-0.14353663499924377,1.1747377673841461,0.13644110205044083,68.10438114269316,-35.15567014870946,59.65490185252916
1760516714.4476418,-29.528425398392013,-0.10830271528600673,1.2571753687624927,0.1950631861525593,73.69519716879127,-29.870326829806505,67.52808102172305
1760516714.4574504,-28.630727494217183,-0.08139866767217538,1.322071168246832,0.25370792661509134,77.15668488104224,-23.158003255431524,74.36190331444644
1760516714.4674027,-27.67999104000706,-0.06368012737020434,1.3644269770111865,0.3065336413654009,77.96022906259537,-15.387967631001713,79.75175599912914
1760516714.4775352,-26.699366905482915,-0.05586495951794632,1.3810071427208601,0.34728345001563055,75.79235601961787,-6.950105415142273,83.34728166510862
1760516714.4874444,-25.713889427459122,-0.05844643098879056,1.3707305324789847,0.3700867251984739,70.61334947222198,1.776591691717045,84.89553739367928
1760516714.4974337,-24.749190678703606,-0.07159554473239986,1.3348905383302345,0.37034138248598625,62.68488326312237,10.443847206764815,84.27889426192884
1760516714.5074432,-23.82990676441878,-0.09505649389194458,1.2771339462910984,0.34553255469854005,52.5598773930137,18.74067278628531,81.54077290010366
1760516714.5174284,-22.97792263600315,-0.12802956113978597,1.2031422819269704,0.2958459090737452,41.03266815646151,26.388490212286396,76.89354392002022
1760516714.5274441,-22.21065272448952,-0.1690470519518218,1.1200180394379,0.22444735191736503,29.053498592080242,33.12944670114315,70.70555146319933
1760516714.5374527,-21.53957689454162,-0.21587754681871726,1.035458538746881,0.1373266358372678,17.617755274235794,38.71455589801535,63.46774540269418
1760516714.5474658,-20.96923883496834,-0.26551618821180495,0.9568548944208501,0.042661233280645874,7.645931637575108,42.89888502595962,55.74398430694964
1760516714.5574694,-20.496866524931722,-0.31431358728268305,0.8904618241453092,-0.050243575830295976,-0.12690314683096296,45.44949572185423,48.111825244314566
1760516714.567485,-20.11269862488658,-0.358264323353586,0.8407601447064973,-0.13226986639601807,-5.234559613245937,46.168051966453135,41.10201763686747
1760516714.5775292,-19.801008176284437,-0.3934307450965468,0.8100943192907853,-0.1958100877700332,-7.523523884174885,44.92488043683404,35.14491016957848
1760516714.5875611,-19.541720082948196,-0.4164341692747513,0.7986163782910224,-0.23583784285455825,-7.151868595086502,41.69663269030532,30.530752482534766
1760516714.5975626,-19.312437821117886,-0.4249201608423565,0.8045117860602852,-0.25052267456184396,-4.546045639016218,36.597321892153715,27.38864032651734
1760516714.6074188,-19.090642505801625,-0.41790735806531626,0.8244384308278367,-0.24129115469205012,-0.3252949648724382,29.893225428041102,25.68593878520369
1760516714.6174521,-18.855811369747965,-0.3959546952929734,0.8540893834511392,-0.21236128947775115,4.792079956460641,21.99559366013357,25.246953134491157
1760516714.6276875,-18.591222433275824,-0.36111671523401007,0.8887923016212068,-0.1698849581757175,10.085025600302952,13.430069419367582,25.786970306727557
1760516714.6374254,-18.285262684813947,-0.316694376505242,0.9240730374493973,-0.12089461856886612,14.914782451335842,4.786760358814726,26.955972935374632
1760516714.64743,-17.93212893157934,-0.26682561329059873,0.9561284833974442,-0.07225602091266725,18.788484353281934,-3.341147269152726,28.385531132168296
1760516714.6574304,-17.531888030174798,-0.21598506275470553,0.982168800322329,-0.029790126452362918,21.395736824287717,-10.420193763206417,29.732625441157122
1760516714.6675105,-17.089930982841878,-0.1684667477669,1.0006011574767346,0.0023319299408093136,22.617273419851703,-16.030795789656953,30.715304782724555
1760516714.6774724,-16.615907998662678,-0.12791268603357886,1.0110406563215684,0.021877054132701686,22.50888376538392,-19.904711842531928,31.13683455719092
1760516714.6874423,-16.122274032388006,-0.09693716516566024,1.014155274481596,0.028529438974345168,21.26677391737563,-21.94138589205939,30.896952380860025
1760516714.6976225,-15.622612004847516,-0.07688608542682634,1.011378735043674,0.023610795323692268,19.18202536647814,-22.202885740252718,29.990672858954856
1760516714.7075047,-15.12993192698332,-0.06775992588735212,1.0045485082819314,0.009622850414541572,16.591864865560126,-20.8908277930221,28.496539618994525
1760516714.7174296,-14.65515843573597,-0.06831230526853821,0.9955378431470602,-0.01029082464650829,13.834348776203301,-18.311136180284333,26.55719006696524
1760516714.7274544,-14.206002569930897,-0.07631159358860538,0.9859488782260759,-0.032870317015029744,11.211247560760183,-14.833370761972905,24.355532308951105
1760516714.7374475,-13.786355527062033,-0.08892340692152337,0.9769183313057784,-0.05517932695573443,8.961833353097232,-10.850721604634401,22.089779561765994
1760516714.7474627,-13.396247108544264,-0.10314535924953962,0.9690588180148264,-0.07491494087923632,7.248317113801714,-6.745053832798522,19.950174573494703
1760516714.757589,-13.032304209601708,-0.11621390746429759,0.9625239094082658,-0.09057021792072924,6.152134753454618,-2.8592986526785036,18.09961688833786
1760516714.7675676,-12.688560632080131,-0.12591497476416944,0.9571561222084339,-0.10145643773365501,5.679256159816785,0.5223073225406818,16.659684331816393
1760516714.7775517,-12.357436572447398,-0.13076250840906736,0.9526649956504054,-0.10761153542799046,5.772146254829159,3.1867385082803654,15.702767237462385
1760516714.7874706,-12.03072890031263,-0.1300477755923682,0.9487884936578347,-0.10963470561544551,6.325842060947728,4.998432529140324,15.250256754213813
1760516714.7974513,-11.70050957316551,-0.12378956859295816,0.9454075701221578,-0.10849085202419095,7.205738889518911,5.900136209146593,15.276037613103485
1760516714.8074455,-11.359883899817042,-0.11262239929588909,0.9426016961423574,-0.10532158521516953,8.265038460121627,5.908937043653341,15.714044591214064
1760516714.817499,-11.003589234429786,-0.0976510428571042,0.940647085833271,-0.10128592405329831,9.360321471652803,5.1079542951143795,16.468416172447295
1760516714.827452,-10.628421122356487,-0.08028883353603704,0.9399676534744049,-0.09744016739974923,10.364251029561755,3.6342884235281883,17.42479889371614
1760516714.8375092,-10.233477032825396,-0.062093038016557765,0.9410520367053982,-0.09465701583081569,11.174878667524393,1.6640918751630216,18.461553647972718
1760516714.847451,-9.820218711236153,-0.044611169523457686,0.9443506771804547,-0.09358000705157123,11.72135988688566,-0.6041267317918554,19.459927244998823
1760516714.8574677,-9.392366586138563,-0.02924990696978035,0.9501679264862931,-0.09460914577311061,11.966115481361184,-2.9667071463118955,20.31261573825564
1760516714.8674731,-8.955642873206951,-0.01717151580481198,0.9585670760160745,-0.09791401312615905,11.90366209869692,-5.231264118337521,20.930471679800736
1760516714.8777568,-8.51737435995482,-0.00921636980731042,0.969309374065534,-0.1034687869689188,11.556539148251753,-7.231112964076608,21.247316432869315
1760516714.887437,-8.085963211374956,-0.005849377913282229,0.9818463554119743,-0.11109979908398522,10.969002900184229,-8.836590083808058,21.222903242139928
1760516714.8975155,-7.670246616353086,-0.007133023546661417,0.9953743359763546,-0.12053379407355423,10.199403458467748,-9.962335894549167,20.84409016360715
1760516714.9074304,-7.278794107735568,-0.012735568600040322,1.0089432081408203,-0.13143677083212482,9.312299583538747,-10.569898355134928,20.12427485465346
1760516714.9177637,-6.919219863689354,-0.021982568738245115,1.0215955366546492,-0.1434386951011755,8.371290906273433,-10.66551195450125,19.101139830058383
1760516714.9274411,-6.597595375926999,-0.03394944999834591,1.0325023759478948,-0.1561454136180362,7.433252076627735,-10.293582282341589,17.832781062643196
1760516714.9375148,-6.318027034653875,-0.0475779911403235,1.0410629088804193,-0.16914317149211297,6.5442701100121825,-9.527057299838726,16.39238360263141
1760516714.9474552,-6.08242640315879,-0.06179188860753603,1.0469468400835573,-0.18200256693549588,5.737284695571308,-8.456244246371087,14.861788530999162
1760516714.9574473,-5.890471494802412,-0.07559278930140498,1.0500773637038294,-0.19428793769602856,5.031290223896815,-7.177631804925926,13.324524719769693
1760516714.9674594,-5.739748263780096,-0.08813287524780951,1.0505704337355901,-0.20557571553456996,4.4319279065928825,-5.783986256493367,11.859047803193642
1760516714.9775746,-5.6260659412232545,-0.09877134913973605,1.0486559876430237,-0.2154821366484431,3.9332742077196015,-4.356578752392934,10.532934906672615
1760516714.9877133,-5.543938738211121,-0.10712210100103552,1.0446062719064466,-0.22369758754268632,3.520566638092905,-2.9600069941258487,9.398611105558663
1760516714.9976737,-5.487205825131046,-0.11309025218842647,1.038687819540914,-0.23002205338504528,3.173525857494593,-1.6397490282319593,8.490904030925973
1760516715.007428,-5.44972587148996,-0.11688549974506823,1.0311418652633837,-0.23439381194556333,2.8698784080321964,-0.4223131856781023,7.826437020708325
1760516715.0175161,-5.42605118368489,-0.1189986697659261,1.022188053808989,-0.23690227519636198,2.5886697054616263,0.6823873106703556,7.404654675758694
1760516715.0275533,-5.4119763652634045,-0.12013512211582383,1.0120419983251503,-0.23777699865497176,2.312974582331957,1.6769807543319595,7.210148095479753
1760516715.0374503,-5.404870034363366,-0.12110889361970595,1.0009393087778915,-0.23734937360470237,2.0316664278195105,2.571538112479529,7.215876209984433
1760516715.0474648,-5.4037281200034935,-0.12270952304835472,0.9891632510340849,-0.23599037233094933,1.740012796528311,3.378078620311356,7.386820995837586
1760516715.0574734,-5.408925559859579,-0.12555792520018993,0.9770748857794284,-0.2340343308512436,1.439032158676763,4.105320519361137,7.683570329621047
1760516715.067693,-5.421685392941828,-0.129969751708382,0.9651416978329951,-0.2317032339479953,1.1337492480903744,4.754320449659502,8.065346468318934
1760516715.0775173,-5.443329164805796,-0.1358463186486173,0.953956013357034,-0.22904774054560023,0.8306710640393103,5.315642859699654,8.492137119968415
1760516715.0874436,-5.474418202411311,-0.14261448225684983,0.9442317709727781,-0.22592003301880267,0.5349146418023341,5.768627628307088,8.925818128253171
1760516715.0974724,-5.513933087095494,-0.14923498498078158,0.9367698362790658,-0.22198929724035812,0.24742853728577097,6.083118905696375,9.330404513210912
1760516715.107483,-5.55865476937991,-0.15429102201055167,0.93238819502395,-0.21680338863315674,-0.03730977478050806,6.223675551769923,9.67176201943052
1760516715.117443,-5.602895639404647,-0.1561560844922908,0.9318223811562691,-0.20989075720971104,-0.3328137064390716,6.155861717280343,9.917226807651335
1760516715.1275375,-5.63868302794379,-0.15322613772328766,0.9356104467261321,-0.20088668489458486,-0.661069810253817,5.853812075010891,10.035608666913435
1760516715.1376839,-5.656428111252042,-0.14418837734201423,0.9439824859047747,-0.1896600052595312,-1.0517651458406208,5.307973584141714,9.997984296160777
1760516715.147445,-5.646029101217645,-0.12828822265079912,0.9567757443857168,-0.1764133428769142,-1.5401126032112917,4.531790456644983,9.77951318550425
1760516715.1575012,-5.5982713987095565,-0.10554987038710227,0.9733937774757065,-0.16173264354403044,-2.1632730707884016,3.566109473843508,9.362233225635721
1760516715.1674745,-5.506316609972029,-0.07690670009826507,0.9928236972140343,-0.1465693523637651,-2.955595337440272,2.480209229095868,8.738448173203102
1760516715.1774938,-5.367035458537222,-0.0442077416728867,1.013719121148324,-0.1321484980473525,-3.9431472076670753,1.3685995693366382,7.913976234575996
1760516715.1876316,-5.18194782849954,-0.010083704266694655,1.0345459345334345,-0.11980604489286749,-5.138229862258107,0.34314422768563896,6.910295560981881
1760516715.197449,-4.957584247389417,0.022323305143440293,1.0537727106020618,-0.11076943593823674,-6.534701661792524,-0.4792960949342555,5.764604792389231
1760516715.207455,-4.705165589271921,0.04974073271364072,1.070072008510819,-0.10590816752116944,-8.104979121997557,-0.992599874744284,4.527061830393596
1760516715.2174377,-4.4396018905135985,0.06920787791642785,1.0824905793538804,-0.10549634194029835,-9.799564234879938,-1.118379874524068,3.254935402798162
1760516715.2274384,-4.177929007368552,0.07850587651113054,1.090550101315475,-0.10904106388071448,-11.549887734086013,-0.8213138230675924,2.0040225637894595
1760516715.2374623,-3.9374150433812414,0.07648815508670423,1.0942541435465007,-0.11523009568260795,-13.275097096809429,-0.11970067243968423,0.8183611903744339
1760516715.247485,-3.7336460616143263,0.06323625353524343,1.0939990996627178,-0.12203278411035934,-14.893028224061949,0.9111803013600721,-0.2801336251813236
1760516715.2576253,-3.5789138005574292,0.04000704896132663,1.0904136399913031,-0.1269524295412549,-16.334887320969678,2.143837353003254,-1.300145175549818
1760516715.2676399,-3.4811666163160724,0.00899345523801482,1.08417501527147,-0.12738818410824398,-17.562181382058867,3.4105434960847933,-2.285662859207838
1760516715.2774549,-3.443664647533993,-0.02703155446716924,1.075860201062758,-0.12103605972518891,-18.583392197071554,4.520067184347048,-3.31556924844019
1760516715.2874703,-3.4653372917105796,-0.06509431252256861,1.065877520512166,-0.10625227750764087,-19.467122707952928,5.2760261220549545,-4.497612803567054
1760516715.2975125,-3.541712345214734,-0.10233182628474845,1.0544919311312413,-0.08231719666193371,-20.34826429893203,5.494150279550453,-5.957268239010447
1760516715.3074722,-3.6661958811645854,-0.1361660753296761,1.0419194884679748,-0.049564519975102174,-21.424296971509875,5.017069075726318,-7.822889295784379
1760516715.3174708,-3.831443512650674,-0.16431288274786865,1.0284437802896522,-0.009367967596381878,-22.940119930504995,3.7268700388193916,-10.20917279172957
1760516715.3274996,-4.030582035904737,-0.18465105043012384,1.0145085158884994,0.03600035020445154,-25.16162438988985,1.5567925860165788,-13.201176936018278
1760516715.337545,-4.258108103016454,-0.19502918520707027,1.000757967079007,0.08361271086719897,-28.340199251811814,-1.496497690204631,-16.840974166315505
1760516715.347476,-4.510385336393061,-0.19311608424036233,0.9880165042597728,0.13019816839451742,-32.67209863152245,-5.359513555636597,-21.11856707820396
1760516715.35748,-4.785752101170532,-0.1763923861612076,0.9772122288755398,0.17249166741666477,-38.25784443015058,-9.868415307382659,-25.96811418803621
1760516715.36752,-5.084313591858653,-0.14234101531769344,0.9692574872091787,0.20758472791741941,-45.06747411738275,-14.758087441594476,-31.269923371309595
1760516715.3774571,-5.407517718330733,-0.08884140038058819,0.9649038515966992,0.23324103663962087,-52.91737759399637,-19.658145929418687,-36.85809680611803
1760516715.3874662,-5.757616274052388,-0.014727025352248598,0.9645941785202031,0.2481425063729463,-61.463644345239764,-24.101127705497188,-42.5331385276618
1760516715.3974576,-6.137107142898329,0.07956525245897159,0.9683405827629696,0.2520377651517044,-70.21533111307849,-27.547885044707296,-48.07830784315408
1760516715.4074605,-6.548247466561892,0.1913489694810315,0.9756606127812176,0.24577417729840995,-78.56899266520206,-29.43336453464812,-53.278107598904356
1760516715.4174564,-6.992715728937928,0.3151691808757298,0.9855972170795064,0.23120418799317236,-85.86326983760921,-29.23226553340081,-57.93709468718266
1760516715.4274762,-7.471469129938215,0.44257550653231764,0.9968286462018388,0.2109659720366947,-91.44932810765872,-26.538880978866974,-61.89718466620745
1760516715.4375756,-7.984787370436615,0.562379458317086,1.0078502290209232,0.18814948881525917,-94.76965342121031,-21.149853944116067,-65.05171196565587
1760516715.4474597,-8.532430941605114,0.6615601574786841,1.017192579035419,0.16587617512402544,-95.4346486865403,-13.134295448905412,-67.35455990192256
1760516715.457457,-9.11379781656754,0.7268681830491202,1.0236336304257627,0.14684397677836708,-93.28451608477408,-2.8742038793649414,-68.82266332479144
1760516715.467597,-9.727958292105287,0.7469811368039545,1.0263609686462114,0.1329143880387037,-88.42408650133913,8.939722123389497,-69.5304266781435
1760516715.477476,-10.373491178751518,0.7148230242797649,1.0250446119115992,0.12483766559667314,-81.22132296748386,21.3655525790333,-69.59558356363432
1760516715.48748,-11.048125369073658,0.6294505296838183,1.0197942442695411,0.12221219358970721,-72.26628417958915,33.31899784097878,-69.15789181475394
1760516715.4974668,-11.748278096364812,0.4968698924679533,1.0110092446863224,0.12372659786515214,-62.295504186491364,43.71795527461793,-68.3543015695061
1760516715.5074592,-12.468633812496607,0.3294039032770752,0.9991833073033424,0.12762946045472204,-52.094789300183336,51.63433443512225,-67.29585024830666
1760516715.5176811,-13.201903171271747,0.14371900666706605,0.9847598006066066,0.13226632378342404,-42.398338156840275,56.420336721552005,-66.05151310034027
1760516715.5276337,-13.938855089325692,-0.04193100070949471,0.9681003118618217,0.13650017630498595,-33.8020868305703,57.78387015773056,-64.64227317878847
1760516715.5374815,-14.668658672392699,-0.2105317290620906,0.9495443636168966,0.1399045932381798,-26.704940956945336,55.80318458406067,-63.045652210236526
1760516715.547472,-15.379523132905598,-0.3486212409728735,0.9294843276605186,0.14272254793887287,-21.284900045402253,50.88604929722961,-61.20838284131396
1760516715.5574787,-16.0595817400189,-0.44775418306197057,0.9083977733783724,0.14565498337792604,-17.509583100030365,43.688549630840456,-59.06377252613532
1760516715.567543,-16.697928571557288,-0.5050209064910001,0.8868304582380646,0.14956850494290785,-15.174010547849946,35.012238772550205,-56.55045173965053
1760516715.5774865,-17.28568797026297,-0.5227071049016774,0.8653544917067245,0.15520660423600405,-13.954560153397404,25.69765780446801,-53.62981276396974
1760516715.5874722,-17.81698033070802,-0.5072939099749747,0.8445264942566548,0.16296872662232267,-13.467627077131342,16.528992815383376,-50.29992612107643
1760516715.5975058,-18.28964706979505,-0.4680507092760201,0.8248569800501228,0.17279472851863,-13.32383007216824,8.160220101664855,-46.60405356841319
1760516715.6074579,-18.705614950800392,-0.4154778285072331,0.8067914665554278,0.1841643825417762,-13.171987702376939,1.0683421857663686,-42.63239121814028
1760516715.6175482,-19.070816593302442,-0.359828560371784,0.7907003613065159,0.1961975536217434,-12.730270667700823,-4.465209180844704,-38.51657926623274
1760516715.627485,-19.394637702416542,-0.30988981260077225,0.7768744243027268,0.20782421105791363,-11.80433361406513,-8.347783688695689,-34.41766241071375
1760516715.6375234,-19.68892583397764,-0.2721357828146758,0.765522142209664,0.21798553537293272,-10.293718771002384,-10.648929977201444,-30.509247199094926
1760516715.6475198,-19.96666182878893,-0.2502999671116407,0.7567653071592128,0.22582648175665412,-8.188511151567209,-11.561127509856906,-26.958333766850146
1760516715.6574807,-20.24045521359518,-0.2453503357362223,0.7506307633124926,0.23084441561422855,-5.5583390047528765,-11.355110716264834,-23.906610936327077
1760516715.6676583,-20.521070498605983,-0.25580958124374925,0.7470391400298819,0.23296763971084586,-2.5356465725891844,-10.33613350678294,-21.45488665222062
1760516715.6777346,-20.816211075726894,-0.27833629419863976,0.7457940634670798,0.23255228131044559,0.7049893323009044,-8.805948691846211,-19.652823994080045
1760516715.687503,-21.129767335583377,-0.30846663470766617,0.7465766672800528,0.23030410240051882,3.9696928153191204,-7.033515085438424,-18.49535814299871
1760516715.6977472,-21.461666295752323,-0.34140527091132994,0.7489496502481594,0.22714755778871928,7.06827393338093,-5.235801089679292,-17.926171316014017
1760516715.7074766,-21.808349093155112,-0.37275342345584267,0.7523734392259134,0.22407131889086396,9.835222064206244,-3.56866398158343,-17.84748798325554
1760516715.7174897,-22.163780569836266,-0.39907933959034236,0.7562359746369621,0.22197571235232716,12.146673228847765,-2.126673683268932,-18.134385916648153
1760516715.7275229,-22.520800852270025,-0.41827298961946735,0.7598977064938727,0.2215387885209762,13.93174008300523,-0.9499293102698299,-18.651063217081347
1760516715.7374914,-22.872583638690866,-0.42966922858295964,0.7627521932661263,0.22311234755454282,15.177243956883869,-0.03543507537163635,-19.266295524673886
1760516715.747473,-23.213964425353048,-0.4339564801957239,0.764297460727558,0.22665934656682485,15.925626591292417,0.6495108014869934,-19.86571039406115
1760516715.757575,-23.542429245881177,-0.43290756391601043,0.7642055310581967,0.231744124879983,16.266552952232633,1.1542497346253582,-20.35933805576245
1760516715.7675524,-23.85860482301128,-0.42898298533569085,0.7623732194060189,0.23758138984991986,16.323434074023904,1.5338913421708262,-20.683935525477146
1760516715.7782555,-24.166165659759905,-0.4248701875027326,0.7589406616556361,0.24313947959047572,16.236777757280052,1.8418320768048182,-20.800621880878296
1760516715.787498,-24.471168287703478,-0.42303163644408354,0.7542732551235929,0.2472823191958366,16.14676980152045,2.126015126414595,-20.68922939527151
1760516715.7975223,-24.78092288897639,-0.42533350498290173,0.7489123338000437,0.24892650219687637,16.177588010550593,2.4284003940354726,-20.34130930235702
1760516715.8074818,-25.102597943892594,-0.4328120434951399,0.7435055340140235,0.2471872528109845,16.425555013404445,2.7863867119264074,-19.75383825175251
1760516715.8174715,-25.44180661448212,-0.4456086269507102,0.7387281052190724,0.2414900125685579,16.952422940238364,3.2345369741652985,-18.925339668118987
1760516715.827561,-25.80143261404662,-0.4630724275375265,0.7352032078033216,0.23163141220022088,17.784040005154008,3.8049977396045556,-17.85540419382396
1760516715.8375235,-26.180913917538177,-0.4839979411962504,0.7334261163587831,0.21778224388407377,18.913612158761424,4.525460528918847,-16.547558656824663
1760516715.8475053,-26.576117053437734,-0.5069382324990759,0.7336971382040836,0.20043445486046058,20.308013731410867,5.414256133227102,-15.014285823945114
1760516715.8576472,-26.979813959569864,-0.530518488953231,0.7360712941248131,0.1803031757616469,21.915359450686488,6.473019599545709,-13.282056948459743
1760516715.867878,-27.382642814303257,-0.5536745975653367,0.7403366245257452,0.15820179207079377,23.672395652123335,7.678127633480388,-11.393864118172127
1760516715.8775413,-27.77433060100284,-0.575762028791273,0.7460331571181625,0.13491189830528166,25.510998049069272,8.972646059135228,-9.40712956429152
1760516715.8875587,-28.144909122916722,-0.5965162020270481,0.7525193083119042,0.11107155917869031,27.36378260867328,10.260737491929294,-7.385944419768808
1760516715.8974612,-28.48567564590342,-0.615883650409582,0.7590842473505228,0.08710616483348978,29.16921774970435,11.406330872741824,-5.3880622832250324
1760516715.9075158,-28.78972039121752,-0.6337722872822626,0.765096502152618,0.0632243697832112,30.876600749044766,12.237376066432365,-3.4485889587320315
1760516715.9175057,-29.051943509802925,-0.6497849462384301,0.7701706550713923,0.039491993227856084,32.45094994264999,12.556300387008926,-1.5635176700197464
1760516715.9275696,-29.268593015851092,-0.6630039719954953,0.7743248957093591,0.01597753014947756,33.877417082881834,12.156489982555263,0.3231445947964141
1760516715.9374819,-29.4364537105754,-0.6718869800451119,0.778095918546106,-0.007059912756666744,35.16438218437502,10.843844523921083,2.325086855800077
1760516715.9478185,-29.551888280523887,-0.6743150856553506,0.7825789767816499,-0.028985961668597113,36.34411220268616,8.46172158471607,4.609554932919111
1760516715.9577065,-29.609963330863955,-0.6678063702238671,0.7893702736076322,-0.04865954407361269,37.469875238837005,4.916885529474767,7.382095160871669
1760516715.967501,-29.603881455392354,-0.6498736157603086,0.8004025352820751,-0.0643981438293113,38.60875507798578,0.20347143376635063,10.860677202763318
1760516715.9774804,-29.52488924290132,-0.6184729070653401,0.8176795966181066,-0.0740710388846762,39.8300936180893,-5.57835072325947,15.241644063828405
1760516715.9875193,-29.362748267479734,-0.5724650224700721,0.8429317968024461,-0.07533550911711412,41.190441768845204,-12.212179250754248,20.66186350701398
1760516715.9975598,-29.106753415249965,-0.5120004454870895,0.8772310283412087,-0.06600711643752855,42.71695734020816,-19.366148656276504,27.16301990540783
1760516716.0074863,-28.74717699433101,-0.4387466071908113,0.9206216742640561,-0.04452178260644021,44.39205542264035,-26.60612088636349,34.66470482672846
1760516716.0174825,-28.276928209880385,-0.3559045103660594,0.9718388790354996,-0.010411731281535155,46.142514084641746,-33.42160081623519,42.95230674629018
1760516716.0276053,-27.693165742309787,-0.2680047342689661,1.0281914420331646,0.03530517778112678,47.83606523816895,-39.26353784609687,51.6834471919728
1760516716.0375369,-26.99859881419626,-0.18051444545977813,1.0856728949381182,0.0899207283622277,49.28778054007968,-43.59197362689829,60.41335008799937
1760516716.0476887,-26.202256898149518,-0.09931120981285768,1.139327117407506,0.1490886772937842,50.277283750654185,-45.93004868439115,68.63611776210955
1760516716.0574808,-25.31958472419122,-0.030083663313379982,1.1838426051346436,0.2071676373831429,50.575965088477304,-45.91920809641095,75.83635756930546
1760516716.067471,-24.371810407836513,0.022281624786054485,1.2142975420019329,0.25784060046976365,49.98114582783538,-43.368984729382824,81.54428744547215
1760516716.0775232,-23.384628905764583,0.05426115065979114,1.226938368023515,0.2949434547820387,48.35206859580886,-38.29414362467252,85.38718844541783
1760516716.0874844,-22.386332261252267,0.06413024522546312,1.2198529313907756,0.31338377675134593,45.64126152116439,-30.93267537743011,87.13059721937053
1760516716.0975566,-21.405593202859144,0.052204934212252176,1.1933983754646194,0.3099952638849023,41.91464282077575,-21.74011988291387,86.7038092616128
1760516716.1074765,-20.46916001625553,0.020839122981499963,1.1502706873524877,0.2841615870049236,37.35497304839511,-11.358613395736187,84.20612303063582
1760516716.117513,-19.59973874343213,-0.02584274829469133,1.0951672664220367,0.23806471405886306,32.24608360268204,-0.562354690820841,79.89282230575964
1760516716.1275878,-18.814315818063832,-0.08245215046369639,1.034091571451706,0.1764737453355209,26.939356791631486,9.8155571525632,74.1429643967897
1760516716.137719,-18.1231090613561,-0.14300529531960623,0.9734463692146685,0.1060844287298362,21.808076794681654,18.967034994533343,67.4140296498255
1760516716.1474688,-17.529238180738957,-0.2016405132420693,0.9191143305561423,0.03452180388100678,17.198087757393633,26.19354640864082,60.19055895334275
1760516716.157469,-17.029098555232302,-0.2532634682306654,0.8757103531489722,-0.030803218835539443,13.38380815867859,30.980154569459415,52.93443662223201
1760516716.1674883,-16.613327814298543,-0.2940232636663645,0.8461223467206409,-0.08376172506729038,10.537104933457089,33.048664114286964,46.04344153356197
1760516716.1775894,-16.26819166347306,-0.32156634226196784,0.8313696354341504,-0.12030182945885638,8.713503763857007,32.382205001629885,39.82257941961677
1760516716.1876156,-15.977190672112451,-0.33506507551323444,0.8307357316580956,-0.13884432414191014,7.856584995189677,29.218030679746537,34.47016069840321
1760516716.1974995,-15.722697484075496,-0.33505885234335897,0.8420954827886762,-0.14024730748726383,7.818052075552176,24.010541670536572,30.078150590008253
1760516716.2074945,-15.487460757347913,-0.32316643163221037,0.8623528539174893,-0.12739859036759604,8.388536522736912,17.371230132638875,26.644383262639437
1760516716.2174754,-15.255848435339306,-0.3017308228554888,0.8879183389120848,-0.10455616219352296,9.33303483426456,9.995248263611307,24.092994127471215
1760516716.2276714,-15.014748570249155,-0.27345256494822584,0.915170014101834,-0.07657909031778733,10.424918151450484,2.585170082422666,22.298903227684065
1760516716.237527,-14.754102833002053,-0.24106079336344563,0.9408541036770119,-0.04818069884404091,11.473481131101561,-4.2185448674888395,21.112320703223922
1760516716.2475207,-14.46710818125095,-0.2070616061743408,0.962390634381686,-0.023309003945983373,12.341707714613221,-9.893203085503732,20.379965760870036
1760516716.2574875,-14.150166644646433,-0.17358523563377043,0.9780614490332274,-0.004727826946292677,12.953002383669924,-14.071293591094975,19.960850627926522
1760516716.2674866,-13.802673408083344,-0.14232839668419345,0.9870737835071318,0.006163185436779493,13.287691375522655,-16.558112540898833,19.735835563447647
1760516716.2775066,-13.426706859740015,-0.11456417562537378,0.9895093184012883,0.009271987432016019,13.371747726083951,-17.330487378667616,19.61142198215957
1760516716.2875164,-13.026638918280915,-0.09117965393593766,0.9861806129455275,0.005564852184728339,13.261138879915707,-16.519401558203555,19.51916961522658
1760516716.2975185,-12.60864807368824,-0.07270713456390435,0.9784232563249426,-0.003299770983769563,13.025334053388688,-14.3805692375521,19.412543891287733
1760516716.3074963,-12.180113437608755,-0.05933513823683764,0.9678559977484429,-0.015366016757339564,12.732944367333603,-11.257555501316034,19.262900392616864
1760516716.3178923,-11.748898967424383,-0.05090874099835235,0.9561433593716547,-0.028726734111399282,12.441441125766001,-7.541931661045667,19.055819036198812
1760516716.3277185,-11.322583839460368,-0.04694144979726057,0.9447929008961532,-0.041772455764725644,12.191696598754897,-3.6343538931585173,18.788328000545118
1760516716.3375008,-10.907727774916546,-0.04665600245856424,0.9350106087388604,-0.053328705235526366,12.006991210234386,0.09040607486866008,18.466934073532418
1760516716.3475394,-10.509260573597311,-0.04905586023241892,0.9276251135619823,-0.0626945931043777,11.895332730065187,3.3123305087388264,18.10597656746134
1760516716.357494,-10.13005890584915,-0.05301613197521193,0.9230785077295927,-0.06961049342733755,11.853536559410786,5.787525207181641,17.725727357070106
1760516716.367493,-9.770740249658562,-0.05737976163455358,0.9214713766083078,-0.0741850941743983,11.871533603373342,7.361285913016341,17.34984363096503
1760516716.3774958,-9.4296790566796,-0.06104973296748753,0.9226437830916874,-0.07680646328906329,11.935748118642639,7.972606801105363,17.002127230363264
1760516716.387523,-9.103236620299958,-0.06307389916667919,0.9262717304886572,-0.07805275932734076,12.030994156657965,7.65047934972889,16.702899406642956
1760516716.3976865,-8.786188336888275,-0.06272108900647345,0.9319585566515607,-0.07860925956187798,12.140985321487435,6.502988733747456,16.4655303626007
1760516716.4075258,-8.47232570936531,-0.05954663165154079,0.9393037934496632,-0.07919208124376821,12.248041677010589,4.700819888190778,16.29371109833202
1760516716.4175088,-8.15520563909611,-0.05344611620970411,0.9479401129046668,-0.08047735689039467,12.332773095546388,2.4571762794979946,16.179943264177957
1760516716.4275181,-7.829013733680091,-0.044696464438530925,0.9575393722258494,-0.08303721983106843,12.374387489100993,0.006180537422300255,16.105515320275142
1760516716.4377992,-7.48949069662059,-0.03397744187319204,0.9677960915632717,-0.08728748114156148,12.351899601111196,-2.418402361227678,16.041993382253256
1760516716.4476144,-7.134833784567843,-0.022355937065051457,0.9783994864279351,-0.09345308317763618,12.246070148477282,-4.602649018815974,15.954023508827468
1760516716.4575622,-6.766441960121279,-0.011211406787637969,0.9890049450725241,-0.10155502578784824,12.04156552677243,-6.369050956413446,15.803043820176034
1760516716.4676247,-6.389352578636939,-0.002092292560918485,0.9992122878930471,-0.11141731055886013,11.7287145686759,-7.589312609412531,15.551377627570536
1760516716.4775293,-6.01223829022206,0.003485605658714163,1.0085516095603475,-0.1226877243795041,11.304376004389992,-8.192664567556303,15.166175428441807
1760516716.4875789,-5.646892624402772,0.004268376640676891,1.016473298531093,-0.13486585957851185,10.77174784040869,-8.169105358211228,14.622801952015687
1760516716.4976134,-5.307217652224068,-0.0005215979359699694,1.0223428697095107,-0.14733617505710553,10.139312270096434,-7.5671791263875505,13.907446424087093
1760516716.5074964,-5.007818937656233,-0.011030944664642888,1.025451757160517,-0.1594091007376292,9.419374238634255,-6.486262748001032,13.018866324330368
1760516716.5175335,-4.76238704535974,-0.02671455237362438,1.025062324373563,-0.17037423542669564,8.62672366971269,-5.0639048062170895,11.96921848127343
1760516716.527572,-4.582081698147612,-0.046381943493952374,1.020500293409475,-0.17956545553462824,7.777811588278341,-3.459443039923662,10.783923137382493
1760516716.5376294,-4.474134755571281,-0.06834295195933081,1.011291155406123,-0.18643191325609984,6.890542240035193,-1.8357526640440864,9.50050649340196
1760516716.5475225,-4.440861937168626,-0.0906303469998932,0.9973170687594791,-0.19060568749217122,5.984474880036333,-0.3413663109929772,8.166417374770667
1760516716.5575066,-4.479223662505993,-0.11126629179631099,0.9789559552776004,-0.19195651886562914,5.081037812452593,0.9047752789340335,6.835922618653671
1760516716.5674856,-4.581003312713123,-0.12853127827806343,0.9571603031174962,-0.19062430273219752,4.203360465935249,1.824084263734877,5.566324180357853
1760516716.5776296,-4.733587591067697,-0.14119257355523626,0.9334407770829416,-0.187020497607281,3.3755015577741814,2.38348496510404,4.413853307398253
1760516716.5876386,-4.9212562841047065,-0.1486570193551215,0.9097366927707319,-0.18179220126037374,2.6210823597208477,2.5947531598625417,3.4296315859112814
1760516716.5976474,-5.126830787929386,-0.1510279951181819,0.8881783808110263,-0.1757479585671612,1.9615062936270844,2.508647899237696,2.6560337162679803
1760516716.60748,-5.333493135998056,-0.14906304829413813,0.870773900089541,-0.1697513276459919,1.4140163260976737,2.2050591982917145,2.1236862936288166
1760516716.617637,-5.526560013659749,-0.14404183269904056,0.8590828650868927,-0.1645964784346645,0.9898445487178744,1.780727900564409,1.8492562935077694
1760516716.6274958,-5.694974772740874,-0.13756252148477405,0.8539632417831611,-0.1608884192800001,0.6926892385227978,1.3361799410782718,1.834148294165845
1760516716.6375453,-5.832282808398291,-0.13129178170625339,0.8554701921279659,-0.15895356021416704,0.5177187437929174,0.9634185272452247,2.0641984988856263
1760516716.6476166,-5.936912124921647,-0.12670040651762274,0.8629353049662183,-0.1587993798187029,0.45123345078263877,0.7356799599823759,2.510370886929219
1760516716.6575184,-6.011698263420213,-0.12482152829513227,0.8751838878298657,-0.16012834797793413,0.47103093714451394,0.7002182933088439,3.1303446967948276
1760516716.6675704,-6.062737266306219,-0.12606771527869054,0.890805021546993,-0.1623995478684604,0.5474571497612509,0.8746769015899026,3.87081028935446
1760516716.6775146,-6.097773531792731,-0.13013639531516435,0.9083947992096615,-0.16492525314539758,0.6451055034175153,1.247158563190454,4.670292978562945
1760516716.6877322,-6.124402648004649,-0.1360219364621426,0.9267275135970362,-0.16698637499448776,0.725117480521192,1.7796668674432248,5.462359445900548
1760516716.69773,-6.1483903676460825,-0.1421400449093292,0.944843809036906,-0.16794818539460363,0.7480009448071872,2.4142517692199963,6.179088445911919
1760516716.7074914,-6.17238793182312,-0.14655754176372016,0.9620667143817173,-0.1673576052847097,0.6767978817519786,3.0810228155194985,6.754703293839745
1760516716.7174935,-6.195270794859644,-0.14730801459711498,0.9779669758262426,-0.16500757272083247,0.48031641990125457,3.707157780872101,7.129268473551183
1760516716.7275057,-6.212246516349451,-0.14275998746686908,0.9923017089735112,-0.1609619291167129,0.13603065550836427,4.226002198956384,7.2523360558167305
1760516716.7375262,-6.215768285591498,-0.13198861399498993,1.0049474513541254,-0.155542823250918,-0.3678065061256903,4.585231436546155,7.086393061151319
1760516716.7475364,-6.197156531803707,-0.115087039081489,1.0158428119533027,-0.1492884658283045,-1.0312516408250683,4.752877857580049,6.609933290351137
1760516716.757644,-6.148685129204933,-0.09334490601763112,1.0249501569560968,-0.14289031544242994,-1.8432067937525403,4.719980778850276,5.819969340057478
1760516716.767653,-6.065756741931997,-0.06922626390658078,1.0322414880845256,-0.13711568753669628,-2.7833676277505073,4.498888194751112,4.7337888352820565
1760516716.7775676,-5.948712221587237,-0.0461044592820805,1.0377095844498483,-0.13271656548236768,-3.8252142693672018,4.116952489058061,3.389706336157132
1760516716.787595,-5.803829657705289,-0.02775847164123162,1.0413995475831388,-0.1303220475551024,-4.939389454425163,3.606510422059249,1.8464624564877379
1760516716.797524,-5.6431878526435275,-0.017694560733471837,1.0434477480224054,-0.13031536453548898,-6.096687728990764,2.9934079602378105,0.18082058071089704
1760516716.8074915,-5.483286051318255,-0.01841398988245232,1.0441078646973552,-0.13270919365878625,-7.27003198798382,2.2874792703500755,-1.5171014905508673
1760516716.8175206,-5.3425888287702366,-0.030785095535509448,1.043743365918692,-0.13704951633353926,-8.435270633300886,1.4787508830370233,-3.151056047883445
1760516716.827519,-5.238439271284504,-0.053678636394362135,1.0427770461386505,-0.14238546396382762,-9.571256871148652,0.5422616217914482,-4.6283353744665785
1760516716.837578,-5.183975798266157,-0.08397835632604585,1.041607559865996,-0.1473311696792204,-10.660185806341063,-0.5478226291099563,-5.8712043880128615
1760516716.847515,-5.185727503942356,-0.11699169955601169,1.040518246839795,-0.150220350398654,-11.689274557695647,-1.7971817442200664,-6.828839208114615
1760516716.8575108,-5.2424240329040535,-0.14718736726503442,1.0396049624798687,-0.14932893277752723,-12.654435862295816,-3.168640560854433,-7.488136782671444
1760516716.8674982,-5.345280399827448,-0.1691118921237415,1.0387391547477982,-0.14312527965623992,-13.565708041854855,-4.564499797281744,-7.881701900022809
1760516716.8775175,-5.479693428676382,-0.17830588954081422,1.0375700388695914,-0.13050354242072404,-14.45319698139188,-5.820075549170297,-8.091578094141441
1760516716.887517,-5.62800176154143,-0.1720505365401304,1.0355627830591025,-0.11096147918694428,-15.371601893752604,-6.712333987598302,-8.247769230230848
1760516716.897524,-5.772772590923711,-0.14981749155563043,1.0320693120482034,-0.0846953991975132,-16.40132420966875,-6.98414672934907,-8.521156185488888
1760516716.9076028,-5.9000114924373515,-0.11336076907618146,1.0264307982074512,-0.05259773422450772,-17.6447043746561,-6.381050418307507,-9.110939558848953
1760516716.9175296,-6.001744478515352,-0.06645928430648511,1.0181093792819644,-0.016157981984709656,-19.216936638881013,-4.694305239176131,-10.22722589412103
1760516716.9275165,-6.077566243522986,-0.014374651802697425,1.006837444735067,0.02271310021648308,-21.232446221740418,-1.8022342635538344,-12.069879150755286
1760516716.9375355,-6.134948313711111,0.036875620271169536,0.9927597558109273,0.0618993571091656,-23.788650229858057,2.298348781312846,-14.805319652400486
1760516716.947537,-6.188321822613816,0.08130877044727187,0.9765336079021047,0.09929419089804932,-26.9497280753609,7.477319317177672,-18.543560915351215
1760516716.9578207,-6.257158068891418,0.11370479434783311,0.9593498179479232,0.13298478824216003,-30.733135211479787,13.476721692571735,-23.31834716468734
1760516716.9676533,-6.363424418431476,0.1301645934587971,0.9428458045091462,0.1613946358887579,-35.1011430652518,19.936223497297583,-29.073552404143893
1760516716.9775164,-6.5288565700586725,0.1284389031208993,0.9289029501092622,0.18338798502266823,-39.95880536775608,26.434142924794095,-35.658680184130766
1760516716.9875255,-6.772451987364951,0.10803000605725059,0.9193484485263506,0.19834225619987597,-45.15862491934614,32.53663321660655,-42.83519872206118
1760516716.9975297,-7.108479675861253,0.07011758629061518,0.9156067978786386,0.2061853522052522,-50.51111131357309,37.846442731347814,-50.29380845349993
1760516717.0075262,-7.545164684815854,0.017375449610002588,0.9183641906504828,0.20738468494792808,-55.79964761442642,42.04355702280081,-57.68105736161166
1760516717.0175157,-8.084086844282215,-0.04628195595884582,0.9273244618341973,0.2028755579268517,-60.79769479544369,44.91255259349925,-64.6323396003625
1760516717.0276828,-8.720257174448507,-0.11603615728855823,0.941142807287887,0.19393119761304142,-65.28628751129175,46.35472368566259,-70.80730710248659
1760516717.0377653,-9.442795084840105,-0.1866214417283915,0.9575975531492001,0.18199565807913337,-69.06997090456974,46.38596540254866,-75.9230805933419
1760516717.0475276,-10.23609691196142,-0.2528943240534579,0.9739840653779342,0.16851211412150935,-71.98975623672409,45.123380211817725,-79.78051526551893
1760516717.0575025,-11.08134484412361,-0.3104230471026027,0.987622241612161,0.1547785107427511,-73.93220741581867,42.76444049262022,-82.27948553107181
1760516717.0675082,-11.958168051295821,-0.35595820081885027,0.9963245809529776,0.14185286078630835,-74.83427999063528,39.56233924971178,-83.42088937336331
1760516717.0775163,-12.846260124354743,-0.3876827558409328,0.9987027172986364,0.13051590103015462,-74.68397302792664,35.800230888640954,-83.29553450869854
1760516717.0875497,-13.726788131205772,-0.4052261220857378,0.9942648849639597,0.12128376134159635,-73.51719947211913,31.766128040994214,-82.06254754279573
1760516717.0976055,-14.583486774025216,-0.40949697788335154,0.9833276438603092,0.11445280351199787,-71.41150232433131,27.72988999293791,-79.92174024001233
1760516717.1075423,-15.403395632772764,-0.4024126979010816,0.9668070195083589,0.11015596205544874,-68.47737880119692,23.923868458355404,-77.08505147026362
1760516717.1175246,-16.177250521319262,-0.38659115074681205,0.9459650779905874,0.10841341969501656,-64.84809706809168,20.52871275803362,-73.75166922575464
1760516717.1275532,-16.899571972250442,-0.3650472573814538,0.922176179889616,0.1091663535244646,-60.668989361901794,17.665236613140504,-70.08999945892168
1760516717.1375465,-17.568505044081228,-0.34091710162114164,0.8967529499002188,0.11228832868037456,-56.08718862941114,15.392350455768078,-66.22787260786289
1760516717.1475587,-18.185462359568806,-0.3172208919607135,0.8708448551519983,0.11757503524991408,-51.242600558328405,13.710276152690911,-62.250847550968736
1760516717.1575365,-18.7546145704048,-0.2966695206187775,0.8453998758709289,0.12472050085690281,-46.260640007187405,12.567792298320187,-58.20742248645696
1760516717.1677558,-19.282263425446047,-0.2815127706236813,0.8211668859726164,0.1332952096274233,-41.24702764182498,11.87210971839021,-54.119280306411476
1760516717.1775947,-19.776123648053197,-0.2734197019836578,0.7987145200904067,0.1427442480160344,-36.28480506597729,11.500097887511453,-49.9942229912759
1760516717.1875207,-20.244533544770764,-0.2733783888799061,0.7784496088272205,0.15241812512900382,-31.433656306587004,11.309913486695507,-45.839199791456835
1760516717.197539,-20.695616170187584,-0.28160892998903597,0.7606298568757732,0.16163676391255133,-26.731536039764013,11.15250314596414,-41.670952953329206
1760516717.2075841,-21.13642866657592,-0.29750166943118117,0.7453751782679685,0.16977423365838637,-22.19843107197751,10.882800547675819,-37.52241075977903
1760516717.2175138,-21.572167884904456,-0.3196144501717976,0.7326856888078782,0.1763444518768326,-17.84178844970414,10.370590232077435,-33.44400935208842
1760516717.2275302,-22.00553646020271,-0.3457728011123443,0.7224713651615717,0.1810695219953997,-13.662767318713232,9.510931173926956,-29.50036190026344
1760516717.237533,-22.436395316450252,-0.37330059548505085,0.7145914271315172,0.1839204033160739,-9.662176696179328,8.233770981304753,-25.763712695956002
1760516717.2475433,-22.861813402121367,-0.3993671945846638,0.7088946040769394,0.185127578312102,-5.844938396113307,6.512044240805141,-22.30607650997932
1760516717.257838,-23.276563114353795,-0.4213914829857027,0.7052488812337098,0.18516196390713952,-2.2221701219701355,4.367268272328748,-19.191799733335362
1760516717.2675188,-23.674014921115134,-0.4374193136205189,0.7035531655210951,0.18468479962069229,1.189619640344192,1.8715583416028951,-16.471706254157834
