timestamp,angle,linear_acceleration_x,linear_acceleration_y,linear_acceleration_z,angular_velocity_x,angular_velocity_y,angular_velocity_z
1760958956.412886,-1.2810015103224073,-0.05114021211614489,0.9659001688797756,-0.16784400365242927,1.4516024657785749,10.12300873536462,14.213345380478783
1760958956.4231057,-1.184114617417247,-0.04389705072053477,0.9638048009821262,-0.17066955492767577,1.2584135594772223,8.937464368676588,14.669408851901148
1760958956.4330394,-1.0698694997731237,-0.03625949732112417,0.9621657428238911,-0.17444966241210463,1.0348852749020245,7.9128277162398675,15.077355998197358
1760958956.4429402,-0.940146810224477,-0.028914437376493705,0.9610022388617474,-0.17855291581625057,0.7814208444565485,7.157567281479498,15.398954711599021
1760958956.4531748,-0.798101241452333,-0.022282017560272552,0.9602636793227041,-0.18228375542903097,0.5050683645625896,6.735458832006487,15.614135023123227
1760958956.4631472,-0.6474000845622699,-0.016494527768110053,0.9598358727538235,-0.18497201864384905,0.2172659192155487,6.66504826130757,15.721357619571178
1760958956.4731123,-0.4915132767226545,-0.01142404281235687,0.9595614557960856,-0.1860636470753578,-0.06883093792934569,6.924786756731965,15.735757619424634
1760958956.4830663,-0.33315225257433667,-0.006754946964395308,0.9592713327735904,-0.1852015622956711,-0.34101933419317115,7.462651006258964,15.685577557899801
1760958956.4930463,-0.1739271164069037,-0.0020897737616842904,0.9588188752575479,-0.18228768824941133,-0.5903467483254542,8.20858561161353,15.60751786278943
1760958956.5031407,-0.014253576148291383,0.002929428446799541,0.9581070401080845,-0.17751968528740825,-0.8127543594223211,9.087848577229746,15.541645452463342
1760958956.513076,0.14649927308105323,0.008504794791107799,0.9571015333386119,-0.17139843796187898,-1.0098945023951116,10.033319226833985,15.526434618059684
1760958956.5230618,0.3096643959113211,0.014591193497616738,0.955828353971522,-0.16470451909404965,-1.1890707999313082,10.995037033474745,15.594398707096722
1760958956.5330067,0.4768053615156372,0.020846099018097364,0.9543586334832675,-0.1584434453577777,-1.3623639968237768,11.945653282564088,15.768633664883332
1760958956.543067,0.649202411296928,0.026632169768341835,0.9527864010014778,-0.15376064675060408,-1.54509718464159,12.881053354293545,16.060457492406986
1760958956.5531032,0.827382822651341,0.031077186055236638,0.9512059565466745,-0.15182874606655675,-1.7538511303026934,13.816091943523539,16.468210093644124
1760958956.5629885,1.0107724952790844,0.033187959627350654,0.9496955476416317,-0.15371307067421255,-2.0042683151002336,14.776101807535058,16.977186829281703
1760958956.572987,1.1975252988593357,0.032006314749356536,0.9483133970787341,-0.16022617942269088,-2.3088945456767034,15.785495465464738,17.560621798268894
1760958956.5829978,1.3845595286361805,0.02678769471248151,0.9471105975476303,-0.17178720935080966,-2.675304601096335,16.8552869329663,18.18161223871783
1760958956.5930245,1.5678020292595498,0.017177838615959527,0.946162500713955,-0.18830546578475887,-3.1047365198489323,17.971640152221198,18.795871751181657
1760958956.603023,1.7426147453764522,0.0033608851637915507,0.9456160214992949,-0.20910916046969585,-3.5914084346037587,19.087550671593846,19.35519666277462
1760958956.613098,1.9043582325754986,-0.013846878267689777,0.945745276729022,-0.23293930982548414,-4.122614987081174,20.11947723536801,19.81150875402372
1760958956.6230671,2.0490329357458896,-0.03297954782927248,0.9470029064268949,-0.258024675251224,-4.67961548230868,20.95019238803064,20.12129224232292
1760958956.6329746,2.17393101131171,-0.051995576875479434,0.9500506261874897,-0.28224490767373306,-5.239252271656347,21.43836698268645,20.250172863199314
1760958956.6429837,2.2782267218410444,-0.06844883820160375,0.9557518126025357,-0.3033749961414014,-5.776176870367885,21.434498036702603,20.177289641961114
1760958956.653163,2.3634302616690617,-0.07974938043038128,0.9651117779597577,-0.31938413552545203,-6.265493246682825,20.80180853322146,19.898987254294017
1760958956.6631072,2.433629865119518,-0.08348885939253878,0.9791565047139891,-0.3287360685689855,-6.685528100420174,19.439803344720392,19.431224250951495
1760958956.6730058,2.4954548590099654,-0.07778609570233426,0.9987477310023261,-0.3306142112586615,-7.020320077008619,17.307395213565837,18.809982985965302
1760958956.6830971,2.5577126253624436,-0.06159605542375152,1.0243450122524753,-0.3249976558723736,-7.26138144560469,14.442065493782266,18.08894725002396
1760958956.6930068,2.630686407278451,-0.034929938783221565,1.0557459722332905,-0.31256223104667535,-7.408457108316428,10.971531010383275,17.333886539099993
1760958956.7030354,2.7251255619042425,0.0010481021098391488,1.0918565293371891,-0.2944516921028668,-7.469380839173364,7.114937954767174,16.613624966455284
1760958956.7130117,2.851009652408109,0.04406364512310676,1.1305497615132583,-0.27200718100687127,-7.459500396059066,3.17171423006306,15.988131865280284
1760958956.7231255,3.016213457992197,0.09091642163743921,1.1686607662317363,-0.24653607374492512,-7.401281389547031,-0.5021717957705651,15.494989387271113
1760958956.733045,3.2252285029250665,0.13779366741361143,1.2021430813122325,-0.21916616878269368,-7.324544667523578,-3.5288341842170103,15.13609063939487
1760958956.7430422,3.4780986454192493,0.1806791804793299,1.2263885984834115,-0.19079643077625605,-7.267438677952788,-5.550246119773949,14.866777555800068
1760958956.7531912,3.7697055840444156,0.21580541339765374,1.2366904629130904,-0.16213125448728088,-7.2778236642366965,-6.271779977687539,14.589680100170488
1760958956.763085,4.0895078499924935,0.24008633566843116,1.2288073910557065,-0.13377020810779872,-7.414351195138815,-5.501231204637303,14.155247773365044
1760958956.7731638,4.4218054383934025,0.2514729100213313,1.1995686729854746,-0.10631709716190284,-7.7462468236233155,-3.1772179222243686,13.370380500338902
1760958956.783186,4.746572614915622,0.24918884855496876,1.1474439654624695,-0.0804696289305138,-8.350716975822678,0.6178904912486146,12.015681949642046
1760958956.793205,5.04086217843521,0.23382497539174868,1.072995460226856,-0.057054454789251995,-9.307068828048239,5.663218297149817,9.870649368981228
1760958956.8032308,5.280716481429278,0.20728572795750974,0.97913757124242,-0.03698399168612351,-10.687153898215001,11.622789247412662,6.744549861690456
1760958956.8129866,5.4434143719211745,0.17258623256532862,0.8711505663802694,-0.02113145085699257,-12.54273120199195,18.084154888103132,2.5089521226441693
1760958956.8233469,5.509764386103523,0.1335028725748366,0.7564187664022065,-0.010145539804012466,-14.891718392207467,24.60664880264099,-2.873604046327298
1760958956.8331227,5.466082079205447,0.09409919260842647,0.6438793424390507,-0.004251295077341385,-17.706576725498206,30.77190524253189,-9.330707655739587
1760958956.8431776,5.305512540254792,0.05818183982430169,0.5431803775282724,-0.0031017719178378857,-20.908448965699417,36.228958305145746,-16.675584485716083
1760958956.8530931,5.028478898262227,0.028771767670095347,0.4635830273336701,-0.005745990769527633,-24.369533900143562,40.72748317232015,-24.61894204895518
1760958956.863089,4.642215534059588,0.007689150574312022,0.4127237367625918,-0.010750518310117418,-27.923782528698123,44.13515052179102,-32.795836449315466
1760958956.8730907,4.159530073320495,-0.004660344694470916,0.3954581675751904,-0.01645679617142423,-31.38352026886315,46.43794004379072,-40.80346817937484
1760958956.8831224,3.5970784240550735,-0.009247049535213334,0.4130660029463374,-0.021297392936618066,-34.55833727127481,47.72491836755177,-48.244106905295496
1760958956.8929362,2.9734885765989403,-0.008132674727339521,0.46303580226119123,-0.024068088976652968,-37.27290674947905,48.160995887141326,-54.76682523613273
1760958956.9030006,2.3076248417995444,-0.004004937911698898,0.5394860031327197,-0.024079024970619787,-39.381563075785856,47.952423899467604,-60.10221688232542
1760958956.9130735,1.6171842468426008,0.0003636801742926984,0.6341025118716707,-0.021168782500612278,-40.77855932261777,47.31034890107167,-64.08556389904925
1760958956.9231007,0.9177130714185311,0.0026191445514058354,0.7373635298881599,-0.01561862699185102,-41.40354770230814,46.41765285126259,-66.6658081904452
1760958956.9332178,0.2220510285555928,0.0011955915070131732,0.8397991748757757,-0.008022405578767534,-41.2421376727467,45.40357962616561,-67.8999469249653
1760958956.9429471,-0.45984522729885674,-0.004506734712813076,0.9330795426707262,0.0008457242174889933,-40.321705455143956,44.329348042775976,-67.93476964558855
1760958956.9532473,-1.120783642820694,-0.014148125537894515,1.0108053214008221,0.010147399668748246,-38.7031936062048,43.18624599731889,-66.97975238571752
1760958956.9632964,-1.7560261612310517,-0.026651003963705247,1.068952899589242,0.01907880771976561,-36.47042153488212,41.9057908819209,-65.27602833523656
1760958956.9730332,-2.362890358169951,-0.0405170572539498,1.105980353560266,0.02695618589079548,-33.7190730628357,40.37965340545158,-63.06645816624113
1760958956.9830034,-2.9403540590296764,-0.05418779303810057,1.1226328467081712,0.03328749579559106,-30.547584755445687,38.48545750043361,-60.570971751539105
1760958956.993054,-3.488727838956519,-0.06638009845393512,1.121508700348567,0.03781883233906381,-27.05145370488331,36.11361166796065,-57.969843726036714
1760958957.0029776,-4.009426533492498,-0.07634309407396724,1.1064694283039853,0.04053611937290544,-23.32129888217356,33.19027008787684,-55.395854024606145
1760958957.0130854,-4.504834513701851,-0.08400036966146289,1.081992216992183,0.04161134272584991,-19.44389913358493,29.692470282751756,-52.934783604812225
1760958957.023045,-4.978227229215959,-0.08995806710564742,1.0525590883657125,0.04130956482547671,-15.504805799288581,25.653274340636518,-50.63258889240973
1760958957.033171,-5.433691041284614,-0.09537632037004844,1.022152719179017,0.03989781083500576,-11.59102837440274,21.156882710664654,-48.50684973497482
1760958957.0433419,-5.875981337375708,-0.10172383217946676,0.9938985458300902,0.03759586563943644,-7.792517141662382,16.325610868771285,-46.55962701402092
1760958957.0531182,-6.31027789329894,-0.11046326072167295,0.9698700428408327,0.03457907898204599,-4.201528818348366,11.301889643308593,-44.78877415834975
1760958957.0630465,-6.74183038757764,-0.12273810194774373,0.9510590363053593,0.03100781377119873,-0.909410272364111,6.228907698088848,-43.19522829335846
1760958957.0730562,-7.1755209732258205,-0.13913137314519677,0.9374950291767037,0.02704877726448657,1.999067581438751,1.2332415024144756,-41.78496355703368
1760958957.0830495,-7.615391608577243,-0.15953777302702685,0.9284737526883785,0.022875549995088486,4.452967782421194,-3.5879394439909946,-40.56586541655157
1760958957.0931742,-8.064191276846577,-0.18315492076320067,0.9228382029610401,0.018660602225236182,6.402587779463677,-8.173496153923644,-39.54122220974363
1760958957.1031265,-8.523001401417917,-0.20857886309630863,0.9192570544040871,0.014574438170421564,7.8254078282723984,-12.49826210587261,-38.70234599376052
1760958957.1132016,-8.991001345442251,-0.23398495095424784,0.9164617316209839,0.010795161883090133,8.729314980187883,-16.566859800166842,-38.02290715291255
1760958957.1230767,-9.465434131876885,-0.2573733644641211,0.9134222456795136,0.007521053316329885,9.152380694658357,-20.402823010239047,-37.45705008766508
1760958957.1331778,-9.94181507547024,-0.27684999768244295,0.9094550565006935,0.0049758546003430045,9.15905479471993,-24.03500065304101,-36.942445615574464
1760958957.1431637,-10.414388235537222,-0.2909011307729194,0.904263505789873,0.0033985875004535577,8.833223286521573,-27.483439589818413,-36.40828094162135
1760958957.1530485,-10.876785796760279,-0.29861483666850425,0.8979171624007268,0.003014616058002342,8.269153889593088,-30.74693680566707,-35.78696840406085
1760958957.1634455,-11.322802138109186,-0.29981159790034984,0.8907836893849411,0.0039924479988879,7.5618017290952055,-33.7942642521883,-35.0273404174269
1760958957.1733613,-11.747173933340608,-0.2950690775264202,0.8834332395355239,0.006399871446023525,6.798062573319478,-36.56066656833351,-34.10660439661829
1760958957.1831465,-12.146264384300139,-0.2856506945029613,0.8765358376433926,0.0101778341879448,6.050220552463135,-38.95056976129263,-33.03855492569343
1760958957.1929743,-12.518575954359349,-0.27336398560044994,0.8707653888901804,0.015145738624251498,5.372154695125617,-40.846552396082146,-31.876412126679515
1760958957.2030265,-12.865049616230568,-0.26037853553160323,0.8667148640643955,0.021039124916917694,4.798147441271807,-42.12366998596517,-30.70984987094387
1760958957.213106,-13.189139312103459,-0.24902674875563577,0.8648219902810514,0.027567560249543013,4.34366276556319,-42.66740819924515,-29.656884645031322
1760958957.2230802,-13.49667170955066,-0.24159944151129678,0.8653048490883732,0.03447325634009154,4.007338087254268,-42.39303874283065,-28.852009684733552
1760958957.233201,-13.795511634560379,-0.24013865015973077,0.868110111538667,0.041570904076386576,3.773608433921965,-41.263997971963335,-28.432173381003782
1760958957.2430964,-14.095055184374576,-0.24622712495190036,0.8728812523984347,0.0487550625282614,3.615722103401457,-39.30703724870775,-28.52200929181459
1760958957.2531593,-14.40557006951141,-0.2607783463964366,0.8789575706739269,0.05597112199764556,3.4992407706886075,-36.62220772381611,-29.21934883800172
1760958957.263101,-14.737401088359185,-0.2838400373399272,0.88541430854585,0.06315661449434243,3.3862720964822306,-33.38614763634952,-30.581720502882074
1760958957.2732584,-15.10006281652093,-0.31443595790790446,0.891149397855403,0.07016861663544732,3.2405883933034607,-29.84757510686638,-32.61442063602104
1760958957.2836187,-15.501256254579856,-0.3504831091468161,0.8950158210585515,0.07671840673846447,3.0335096106110333,-26.314340461419537,-35.260895803784976
1760958957.2929595,-15.945872716313561,-0.3888285142079821,0.8959909080812324,0.08233516342856663,2.750095461798756,-23.131906836947735,-38.396556883319654
1760958957.303297,-16.435081285660058,-0.4254425467453633,0.8933627907258559,0.08637490763707978,2.3948814906415743,-20.653815117594608,-41.82755233922202
1760958957.312938,-16.965623324572114,-0.4557793902450528,0.8869001354495546,0.08807936559120481,1.9961604568190443,-19.205668198966904,-45.296150215097235
1760958957.3231516,-17.52944447780727,-0.4752765145335124,0.8769625997744502,0.08667635637357385,1.6077454399709274,-19.045460342321302,-48.49395280359095
1760958957.3331773,-18.113773414065843,-0.47993110642899184,0.8645168904560535,0.08150511179586359,1.3073599558889297,-20.32450984654209,-51.08316951665764
1760958957.343242,-18.701710447454634,-0.46687597609267717,0.8510463818441817,0.07214928301484425,1.1912676055488147,-23.054460040719867,-52.72485027455426
1760958957.3526886,-19.273329402702075,-0.43487899188703216,0.8383665652110305,0.05856374553338607,1.3652912694994053,-27.086307540419362,-53.111690809508225
1760958957.3636296,-19.807232699184564,-0.3846955892141414,0.8283700886781452,0.04118209115136961,1.9327910545062805,-32.106742415497195,-52.002016054996886
1760958957.37315,-20.282436490143542,-0.3192062304110381,0.8227247479335005,0.020985792344999945,2.9805053262512127,-37.65504346029519,-49.25090004035819
1760958957.3831515,-20.680402328782765,-0.24328060474120547,0.8225500708958476,-0.000492439151867366,4.563646142200543,-43.160627845680246,-44.83409944573113
1760958957.3930988,-20.986983494064283,-0.16334634093491615,0.8281150882756868,-0.021257734074498862,6.6924014117173,-47.99782471089523,-38.86071932754302
1760958957.4033592,-21.19403332764922,-0.08670230903968999,0.83862439508022,-0.039042873057634174,9.322713958708254,-51.55138412356541,-31.571595832984254
1760958957.4131975,-21.300441989209897,-0.020678271608561005,0.8521683185042965,-0.05157746382820823,12.354194813361927,-53.28427875494608,-23.322346788861935
1760958957.4232168,-21.312427903857156,0.028225865563013788,0.8658903806314932,-0.05689068068478654,15.636785367197632,-52.798799456613914,-14.55243892904553
1760958957.4331274,-21.24300107630496,0.05509314657157786,0.8763804483020061,-0.05359540738781996,18.985559564755427,-49.88283315586416,-5.743716615996783
1760958957.4431589,-21.110623106245875,0.057136503558757185,0.8802567615564204,-0.041113793480797266,22.200810558096467,-44.53540592841634,2.6267848660920587
1760958957.4531507,-20.937199644955662,0.033981079733063115,0.8748658773803205,-0.019823891210738208,25.08934748786736,-36.968754411147984,10.134206635852328
1760958957.4631166,-20.745642450659286,-0.012336315147038604,0.8590022667301028,0.008880279823603334,27.48323718936015,-27.58779894613181,16.447682356890443
1760958957.4731705,-20.557314156628518,-0.07763627550826294,0.8335195046824313,0.04262556298334352,29.253736756342963,-16.951133608978097,21.361251980047875
1760958957.483201,-20.389700409630667,-0.1560969366125824,0.8016682753048429,0.07821896644262978,30.319925422537224,-5.719735271194332,24.809652031316777
1760958957.493231,-20.254628932248945,-0.24092904069689752,0.7689733120481824,0.11196616653733565,30.652601812694293,5.399828244754109,26.866627449739294
1760958957.5029197,-20.157276259913697,-0.32514967657102734,0.7425172031877417,0.14016326985556388,30.27405020737373,15.711627243157908,27.72575030530103
1760958957.5130358,-20.09608465434935,-0.40235605936267294,0.7296832376217869,0.15970196068474737,29.253746898221628,24.581427518937524,27.666202361146464
1760958957.522994,-20.063571529868575,-0.46738313334237064,0.7366438214466364,0.16863784310485858,27.699755663780657,31.479566842934542,27.008258448331713
1760958957.5331564,-20.04787171480414,-0.5167312424265053,0.766997138068356,0.16654084630709806,25.746011087744023,36.01398616090041,26.064988769984875
1760958957.5431528,-20.034734101564336,-0.5486879272189287,0.8208821215541388,0.15451403987311688,23.53688145226612,37.95270602061129,25.097685406008814
1760958957.5531218,-20.00962526735696,-0.5631399540089439,0.8947307740920443,0.13488789144269553,21.211722435517306,37.2356244769216,24.282429616016472
1760958957.5632625,-19.959591198558496,-0.5611535380365372,0.9816668168245393,0.11069310409322165,18.892826525137355,33.97581000012762,23.693831820058637
1760958957.5730996,-19.874594883724672,-0.5444595637184965,1.0724670274473376,0.0850537633386551,16.679788296357913,28.450609182422657,23.309255066497666
1760958957.5831032,-19.748166799326224,-0.5149959057272328,1.156936850108736,0.06063850582307389,14.651708428333029,21.083038733534973,23.033010549783
1760958957.5931013,-19.577352248656783,-0.4746278325615231,1.2254861269727875,0.039277683576105844,12.876055746140493,12.414187819493435,22.735670980177925
1760958957.6033142,-19.362083593572837,-0.4250984432038279,1.2706314327092554,0.02180451265997251,11.420214721970488,3.0677532629114816,22.29979217256488
1760958957.6131725,-19.10421373638989,-0.36817319510268326,1.2881341817540777,0.008118713653661255,10.3600934320924,-6.29167087429804,21.66128156653126
1760958957.6233423,-18.806492632303872,-0.30586886057189133,1.2775428510073275,-0.0025803825488900744,9.780703663491161,-15.004407673519916,20.83645254531398
1760958957.6329598,-18.471740282533045,-0.2406330615381617,1.2420470550571332,-0.011474726159801687,9.766356938443877,-22.462982302546585,19.928476883293676
1760958957.6429505,-18.10237950274093,-0.17537640854332895,1.1877284838422633,-0.01980957584831194,10.381988755438677,-28.157759466370358,19.112289206035495
1760958957.653369,-17.7003729849541,-0.11333029495816285,1.1224351702263702,-0.02864361379687076,11.650602432832175,-31.71732050707524,18.60220251588895
1760958957.6634228,-17.267502937689766,-0.057770896375100377,1.054553548374823,-0.03870249617146486,13.533599426706214,-32.93960153390296,18.610050054551714
1760958957.6731205,-16.805865862348057,-0.011687715111446496,0.9919059363054991,-0.05034107233853197,15.92022704045167,-31.809931134034777,19.302893897174375
1760958957.6830375,-16.318433292570848,0.02252335318899704,0.9409051346108397,-0.06359476585300491,18.629863979628546,-28.503046950507464,20.76842348342409
1760958957.6929908,-15.809539333626628,0.04328732117923842,0.9060045564821995,-0.07828134874014396,21.427470799690532,-23.36791922661355,22.99382777507618
1760958957.7033322,-15.285184992379447,0.04997500474247463,0.8894225132738137,-0.09410484086407699,24.04948512408524,-16.896355334991704,25.860964249896035
1760958957.71338,-14.753090260303603,0.042926309096046646,0.8910989774492363,-0.11071858203245029,26.235508154782945,-9.678370486742057,29.15770064713182
1760958957.723424,-14.2224715139995,0.02338390361650185,0.9088499021641757,-0.12772473447079427,27.760476751410188,-2.3487809202350354,32.60282307790307
1760958957.733034,-13.703565266947198,-0.006646156631097597,0.9386999178077045,-0.1446175838886496,28.462434970488115,4.469764093768512,35.880171393386554
1760958957.743176,-13.206951339233395,-0.04458692919988384,0.9753858122394403,-0.1607087545606438,28.262141089279215,10.221956680952472,38.67677323471393
1760958957.7531643,-12.742747192261836,-0.08751276009019471,1.0130209834459674,-0.17509118275235303,27.172173940927937,14.468109425384574,40.71964179376058
1760958957.7634897,-12.319755941448507,-0.13237599919792534,1.0458862001397864,-0.18669432581075596,25.2946497097882,16.920950897457452,41.80646655794925
1760958957.7730744,-11.94466021000735,-0.17621678833577312,1.0692632973281277,-0.19445244543154966,22.808015408564778,17.467206326733958,41.826547899222845
1760958957.7830591,-11.621363288362868,-0.21634478520883688,1.0801696125175617,-0.1975575465110928,19.944639627513787,16.17158106682855,40.76985803160339
1760958957.7930741,-11.350580830380096,-0.2504938455252555,1.077814200329264,-0.1957170617561023,16.962061176920276,13.262596194001638,38.72383622880388
1760958957.8030884,-11.129769510964211,-0.27695506810777615,1.0636267528352898,-0.189315365945089,14.111683718342537,9.101811769270267,35.85919278419903
1760958957.8134365,-10.953435193092377,-0.2946846739586808,1.0408256656894386,-0.1794117367353134,11.609232398030947,4.139983863843116,32.40738927690391
1760958957.8229814,-10.813793849522467,-0.30336890463622135,1.0136430808249823,-0.1675772169376694,9.611239930440936,-1.134670180678666,28.63342842382654
1760958957.8330436,-10.701681106702384,-0.30342399020188116,0.9864248364615945,-0.15562925701942523,8.201102169881933,-6.249937931870651,24.807985254954268
1760958957.8431377,-10.607548216381325,-0.2959196271202852,0.9628313873440784,-0.14533871658123568,7.386781634683629,-10.798517254155513,21.182620701729626
1760958957.8532016,-10.522364047968336,-0.28242846494363205,0.9453057665149021,-0.13817160656199898,7.1101139302428225,-14.476854660707627,17.970854591880023
1760958957.863525,-10.438267063344417,-0.2648127587993987,0.9348817037695575,-0.13510797875710195,7.265292445875738,-17.109928232921717,15.336476640079717
1760958957.873338,-10.34886852530251,-0.24496681664646214,0.9313038559873038,-0.13655800624698974,7.722215829915199,-18.659868462631362,13.389021622995358
1760958957.8830998,-10.249185453470398,-0.2245474325332655,0.9333559321729021,-0.1423712200017821,8.3496892389073,-19.218214107735992,12.185177587447939
1760958957.8929403,-10.135263878489535,-0.20473974903787012,0.9392707991807758,-0.15191627544849012,9.034172729901256,-18.983349896793445,11.734233407390905
1760958957.9032006,-10.00362152804044,-0.18610955611747454,0.9471228027264371,-0.1642032278905776,9.691441583503346,-18.2262117407596,12.005537367157572
1760958957.9133186,-9.850677073027692,-0.16857754882447057,0.9551438074121968,-0.1780261031050192,10.27044953493601,-17.24860949028832,12.936240244870481
1760958957.9231641,-9.672330818036587,-0.15152225849689793,0.9619383194603184,-0.1921111128392125,10.7502915028677,-16.33938496904072,14.438175443928424
1760958957.9331837,-9.463821622648306,-0.13398878858701982,0.9665957871710379,-0.2052585952121293,11.132196083620544,-15.733939050912706,16.403412820520753
1760958957.943234,-9.219920399931025,-0.1149599345474024,0.9687117528066987,-0.21646560544028176,11.428951160032234,-15.582295338548946,18.708657467559245
1760958957.9530687,-8.935449449915478,-0.0936378177606926,0.968336285170319,-0.2250159339109346,11.654189539791616,-15.929786472246327,21.21911876415191
1760958957.9631543,-8.606053902631054,-0.06968623917363016,0.9658716184863699,-0.23052830167930569,11.813626906153953,-16.712759526186844,23.79265611450853
1760958957.9733703,-8.229105569542181,-0.043393466712018505,0.9619434688301378,-0.2329605125886295,11.899722047850156,-17.76962626939813,26.28489053608058
1760958957.9833925,-7.8045937977189315,-0.015728896222885255,0.9572707715400477,-0.23257414549472313,11.890422606764414,-18.865441142080318,28.555610661078266
1760958957.9932365,-7.335852555881415,0.011717121806497628,0.952554048104227,-0.22986872573318662,11.75181270990868,-19.726330709170497,30.476319478898173
1760958958.003174,-6.829987730430294,0.03690369837597954,0.9483936128128893,-0.22549628587359374,11.443741805422453,-20.078842214934724,31.938307124701613
1760958958.013241,-6.297902331933286,0.057596495208980684,0.9452389041258507,-0.22016797172502453,10.927015902896269,-19.68879887752954,32.86031080874565
1760958958.0231693,-5.753865245421489,0.07167517104598894,0.9433630749427768,-0.21456446282678707,10.170565394326918,-18.394546913931354,33.194713586242734
1760958958.033231,-5.214624191676137,0.07744865027503216,0.9428545268451036,-0.20926120423289946,9.15719409599772,-16.130435607945056,32.93137333492159
1760958958.0431929,-4.698120879135734,0.07393398237611895,0.943619572967053,-0.20467748714017095,7.886999159454991,-12.937793326790693,32.098518722275266
1760958958.053516,-4.2219239073087165,0.06105522364852564,0.9453961001653158,-0.2010551142291001,6.378189117706774,-8.962320295973011,30.760580346202655
1760958958.0631797,-3.8015481444601895,0.039724707201002,0.9477826104244429,-0.19846749821754386,4.6656288674821615,-4.438503333123451,29.013210542176246
1760958958.0732596,-3.4488670283023257,0.011785025583862371,0.950285980789085,-0.19685412541932878,2.7978190831604426,0.33679882240788406,26.976005103936274
1760958958.0832663,-3.170833328434665,-0.020185518065964275,0.9523850712045977,-0.1960706398362255,0.833072243596931,5.0381789656624285,24.78357258132236
1760958958.0931225,-2.96869631548274,-0.05317637989927088,0.9536010088040672,-0.19594368214870234,-1.1645654382713928,9.348599748897454,22.575654818906457
1760958958.1031263,-2.837840059772808,-0.08411128134132412,0.9535627964332446,-0.1963216081191488,-3.1293927082435307,12.994695687003514,20.487033320414895
1760958958.1133478,-2.768279218352833,-0.11022275410969103,0.9520589371643869,-0.19711433640376008,-4.998066612742637,15.775962771950095,18.637967564054243
1760958958.1231656,-2.7457528974433285,-0.12938031341266867,0.9490697326150476,-0.1983156420330453,-6.713482142790157,17.584194312517425,17.125892060888987
1760958958.1331778,-2.7532733304331267,-0.14032749347265278,0.9447785895881643,-0.2000005430024567,-8.2283255277129,18.41090529054183,16.019036520149132
1760958958.1431985,-2.772927531219561,-0.1427985554439483,0.9395631386966188,-0.2022931953057104,-9.508014407201303,18.342179341055107,15.35251326809573
1760958958.153089,-2.7877006267806186,-0.13750253407800303,0.9339684698853585,-0.20530910337280703,-10.532770303580913,17.542080036676357,15.127230111282605
1760958958.163243,-2.783088254564518,-0.12597787186914064,0.9286656897243161,-0.20908537368663582,-11.29868362373312,16.227209841663733,15.311741612765307
1760958958.1733015,-2.748293398903551,-0.11033618315315089,0.9243994249512144,-0.21351742663962203,-11.81772174507902,14.636014372127105,15.846861044154368
1760958958.1834073,-2.6768632550460003,-0.09292987026084064,0.9219281191195839,-0.21831825979419614,-12.116667073456016,12.99697481754876,16.652541980717398
1760958958.1932597,-2.566710886485299,-0.07599282156573058,0.9219613144983639,-0.22301070943704776,-12.235023665923174,11.499892546368727,17.636248346645896
1760958958.2032373,-2.4195689911639167,-0.06131041324421489,0.925098480108142,-0.2269575466981414,-12.222053030989217,10.27402222893159,18.70183731537664
1760958958.2130604,-2.240014541205568,-0.04997000863961137,0.9317740066805315,-0.22942893968657163,-12.133241194104603,9.375863235393997,19.7579542998591
1760958958.223457,-2.0342618242810255,-0.0422272217965747,0.9422125890653159,-0.22970095282165484,-12.026545222327185,8.788070916899441,20.725101847102895
1760958958.2329876,-1.8089381741619,-0.0375019912005483,0.9563981219568854,-0.2271725096966672,-11.95866351913683,8.42939598607259,21.540828844470273
1760958958.2431636,-1.5700334964419285,-0.03449701486021123,0.9740570169583438,-0.22148231040732436,-11.981388847180854,8.174046866903476,22.16279127072978
1760958958.2532287,-1.3221598553195884,-0.031412053088082446,0.9946541597137153,-0.21260148613931257,-12.137963023263168,7.877615128305211,22.56969460150319
1760958958.263203,-1.068183823884783,-0.026214001786206514,1.0173990948024272,-0.20087371326904385,-12.459344601265837,7.405863418389311,22.76032341561148
1760958958.2736247,-0.809218705151605,-0.016918193949878257,1.04126374023868,-0.18697824070168292,-12.960445631284223,6.662337198458188,22.750992874895367
1760958958.2835324,-0.5449022015544759,-0.0018421766593450292,1.0650198770813322,-0.17180844789527694,-13.636655739430319,5.610937145024436,22.571804102432733
1760958958.293503,-0.2738488721554547,0.020194160086467385,1.0873099635758094,-0.15628413834022117,-14.461260499527645,4.2902208547676866,22.2620281621959
1760958958.3032455,0.005838422805344598,0.04973359224605484,1.1067634054538482,-0.14113652471228946,-15.384553062642933,2.8172149197567404,21.864790656862162
1760958958.3131893,0.29608725872636726,0.08660940901241478,1.1221612773648164,-0.12671327688897738,-16.33543957377471,1.3798429359544886,21.421056284383635
1760958958.3231895,0.598442954780688,0.1299230923780077,1.132638594808457,-0.11284910171506933,-17.226126420802874,0.21860382935005165,20.962836550109483
1760958958.3332694,0.9137075794017303,0.17805557749280168,1.1378971828433875,-0.09883711490296027,-17.960096103829063,-0.40032444116373916,20.505660359665804
1760958958.3434486,1.2415805985864234,0.22870391165755374,1.1383853975484275,-0.08351670024239788,-18.443122386819823,-0.2170879094477431,20.04069280342065
1760958958.353372,1.5802574580650623,0.27895177012318007,1.135388249238915,-0.06546821424172486,-18.59662252600278,0.9889788188801114,19.527418341999766
1760958958.3635552,1.9259846366505546,0.32539824868643585,1.1309714400139654,-0.043283434515907174,-18.372171742477754,3.369947199646092,18.888376952489214
1760958958.3734107,2.272628372428296,0.3643756445913824,1.127741032154537,-0.0158691843829964,-17.76542417428293,6.987044892947885,18.007836908802958
1760958958.3832772,2.611366782822073,0.39227738094159137,1.1284159574272392,0.0172622309476845,-16.827013378672415,11.798149275804935,16.736301528941663
1760958958.3931506,2.9306419584364742,0.4059870599955836,1.1352587688100246,0.0557624829173539,-15.667468501669665,17.656328482453024,14.902250796705824
1760958958.4031806,3.216495319876123,0.4033513664737854,1.1494637422794813,0.09832026825301128,-14.453138903114942,24.3194937751685,12.331442166394172
1760958958.413209,3.4533506084196133,0.3835923839838979,1.1706476360384985,0.14267350542497095,-13.390941967265379,31.470072046204557,8.87244315013637
1760958958.4232402,3.6252131373609733,0.347541308488693,1.1966064861982115,0.18578287454690867,-12.701671299559894,38.74250789235003,4.4250721987948385
1760958958.4330544,3.717148103102846,0.2976168737068485,1.2234713049291865,0.22417006671684475,-12.584472138555252,45.7554826231633,-1.0332943511196928
1760958958.4432023,3.7168226860987517,0.23755038148919014,1.2463116795079785,0.25439699997836274,-13.178167967069705,52.145286722910114,-7.429169782570572
1760958958.4531853,3.6158736964023035,0.1719270193023782,1.260112760379342,0.2736248989690518,-14.527260724160838,57.59692419400374,-14.586702140609686
1760958958.4631705,3.410894735598324,0.10563707484453821,1.2609105909318237,0.28014922853412494,-16.560650227550457,61.8699742825722,-22.235843456700394
1760958958.4731326,3.1039043121304792,0.043318211752170994,1.2467594823451016,0.2737751320330884,-19.089162750635076,64.81663278779244,-30.034230183626747
1760958958.4833255,2.7022376220030444,-0.011149615139575493,1.2182083131922057,0.2559091012827697,-21.824318093038208,66.38976830502192,-37.5996661160387
1760958958.4934862,2.2178854288905754,-0.05504262852615532,1.1781325515259544,0.22931673814255102,-24.416210998894837,66.63967038916098,-44.54858063877735
1760958958.503152,1.6663739745971864,-0.08703333935508199,1.1310239639132385,0.19760645315109923,-26.503907416521226,65.69965919836297,-50.535234623460184
1760958958.5131664,1.0653321041571135,-0.1072369992642736,1.0820164603718987,0.1645817831187846,-27.768607581104675,63.762592997044145,-55.286620187978166
1760958958.5232959,0.43292080167424785,-0.11706429807387339,1.0359432807744966,0.13362352187079438,-27.979199323028045,61.05195759354525,-58.62876661993142
1760958958.533217,-0.21369340244834137,-0.1189172817291791,0.9966276423278838,0.10723022105306887,-27.022014335861996,57.792111861176835,-60.50134669704
1760958958.5431356,-0.8596521761365028,-0.11578679788976105,0.9664915252951465,0.08679082102854621,-24.910695632820268,54.182161323303305,-60.95896959898404
1760958958.5531244,-1.4933660919057166,-0.11081291811408478,0.9464732363310195,0.07260287726774166,-21.776596931336968,50.376965317334054,-60.15932072478533
1760958958.5631816,-2.1070275195854493,-0.10686348048470225,0.9361863670664153,0.0640934464179455,-17.843810671911505,46.477328661728315,-58.34022761176129
1760958958.5731525,-2.6966418821128264,-0.1061786864662559,0.9342284592674168,0.06015842334803448,-13.395074486269632,42.52987892096308,-55.78940381377205
1760958958.5830667,-3.2616132122423678,-0.11012345887128466,0.9385494721818077,0.05952020497199591,-8.735263691142071,38.53571298850893,-52.81156608093496
1760958958.5930598,-3.803986197075869,-0.11908023915605284,0.9468089797945988,0.06101598072547297,-4.158159983750684,34.46569381093277,-49.69756519134359
1760958958.603072,-4.327495594357301,-0.13249859319564283,0.9566779946141898,0.0637635951063083,0.079771458313264,30.279381818079166,-46.699222805042815
1760958958.613284,-4.836594208691542,-0.14909365620351678,0.9660679534801324,0.06719572333637136,3.7770390062062478,25.944164879391213,-44.01212560946253
1760958958.6230886,-5.33561818323634,-0.16715752221626562,0.9732885633361613,0.07099069283490152,6.796399275918386,21.45133026056993,-41.76714235118225
1760958958.63308,-5.8282061068938305,-0.18492396377859804,0.9771445173695524,0.074948752377177,9.06693020235929,16.82654667722497,-40.0301851829942
1760958958.6430707,-6.317025576177918,-0.20091459436448336,0.9769805508647981,0.07886422281839486,10.580410798710377,12.133294485650532,-38.808830846491105
1760958958.6531622,-6.803791050261224,-0.21419759386128293,0.9726801535023445,0.08243274030651665,11.383454568811105,7.468991141376656,-38.063848663495875
1760958958.6632187,-7.289495640268324,-0.22450878460584403,0.9646201107879893,0.08521667475700605,11.566667235886058,2.954746240007595,-37.72342945990697
1760958958.673109,-7.774741052094482,-0.23221613131553956,0.9535829034370643,0.08667566635528867,11.251958930757885,-1.279318347527663,-37.69795545219383
1760958958.6831822,-8.260043267507973,-0.2381451104622394,0.9406317760753654,0.08625376036086416,10.579068583799963,-5.110597944650452,-37.893468428847825
1760958958.6931484,-8.746017421353873,-0.2433138581151547,0.9269585762323963,0.08350001486304831,9.692336121251422,-8.439586857547008,-38.22250928361264
1760958958.7031717,-9.233395499441745,-0.24864598613424937,0.9137218499786479,0.07818957185766498,8.728751898607005,-11.20193690248258,-38.61159354804462
1760958958.7130492,-9.722889866791594,-0.2547318317755435,0.9018997153855961,0.07041257625537325,7.808252886741403,-13.375040242760502,-39.00513817977937
1760958958.7230763,-10.214966269395177,-0.2616946124504407,0.8921833755145412,0.06060957210759673,7.027022546559397,-14.97814368590558,-39.36611180722098
1760958958.7330878,-10.709616286209323,-0.2691887645456609,0.8849286024327638,0.04954759592872865,6.454130889277131,-16.066157536400734,-39.674046310383936
1760958958.7431238,-11.206213592390418,-0.2765211226295381,0.880166587832244,0.038243610674939164,6.131290909267279,-16.718474268806034,-39.921320734620906
1760958958.7530959,-11.703504885286042,-0.2828534141137579,0.8776605987937391,0.02784895523145831,6.074993703540399,-17.025036094663424,-40.10876873388638
1760958958.763079,-12.199740306885154,-0.28742852742178954,0.8769880128916298,0.01951215504264161,6.28001188103856,-17.072377075754027,-40.241614612378825
1760958958.7730658,-12.692909639869562,-0.28976805480785073,0.877629019626028,0.014239153584348456,6.723302599559719,-16.932291957531522,-40.32650810607208
1760958958.7830892,-13.181033606116674,-0.2898091883619676,0.8790489189693126,0.012769139264041048,7.367610759932895,-16.655165343862727,-40.37008601950326
1760958958.7931473,-13.662465392509047,-0.2879724062197694,0.8807653924526699,0.0154803003750101,8.16440353449702,-16.26898274317785,-40.37915560207343
1760958958.8032677,-14.136174564554961,-0.285164980896635,0.8823930258675952,0.02233421054875828,9.05604330294617,-15.783899589996532,-40.36232688563093
1760958958.8131828,-14.60199757400391,-0.2827244385465274,0.8836566680447571,0.0328616825998323,9.97732502755487,-15.20126758378165,-40.33268246353992
1760958958.8231366,-15.060836596067816,-0.2822974327191143,0.8843680635879062,0.04618827328499307,10.856723908325266,-14.525426822092598,-40.310800652809235
1760958958.8331566,-15.514775274419158,-0.28564632566015324,0.8843700396970513,0.0610957637852943,11.617931127998066,-13.776387541404564,-40.32715254716401
1760958958.8432,-15.967069076628256,-0.29438654423873545,0.8834663022757919,0.07611685593367468,12.182421680724483,-13.001582996702199,-40.42268885453753
1760958958.853151,-16.42197030092177,-0.3096791462825139,0.8813647001882363,0.08966052539064018,12.473784327379336,-12.28497311001792,-40.64646206737762
1760958958.8630939,-16.8843647489608,-0.3319239443580053,0.8776622888299033,0.10016091045902269,12.424282596641165,-11.751837897473871,-41.04946271391642
1760958958.8731263,-17.359222457541748,-0.36050943573348737,0.8718927668423778,0.10623484375552897,11.983634605922145,-11.56770836048845,-41.674452889540156
1760958958.8832414,-17.850891368065383,-0.39367314260027475,0.8636436042140336,0.10682998934148183,11.129397223378934,-11.930200579857715,-42.54238674557405
1760958958.8932607,-18.36228653954907,-0.42851168293927305,0.8527314281252977,0.10135168168645993,9.877711246175199,-13.053138662889943,-43.636954522169
1760958958.903238,-18.8940487806932,-0.46115983550330975,0.8394018190365071,0.0897651506439313,8.292568589946853,-15.143238084051717,-44.889761117823305
1760958958.9130237,-19.44376734761674,-0.48713801986393146,0.8245011991101099,0.07266998668674837,6.491306342335428,-18.370673428672035,-46.169413059815916
1760958958.923051,-20.005380286246226,-0.5018488887263163,0.8095619963745013,0.051334752912595046,4.64392931744236,-22.836001088137696,-47.2780233554557
1760958958.9331872,-20.56887566097269,-0.5011831312306905,0.796750866169325,0.02767145192835621,2.964324248595466,-28.537083123614714,-47.95812117830689
1760958958.9433327,-21.12040778817796,-0.48217173074580655,0.7886527872524824,0.004130713092994176,1.692489591713262,-35.3407145230177,-47.911654134815436
1760958958.9532373,-21.642909819670308,-0.44360001002829186,0.7878975461182881,-0.016490535832982,1.0683815655647912,-42.96433063004621,-46.83087499544539
1760958958.9631932,-22.117228248391473,-0.386480250198158,0.7966719689454284,-0.03132126077163262,1.2995959996689639,-50.97312949868771,-44.43866980511121
1760958958.9732246,-22.52372834373717,-0.31426893316783766,0.8161941829289965,-0.03774485107714491,2.5266631344335897,-58.79684113366824,-40.53355881838904
1760958958.983148,-22.844227540352062,-0.2327271104145305,0.8462528723187563,-0.03374843314071514,4.791121579794416,-65.76800660588896,-35.03250495980698
1760958958.9931457,-23.064023315710784,-0.14937744260973598,0.8849323998768626,-0.01825012990441888,8.012571255324126,-71.18017089496153,-28.003376899851016
1760958959.0031204,-23.173722295558147,-0.07260536652194838,0.9286423128995328,0.008644001274735346,11.981060766038734,-74.36051650251933,-19.679247081951065
1760958959.0131729,-23.170574716800562,-0.01054703090200556,0.9725301952606149,0.04550526719946983,16.369642362538162,-74.74811035551322,-10.449199377337457
1760958959.0231528,-23.05908008284533,0.030038922645459265,1.011274289703473,0.08961587760914536,20.76830167328765,-71.96693884600444,-0.8246298012188455
1760958959.0332944,-22.85074206435884,0.04471718670083153,1.0401424195957294,0.13719387798753963,24.73541865621043,-65.88281758829191,8.615085744302885
1760958959.0434349,-22.562988914779844,0.031977126141775884,1.05609609730308,0.18379589749473113,27.858154339099443,-56.63526389611873,17.289579129743007
1760958959.0532348,-22.217413101225702,-0.0066140823973970175,1.0586493842906435,0.22484491503081594,29.810536297308573,-44.63913003216206,24.686643291831146
1760958959.0631747,-21.837594682080148,-0.06673459476280115,1.050203905709572,0.25620050273824535,30.398536647714806,-30.55529314818629,30.422417984500914
1760958959.0730972,-21.44683553672829,-0.1420461816624945,1.0357009381690043,0.27467766210489625,29.584732276769294,-15.233982382198807,34.28280602570041
1760958959.0831518,-21.066132670278172,-0.22519866321226698,1.0216262233952211,0.2784318761166773,27.48970512342265,0.3622145231354156,36.23953225790437
1760958959.0931919,-20.712656424813353,-0.3088904609712163,1.0145894253950571,0.26715875209114825,24.371528760857306,15.246202081634893,36.43884852316425
1760958959.1031654,-20.39888417933124,-0.38676523458057144,1.019809222412353,0.24209374464549127,20.587691350627768,28.494426276551444,35.165975542049345
1760958959.1131706,-20.13239670762677,-0.453975395271567,1.0398524901199173,0.2058264266150558,16.545771870656743,39.32481726820031,32.792901419603034
1760958959.123195,-19.91620884321616,-0.5073421627967356,1.0739198456093042,0.16195947017075674,12.65050707770034,47.15639463372957,29.720109448001537
1760958959.1331317,-19.749415630595866,-0.5451575363444773,1.1178578269653225,0.11465112536770962,9.255503204019707,51.64570771883692,26.323470897201013
1760958959.1433654,-19.62791401718992,-0.5667700536842682,1.1649229896741884,0.06809065153972202,6.627201715460042,52.6991414169757,22.915710937982563
1760958959.1530347,-19.545010613042244,-0.5721436364348582,1.2071466045000425,0.025971492254166145,4.926334745466721,50.46350081026348,19.727919218130012
1760958959.163191,-19.491828475315817,-0.5615599138950501,1.2369895473414148,-0.008959471476333471,4.20825454046461,45.29950197867628,16.91147366574829
1760958959.1733897,-19.45754615825522,-0.5355538250800264,1.2488857771367112,-0.03519718848743959,4.439207916074457,37.74348872426357,14.555819265408983
1760958959.1833508,-19.42960185328062,-0.4950629636929982,1.2402923528203242,-0.05255812571557859,5.522173498344485,28.46194983691424,12.714170616819203
1760958959.1931984,-19.39404053800064,-0.4416821846559545,1.212005219651443,-0.062025318717175086,7.324405307736253,18.201784945061828,11.428322086671637
1760958959.203164,-19.33615230952633,-0.37788192125935993,1.1677224847358025,-0.0653954795609501,9.699803384709428,7.7377113731089935,10.745421680306235
1760958959.21331,-19.241449389790837,-0.3070729134024834,1.1130548178735733,-0.06481843401351328,12.502200398920504,-2.182248808305482,10.72292877721808
1760958959.223351,-19.09689452515063,-0.23345924228059467,1.0543094042691339,-0.06234848500965098,15.589386217233159,-10.891151396584654,11.42170099007895
1760958959.2330902,-18.892184594334754,-0.16169146747351595,0.9973738644262572,-0.05961737839921355,18.820769202402722,-17.853257695978428,12.890131013529066
1760958959.2432568,-18.620857780439465,-0.09639185548536316,0.9469260383340825,-0.05769175192930285,22.052963883026575,-22.70410074232962,15.143952644534467
1760958959.2532525,-18.281033890212836,-0.0416557730777462,0.9060533272511787,-0.057113269003598165,25.137084640605384,-25.274602971181313,18.146753123038465
1760958959.2631102,-17.875681082356014,-0.0006290571967703193,0.8762387083921233,-0.058062722053091986,27.91986517563496,-25.59525749047415,21.795698632521965
1760958959.2729752,-17.412392009566393,0.024770862842030207,0.8575945409644632,-0.06056136431891921,30.24917637651678,-23.879760968725986,25.91597227729515
1760958959.2831392,-16.902730350168692,0.03396420828081745,0.849206191687978,-0.06463100424568327,31.983782706085268,-20.49121948421356,30.26618849539198
1760958959.2932124,-16.361265889962684,0.02765887489050075,0.8494721845672835,-0.07036849612828594,33.00669879778362,-15.896727968452636,34.555338532473286
1760958959.3033006,-15.80444017979179,0.0076749740129523555,0.85637817387033,-0.07793044681454783,33.24035115309507,-10.616793776139495,38.46943056997554
1760958959.3133707,-15.249389191331838,-0.023312111152457952,0.867701276388494,-0.08745599608238278,32.660231064103876,-5.175122481637792,41.70361996952542
1760958959.3235424,-14.712809145247734,-0.062066559330670776,0.8811864216651983,-0.09897284616447712,31.303234791916395,-0.053018527367637715,43.994508696421136
1760958959.333482,-14.209914116789587,-0.10509075830097812,0.8947410242163226,-0.1123294350674409,29.268055154837246,4.348207760772716,45.14782640075682
1760958959.3430681,-13.75351703388495,-0.14890832023439715,0.9066539097908324,-0.127175530840469,26.707045998940497,7.734187728720812,45.05817373922313
1760958959.353265,-13.353268613971462,-0.19032268687652013,0.9157929669986433,-0.14298839470695143,23.810863262039696,9.932171723515285,43.71904655913685
1760958959.36323,-13.015099208692824,-0.22664217402330658,0.9217160307845986,-0.15912803701150077,20.788395013848614,10.893013009773927,41.222621971185
1760958959.3731692,-12.740912445679706,-0.2558542028509408,0.9246518275194527,-0.17490574154665967,17.84501301493647,10.681210543199926,37.7498315157068
1760958959.3832164,-12.528568488996857,-0.27672657039997717,0.9253521529484803,-0.18965610349979056,15.162173864073061,9.454813382471803,33.552195407940076
1760958959.3930829,-12.372168762251716,-0.28882025655894855,0.9248571380803998,-0.20280639832998623,12.881047935151916,7.437900373269818,28.927741516903815
1760958959.403345,-12.26261924941284,-0.29241485623907126,0.9242363102785858,-0.21393658717585345,11.092256542332244,4.889082003898155,24.193935211989153
1760958959.4131083,-12.18841236215767,-0.2883641044076302,0.9243656955004056,-0.22282120159335211,9.832915852094615,2.0698720564999404,19.660706663185174
1760958959.423314,-12.136533060538508,-0.27790646030452043,0.9257826716703265,-0.22944451143105143,9.090954784668588,-0.7833541670121625,15.606302363933844
1760958959.4331508,-12.093372502724062,-0.2624557767287223,0.9286359287384519,-0.23398462531904227,8.815245804042275,-3.4807886460644686,12.257948483104844
1760958959.4431639,-12.045535604713658,-0.24339727273527317,0.9327244767880253,-0.23676872887839892,8.928918219950473,-5.892033402643102,9.778452565833092
1760958959.4532728,-11.980465278980242,-0.22191697557742038,0.9376012427696849,-0.23820764620206603,9.342808180917842,-7.949550625218674,8.25907746273847
1760958959.4632895,-11.886866710125744,-0.19889308224257798,0.9427069971986222,-0.23872211026096637,9.96649954415659,-9.643046029642592,7.718383090058856
1760958959.473233,-11.754976262221549,-0.17486921141854847,0.9475007143767944,-0.23867511524198715,10.715546296938173,-11.006176638896754,8.10628955379097
1760958959.4830828,-11.576756783183614,-0.15011211913756625,0.9515608609585426,-0.23832348329918945,11.514742859900181,-12.097956902896767,9.312381449133074
1760958959.4931617,-11.34610069407954,-0.12473558669766693,0.9546440158081148,-0.23779681998096627,12.298310376131953,-12.982024739600144,11.177417939572079
1760958959.5033412,-11.059087608330438,-0.09885546569446214,0.9566987223674063,-0.23710469434472742,13.008402879657222,-13.70730463899709,13.507072659427815
1760958959.5132215,-10.714291846451312,-0.07273458965691791,0.9578418276260544,-0.2361658489785589,13.59339645304326,-14.293376637945007,16.087022551065385
1760958959.5231197,-10.31308923514431,-0.046882224055554825,0.9583106414144545,-0.2348489868776249,14.007098136490624,-14.722998191010689,18.698568236466947
1760958959.5330715,-9.859887515961875,-0.022087251113711768,0.9584053212686121,-0.23301411293360252,14.209447984842331,-14.942895908374211,21.133969471292364
1760958959.5435255,-9.362203814135425,0.0006189103301000654,0.9584322004240989,-0.23054586252212264,14.168667717108033,-14.872442884815122,23.210631876174574
1760958959.5533142,-8.83052981106857,0.02005939861010647,0.9586539374323001,-0.2273743921400132,13.86430602911022,-14.418490279907092,24.783239612619074
1760958959.56318,-8.27795178333027,0.03504917848462618,0.9592496268862631,-0.2234838127089295,13.290356080822662,-13.49368120082687,25.75295569420636
1760958959.573078,-7.719521679607706,0.04454827893973838,0.9602873569534138,-0.2189114579379721,12.45759353729169,-12.035159803547325,26.072939404812743
1760958959.5830874,-7.171403257788513,0.04780717000078836,0.9617116834515641,-0.21374257466094773,11.394448426109935,-10.020688119897999,25.749661349789022
1760958959.5932114,-6.649842976895805,0.044484145437230616,0.9633483236936979,-0.2081042900542813,10.146001578014767,-7.4796999456189885,24.839823294964898
1760958959.6032119,-6.170038665681492,0.03472003531661186,0.9649274716690514,-0.2021608425740087,8.771019497827659,-4.497616681753373,23.44308883632438
1760958959.6132915,-5.744999002752412,0.019161649409481712,0.9661247678382139,-0.19611012488195007,7.337264415691179,-1.212686401605244,21.691257662212916
1760958959.6232095,-5.384501009882469,-0.0010687013780182341,0.9666152837480788,-0.19018008877553427,5.915603697498686,2.1944264785475722,19.73491385813372
1760958959.6331854,-5.0942569415831,-0.024454695026584296,0.9661323357299916,-0.18462261158988252,4.5736551974741175,5.517165509744551,17.72888108714362
1760958959.6432915,-4.875391697300168,-0.049210341112395806,0.9645210996402538,-0.17970234983110916,3.3698026436088693,8.54380842406561,15.817964507377019
1760958959.6532607,-4.724304961646098,-0.0734342714113035,0.9617775103083114,-0.17567932502086617,2.3483753437186614,11.079904510487607,14.124426339566433
1760958959.6632724,-4.632950760655372,-0.0952774512835037,0.9580653438821715,-0.17278623528776382,1.536610010249256,12.969635016145753,12.738438255685013
1760958959.6732457,-4.589517793558713,-0.113106174095992,0.9537076254021157,-0.17120373253105747,0.9437239662011857,14.113380383878054,11.71240333306975
1760958959.6833208,-4.579446686913679,-0.1256434417740311,0.949151942988367,-0.17103814067557233,0.5620845339962635,14.479243350067891,11.059585951080653
1760958959.6933453,-4.586684465892338,-0.1320758525689187,0.9449132133024214,-0.17230602904453413,0.3701333589439173,14.107063251003668,10.75698976734076
1760958959.7034416,-4.595056341003663,-0.13211830129498192,0.9415020266040133,-0.17492903644792154,0.3364758947144952,13.1044327897387,10.75193777792402
1760958959.7134392,-4.589628793240482,-0.12603306392966712,0.9393506472546658,-0.17874066205825606,0.4244062696326335,11.635239966133572,10.971382652547693
1760958959.723116,-4.557941701452729,-0.1146024104576426,0.9387503746641412,-0.18350441327348965,0.5961207567106006,9.90215693371744,11.33266422184336
1760958959.7332046,-4.490997647896988,-0.09905550658759356,0.939812368165765,-0.18894001531919444,0.8159862140002951,8.125175807285276,11.754293881947792
1760958959.7432065,-4.383912393613171,-0.08095214062416416,0.9424590521811511,-0.19475229148876977,1.052468575763844,6.5186893749231425,12.165427597417258
1760958959.7531445,-4.236152706046359,-0.0620286795655476,0.946445831589317,-0.20065699307059687,1.2786598214135019,5.2697164111699,12.512988256381577
1760958959.7632701,-4.051319411026468,-0.0440165487841263,0.9514056458227199,-0.2063996856609283,1.4717017608166667,4.519699635274056,12.76584668672146
1760958959.7731106,-3.836479180060507,-0.028450880825366617,0.9569044482065867,-0.21176667674741562,1.6116976268112018,4.351889969887704,12.915957206759126
1760958959.783406,-3.601109628341324,-0.01649535929391223,0.9624948872300089,-0.21658914045481073,1.680839556646423,4.785686735933524,12.976760144568102
1760958959.7931678,-3.3557909567057305,-0.008814510312508213,0.9677583097555995,-0.22074251754818042,1.6634081495037536,5.778458105889281,12.979440846524572
1760958959.8032634,-3.11083384135542,-0.00552130649243759,0.9723314502590615,-0.2241439164396746,1.547014542619755,7.234404917713114,12.96775606632095
1760958959.813521,-2.875053650932003,-0.006213581834713493,0.9759214763351849,-0.22675119741828123,1.3250084088987286,9.019089782985827,12.992135817839571
1760958959.8231952,-2.654872439334879,-0.010091491625252535,0.9783166356733889,-0.22856727716264366,0.9994843455903872,10.977491399944048,13.10369237496696
1760958959.8332562,-2.453858878949841,-0.016128211251214813,0.9793963233380428,-0.2296498620770663,0.5839438498668187,12.953008654462238,13.34865818527694
1760958959.843415,-2.2727235627764437,-0.02325440836188764,0.9791369160260393,-0.23012098090831967,0.104553839513524,14.804817195596728,13.763655654902816
1760958959.8531532,-2.10970002783624,-0.0305177148395176,0.9776061948182129,-0.23016655264944494,-0.4008460570147816,16.421371478456766,14.372089481545743
1760958959.8632119,-1.9611841837150765,-0.037190891629996066,0.974944336775959,-0.2300177516108475,-0.8863409566096866,17.728563105855248,15.181848954317816
1760958959.8730447,-1.8224871367429893,-0.0428203763589289,0.9713387358359343,-0.2299131680383791,-1.3038699981064386,18.691939393542693,16.18440259464797
1760958959.8831415,-1.6885728593950524,-0.04722212145439668,0.9670046908116904,-0.23005027510547368,-1.6106374158110226,19.313284101620606,17.35525536987444
1760958959.8932014,-1.5546879254281847,-0.050439672925939205,0.96218126822905,-0.23054217588515596,-1.7767578670523037,19.6226380654921,18.655635974649023
1760958959.9033484,-1.4168312202293023,-0.05268091577327891,0.9571449456115216,-0.23139722826035644,-1.791744365091694,19.66740440308299,20.03521408014646
1760958959.9134636,-1.2720468436717256,-0.05424703556098296,0.9522366144152354,-0.23253250887479374,-1.668597590336636,19.500461041338124,21.43562298689322
1760958959.923382,-1.1185472457692405,-0.05546195169499225,0.9478911961131636,-0.23381878387065652,-1.4446713328455814,19.16914736498885,22.794566572218564
1760958959.9332867,-0.955685083977172,-0.05660530275991445,0.9446545971919638,-0.2351415013470395,-1.17903305539292,18.706651472566037,24.0503007372833
1760958959.943244,-0.7837959081136088,-0.0578498633480048,0.9431724464646288,-0.23645632701319888,-0.9465396800079514,18.126831456104792,25.1462818196114
1760958959.953136,-0.6039359607128374,-0.05920587941756842,0.9441404322053087,-0.2378204262118532,-0.8292241344947943,17.422986536442473,26.035747192374114
1760958959.9633253,-0.41754367620693167,-0.060478218807486224,0.94821558546455,-0.23938883830806926,-0.9058638695781988,16.570616348611384,26.68592387622177
1760958959.9732664,-0.22605946064688986,-0.061244717341296676,0.9558985390940248,-0.24137515745162527,-1.240832734281203,15.533781110119527,27.081465358137276
1760958959.9832773,-0.030544294575852796,-0.06086455153463614,0.9674065697112262,-0.24398501388850277,-1.8735359820334756,14.274297073662183,27.22663479906817
1760958959.9934015,0.168657516702941,-0.05852409181190149,0.9825648914756183,-0.24733823882345377,-2.809853636941115,12.762668736525821,27.14572995644844
1760958960.003596,0.37216430946494966,-0.05332411550292198,1.0007469022747808,-0.2513999719539399,-4.016995297820543,10.989384735545508,26.881319486489613
1760958960.0132406,0.5816687421064652,-0.04440587334746173,1.0208896195041837,-0.2559411750525399,-5.422927395516101,8.9750242477877,26.490045792369834
1760958960.0234225,0.7998831050980572,-0.031105612358473953,1.0415968143525163,-0.2605442000009523,-6.921031320320777,6.777585720695649,26.036025873271765
1760958960.0331976,1.0303002036357263,-0.013120335616391726,1.0613205759511328,-0.2646584872133659,-8.379903787830317,4.495609544319424,25.58220721723665
1760958960.0431795,1.2767649954692828,0.009337810557709712,1.0785855302060756,-0.2676945983157558,-9.657341858497565,2.266058078748265,25.18037149363756
1760958960.0532444,1.5428672570730948,0.03542687972117355,1.0921975977527427,-0.2691256541044577,-10.616825418559882,0.2565386258553876,24.86079669266935
1760958960.0633106,1.83119015416342,0.06363306594252406,1.101378534302252,-0.26855695439259614,-11.144505954022755,-1.3477743958448378,24.622856857509895
1760958960.073158,2.142485787224159,0.09183080701224189,1.1057994879503212,-0.26573903264269255,-11.164899141928483,-2.3613994956246795,24.428001868614178
1760958960.0831826,2.474887214847621,0.1174600081308645,1.1055334493407265,-0.26052899798571344,-10.653907118664032,-2.618256428424427,24.196546713237833
1760958960.093213,2.823293003550103,0.1378143129474648,1.1009728253813784,-0.25282722963508997,-9.648110594904074,-1.9916502578871529,23.809464096691432
1760958960.1031585,3.179064855150758,0.15041334313621252,1.0927506025631306,-0.24251976612879625,-8.24932082903363,-0.4120581754227606,23.11592083220433
1760958960.1132324,3.530156256514536,0.1534122747159365,1.0816779803397796,-0.22944848556430905,-6.623281017788336,2.1198979204993713,21.946665050882128
1760958960.1231358,3.8617388496086296,0.14598445695394335,1.068689658968843,-0.21342138762372703,-4.991383262334711,5.5277709659811025,20.13259333050714
1760958960.133151,4.157316903475546,0.12860196558460954,1.054780207055075,-0.1942652674966016,-3.6145480088911848,9.662782499911021,17.526923030641115
1760958960.1433578,4.400228770662135,0.1031419192156153,1.0409215519053243,-0.1719102820922913,-2.769225409118158,14.317204478211156,14.028393118850683
1760958960.1533244,4.575343038560891,0.07276640795340279,1.027967827639609,-0.14648241351565336,-2.7169949584641153,19.246665545327367,9.601949650258677
1760958960.163235,4.670688599269132,0.041559783772034835,1.0165694009688455,-0.11837422128637033,-3.671299165085393,24.19857803114081,4.292821047412935
1760958960.173352,4.678738877850815,0.013954017305034426,1.0071204790707105,-0.0882740040317761,-5.766660961545571,28.942437942248645,-1.7696846369534442
1760958960.1833086,4.597117917325217,-0.005978183201733845,0.9997507102449966,-0.05715317056744076,-9.036169036664296,33.29716136165308,-8.380644620006597
1760958960.1933923,4.428602310246775,-0.015243599244996854,0.9943529145686387,-0.026223830027135915,-13.4015218479734,37.15097827315698,-15.279702439034974
1760958960.2032175,4.180428452782696,-0.012524561245251822,0.9906340744054768,0.00312704143017503,-18.677155373214177,40.470511027846946,-22.179916296421936
1760958960.2131677,3.8630432273379958,0.0014776601482469195,0.9881867847724746,0.02943342785509777,-24.58727264920715,43.297287804748706,-28.80050600008438
1760958960.223349,3.4885291647369767,0.024041719775298245,0.9865841400255956,0.05128402442287348,-30.792837173192463,45.731898610367764,-34.89812351959859
1760958960.2331998,3.0689769008644037,0.05079237900425855,0.9854866280284978,0.06748736330094715,-36.92476178080391,47.9080652155665,-40.29173868915845
1760958960.243335,2.615066691772903,0.07638220765751277,0.9847283053678122,0.07724368631962346,-42.619160721855266,49.96073549370742,-44.8775280002424
1760958960.253343,2.13506591636819,0.09536850519749983,0.9843480735233523,0.08028909357569515,-47.55043241283865,51.993539559454625,-48.631967643250434
1760958960.26318,1.63436529572006,0.10312383165704588,0.9845536742345719,0.07697812048083238,-51.45829439057921,54.051234382946284,-51.603332637962595
1760958960.2731755,1.1155784860325537,0.09661268021785345,0.9856309480275737,0.06827979755140975,-54.16589912190954,56.10199650917868,-53.89366392811692
1760958960.2831233,0.5791333140841749,0.07489452628945342,0.9878252737451213,0.05567781518173448,-55.5876692014136,58.03277217255909,-55.63468737525071
1760958960.293245,0.024204239326312497,0.03926771205769967,0.9912277608148705,0.040985244458597546,-55.72705412145452,59.65875138887836,-56.96193034504846
1760958960.3033228,-0.5502111820335789,-0.006961599937282158,0.9956982643605033,0.026103564882430375,-54.66561638831875,60.74581319462708,-57.991280613880384
1760958960.3133237,-1.1442767054472196,-0.05903091310570126,1.0008477441344072,0.012769174472041702,-52.5455879123845,61.04279262294017,-58.80151570174935
1760958960.3232346,-1.7565385858189186,-0.11148377136813262,1.0060836863978428,0.0023344712908140576,-49.54846097858291,60.3188402080469,-59.42509072811988
1760958960.3331983,-2.3835042027756974,-0.1590049687570271,1.0107023629530187,-0.00437675549582555,-45.872475024014285,58.40016358430997,-59.84799193421199
1760958960.3431666,-3.019630750848519,-0.19719165503103073,1.0140009287781615,-0.00711752358948202,-41.711995185685375,55.200281985470376,-60.01802311478576
1760958960.3534038,-3.657708386944212,-0.22314716193569722,1.0153829371520227,-0.006169709626039693,-37.241529574691086,50.73877595784831,-59.859696948275534
1760958960.3632066,-4.289563057245743,-0.23581940367309412,1.0144369550056278,-0.002219838229973311,-32.606328195530374,45.14533409147159,-59.293055067390355
1760958960.373289,-4.906959828087712,-0.23604568233226203,1.0109753278864961,0.0038088840632332383,-27.92019112050927,38.6483246451374,-58.253284641376396
1760958960.383578,-5.50256139821651,-0.22630996114438703,1.005029225760955,0.010931138040723999,-23.26956609694036,31.549646613665665,-56.70797303818822
1760958960.393418,-6.070790889269014,-0.21026419546760683,0.9968068519916231,0.018247133132536942,-18.721683391557836,24.189804942644837,-54.669256687829225
1760958960.4033155,-6.608463878899886,-0.19210330407209114,0.9866311801472358,0.025040837212865024,-14.333793730445471,16.908651838687884,-52.19891369614273
1760958960.4134042,-7.115090432513074,-0.17590366464839316,0.9748780545216761,0.030821708638682943,-10.160739454979739,10.007749510110258,-49.40550829438499
1760958960.4232287,-7.592799208114381,-0.16503271869446856,0.9619324165782346,0.035317947590361345,-6.258969531060578,3.7197450721042125,-46.43390527343465
1760958960.4332893,-8.045895669175152,-0.16171527270834626,0.9481704271089998,0.0384396191654054,-2.6863592161842273,-1.8113062519306304,-43.44870807717942
1760958960.4432633,-8.480125987150398,-0.1668082292110349,0.9339632522319035,0.04023291120599428,0.5015766821332536,-6.536707798087951,-40.61423440654274
1760958960.4533696,-8.901766638667885,-0.17979829143103576,0.9196909783424922,0.0408421266733593,3.2576083477265336,-10.497101701458428,-38.07426441775391
1760958960.4634414,-9.316687518496831,-0.1990037423850108,0.9057560826679802,0.04048665037885736,5.549043609637703,-13.805610662115694,-35.93480692822433
1760958960.473187,-9.729539003610743,-0.22193557448327608,0.8925920877219224,0.03945135240164193,7.3626744440138,-16.62335858421295,-34.252589121086025
1760958960.48342,-10.143190618358911,-0.24575412494293464,0.8806666446530103,0.0380841703009083,8.707262567913933,-19.131157218065756,-33.031084676462044
1760958960.4933114,-10.558502513351128,-0.2677431704959938,0.8704748813380714,0.03679248941174929,9.61297833796292,-21.501081662425335,-32.22477702934263
1760958960.5033777,-10.974447262001704,-0.28571890339347966,0.8625143084452142,0.036028225043738316,10.127813077843976,-23.871198954078853,-31.751046877262866
1760958960.5134265,-11.388534032673913,-0.2983058540065328,0.8572371757520738,0.03625261387483778,10.311650197479109,-26.326123928668505,-31.507725670099358
1760958960.5232255,-11.797440105447079,-0.30504708071031517,0.8549898960878591,0.03787926339364527,10.229273430894386,-28.88546222314592,-31.393299106701242
1760958960.5331972,-12.197737587812163,-0.3063583353546642,0.855959012470964,0.04120558782086558,9.943818783638255,-31.50146159038907,-31.326298356019407
1760958960.54321,-12.586611751466872,-0.303366634361252,0.8601388326689942,0.04635076882813301,9.51187592356729,-34.0661896278106,-31.26067861875623
1760958960.5532386,-12.962487819657712,-0.29768323932377866,0.8673222299944323,0.053217741193597554,8.980782839567674,-36.42734210852969,-31.19480644705261
1760958960.563258,-13.325503862539625,-0.2911536206522051,0.877106051262161,0.06148885866222174,8.387986587954225,-38.41063816788567,-31.17280410868194
1760958960.573391,-13.677785022257682,-0.28561316188136976,0.8889020066800656,0.07065492338510315,7.761912715541434,-39.845958218782464,-31.278195485529228
1760958960.583439,-14.02348991076989,-0.2826654607600859,0.9019493302808577,0.08006964597218966,7.123648848783029,-40.594004370137476,-31.620881888734317
1760958960.5932465,-14.368615945919032,-0.28349320728868554,0.9153316404017783,0.08901825139364494,6.488851369083931,-40.57022033270137,-32.31930907508573
1760958960.6033723,-14.720567868535877,-0.2887093958110748,0.9280044980528078,0.09678912354711312,5.869541829561742,-39.762920557933604,-33.48017888197185
1760958960.6131856,-15.08751257381763,-0.29825736333186914,0.9388410048022331,0.10273919255660108,5.275753659982919,-38.24305166974983,-35.178198057623774
1760958960.6232462,-15.477562929797198,-0.3113703782169908,0.9467009356397377,0.10634609463808022,4.717197479788724,-36.16377167926752,-37.43821739924737
1760958960.6333601,-15.897853001146707,-0.3266036506083782,0.9505256102194126,0.10724301821811791,4.205156346013894,-33.749083629115916,-40.221814394925985
1760958960.6435456,-16.353585950784122,-0.3419496043614987,0.9494545146973394,0.10523588049568079,3.754672766779076,-31.272048713040366,-43.41999305464938
1760958960.6532204,-16.84715028056116,-0.3550359534651885,0.9429484075520411,0.1003067249799411,3.3867852104445935,-29.02450668548958,-46.8532011575488
1760958960.663325,-17.37740491115308,-0.36338744340071066,0.9308922815475845,0.09261044324525668,3.130264334040144,-27.281556884384546,-50.2792303317746
1760958960.6733513,-17.93922614483233,-0.3647179549011378,0.9136513725870977,0.08247175198801972,3.0221969271973754,-26.265080157752017,-53.408773758514016
1760958960.6833208,-18.523391746342526,-0.3572205185068641,0.8920678424968695,0.07038498824200423,3.1069334599801532,-26.111111408985703,-55.927606052568784
1760958960.6932702,-19.11685361134115,-0.3398344883759644,0.8674033111321053,0.057013216639459165,3.433182099911872,-26.84575530052204,-57.523684948899096
1760958960.703235,-19.703422893535386,-0.3124764672716711,0.8412390603957316,0.04317893412374108,4.049190995200663,-28.373487930790823,-57.91700642068583
1760958960.7132792,-20.264857485465253,-0.2762140475128412,0.8153403646492692,0.029837496952978895,4.996029206709505,-30.480146421654393,-56.88968148262343
1760958960.723162,-20.78229680057885,-0.23334292159943285,0.7914856339915541,0.018025339154763526,6.29919915674267,-32.850919844287745,-54.31330958261701
1760958960.7332313,-21.23793246547334,-0.18731470938844963,0.7712667729225842,0.008777323797288092,7.959413061797885,-35.10160655459722,-50.17029950638018
1760958960.743263,-21.61674465084072,-0.142473067564211,0.7558850227290996,0.003012080133102753,9.944276145898671,-36.81966335289676,-44.565592676031734
1760958960.7532325,-21.908089493288212,-0.10359464601202077,0.7459840565236202,0.0013934523519875078,12.183378175475328,-37.61037647875263,-37.72570124790225
1760958960.7632308,-22.10691127723134,-0.07528537643964052,0.7415630992612939,0.004190371778383522,14.569243152794767,-37.14289020335564,-29.98336148524471
1760958960.7731388,-22.214383301815147,-0.06132852672571848,0.7419924608653604,0.01117004466394309,16.96538096675448,-35.190739088821495,-21.748261655376712
1760958960.7833784,-22.2378505186576,-0.06410267418084133,0.746124894800629,0.021560776140094925,19.220710008636463,-31.66187142534362,-13.466672981527632
1760958960.7932065,-22.190042156325248,-0.08418106210912774,0.7524784771701089,0.034107245974621614,21.187797957190202,-26.614054277754292,-5.574793486202605
1760958960.8033097,-22.087627265055183,-0.12019232289074383,0.7594680805769766,0.047217629765603585,22.741488180041934,-20.253225338251678,1.5481321538442159
1760958960.8131764,-21.9492842010691,-0.16897398131617664,0.7656711396998143,0.05917756745784128,23.794715985968864,-12.914735702976786,7.62047586388201
1760958960.8231182,-21.793530722639588,-0.22599583681037136,0.7701112422014119,0.06838836805881662,24.309281963996106,-5.030014004736243,12.486840027820161
1760958960.8330858,-21.636601208474644,-0.2859829566981248,0.7725254517780032,0.07358167541183268,24.300463534166322,2.916695647408036,16.130368330129482
1760958960.843116,-21.490655042707466,-0.3436367929734002,0.773559844098649,0.0739726631522997,23.835232110617547,10.435679712805788,18.666785520491466
1760958960.8532197,-21.3625572911362,-0.39434091575001345,0.7748286001103613,0.06933417209517925,23.024461776060498,17.077199235880173,20.32078358808162
1760958960.8631883,-21.253396811787358,-0.4347432159852211,0.7787849612183916,0.05999389971099565,22.00999034632944,22.469809078181697,21.387874295722206
1760958960.8731797,-21.158808102598684,-0.4631259442542229,0.7883866383047877,0.046767707778235544,20.947782260448655,26.347743238324277,22.18693060622436
1760958960.883228,-21.07005283917729,-0.47950708815741017,0.8065847815683296,0.030846719691370667,19.988754905842793,28.565316469643697,23.010076005931186
1760958960.893335,-20.97570654017103,-0.48545975879316583,0.8357125162759964,0.01365925705479913,19.259154219147838,29.098108854876283,24.077151572363984
1760958960.903378,-20.863697825271437,-0.48368340986501246,0.8768835491124983,-0.003271991246174643,18.842787614622292,28.032337008348136,25.501600480534634
1760958960.9133077,-20.723378151077153,-0.4774004260257031,0.9295223172144118,-0.018466091875563903,18.767842268403275,25.545073905901507,27.273273031401786
1760958960.9234443,-20.547276189497726,-0.4696774209815615,0.9911325123329718,-0.030612511424416258,19.001127173301327,21.8787181264336,29.26145690215179
1760958960.9331884,-20.332229049360272,-0.4627850736534321,1.0573778441128525,-0.03869284742895671,19.452015574896492,17.31330765780376,31.238517843186624
1760958960.943221,-20.07968973445738,-0.45771586146375365,1.1225040655128906,-0.04208755931664075,19.98692415226512,12.140025731799582,32.92116347297112
1760958960.95324,-19.795172844777742,-0.45396760936018943,1.1800746852650252,-0.04065160491353262,20.452972800969054,6.638731820041114,34.022997905279865
1760958960.9634213,-19.48697951940013,-0.44965987787772027,1.2239253101395875,-0.03474478258037284,20.707048152467372,1.0617078573021357,34.30941075249439
1760958960.9734368,-19.164489387379845,-0.4419785454632995,1.2491745654453228,-0.025213823948855033,20.644661622370172,-4.374976019634043,33.64473224417281
1760958960.9833934,-18.836385155773876,-0.42785763155604567,1.253086151677009,-0.013335644780652583,20.222519582500773,-9.49215714198971,32.0226118169408
1760958960.9933527,-18.509168962026543,-0.40473570793662383,1.2355837057819512,-0.0007348194789786796,19.469904069090823,-14.14151573573236,29.57382231373616
1760958961.0033164,-18.18624328123292,-0.3711996547521317,1.1992927515755263,0.010722186313454026,18.486452336029885,-18.195658736299073,26.55046094823926
1760958961.013497,-17.867685050304043,-0.327366857620135,1.1491063586757333,0.01907201969752882,17.426922477469766,-21.53864382949988,23.290481911248982
1760958961.0232885,-17.55067704736215,-0.2749402457362506,1.0913944933969089,0.02246128651175578,16.47611290052289,-24.06148585395825,20.170181586793415
1760958961.0333545,-17.230420963254236,-0.21695913439450876,1.0330493014815525,0.01941463335975873,15.81861843053241,-25.665798211478524,17.553678430901247
1760958961.0434954,-16.90128023387071,-0.157331696282874,0.9805602256349644,0.009117775750767913,15.608500518728388,-26.275939255054798,15.747529245330107
1760958961.05339,-16.557900434532307,-0.10026228539031616,0.9392618721579173,-0.00836679587805447,15.94358100171752,-25.856882670220653,14.966222549853525
1760958961.063214,-16.196113389419047,-0.04968287396657735,0.912826690625345,-0.032031608529915365,16.848202251623732,-24.432759246545743,15.31151330142539
1760958961.0732973,-15.813515277026797,-0.008774458704249883,0.9030121281454173,-0.06004250212670805,18.266954433991895,-22.10039603749664,16.76619563711635
1760958961.0834687,-15.409691315236717,0.020364629581942698,0.9096343177516318,-0.09002421307831426,20.07013032178469,-19.033232449237932,19.20118287126419
1760958961.0933838,-14.986125684903024,0.03687467626927479,0.9307294386911079,-0.11944458940875104,22.069835364382396,-15.473222855535822,22.393589480312112
1760958961.103207,-14.54587942042094,0.041114452031082716,0.9628688364132052,-0.14600465747872723,24.044124709971396,-11.711046792107368,26.052779168544866
1760958961.1133008,-14.093138668018264,0.034492405397993996,1.0015984815636505,-0.16794767476397854,25.7655078148901,-8.057436731506494,29.851020500896603
1760958961.123432,-13.632731548109172,0.019197011028092077,1.0419679409315243,-0.18423141590106334,27.029767004536755,-4.810129436430304,33.45544512542071
1760958961.133281,-13.169689394788628,-0.0021184621947567305,1.0791038985495935,-0.19455269337225062,27.681260683024593,-2.221567290031671,36.55833732054799
1760958961.1433496,-12.708898195633159,-0.026647756133592146,1.1087758431340262,-0.1992544696202686,27.63155886147292,-0.47206209743228017,38.903272446349845
1760958961.1531312,-12.254859894679766,-0.051707792940300534,1.1278916672575812,-0.19916600681891597,26.869174881835097,0.34805126969096,40.305186423163356
1760958961.1631517,-11.811565620958339,-0.07496716550299486,1.1348464393666002,-0.19542060553964813,25.459214560929325,0.24532790532965892,40.66307057107509
1760958961.173352,-11.382471025518276,-0.09462675200872642,1.129650319652821,-0.18927859833860744,23.532984401845162,-0.6811431824992855,39.96462787486209
1760958961.1831706,-10.970553046906987,-0.10954861564507211,1.1138029683750514,-0.18197219439346657,21.268976093590034,-2.254322628129245,38.28287948652917
1760958961.1932578,-10.578415811060765,-0.11931853275667834,1.0899455281444193,-0.17458419775258377,18.868032796500653,-4.2419272438020075,35.765373865939004
1760958961.203484,-10.208401797778786,-0.12422481128027678,1.0613708443473417,-0.16796805333143083,16.52663257582322,-6.384393615879175,32.61733182442902
1760958961.213183,-9.86265519263962,-0.1251458002294732,1.031493160842025,-0.16271228423678225,14.412742748953578,-8.424774443089653,29.080709033725196
1760958961.2231803,-9.543083295008975,-0.12335476888999725,1.0033743449304333,-0.1591492080206545,12.648284761360967,-10.137140139815058,25.4116269032368
1760958961.2334177,-9.251177877171289,-0.12026897229013007,0.97937753816362,-0.1574012923347159,11.300825762646486,-11.350351360918717,21.85873405560756
1760958961.2433758,-8.987695420067286,-0.11718564644555407,0.9609790590854197,-0.15744737590675623,10.384994855269621,-11.964713812218468,18.644719079169978
1760958961.253273,-8.752243401843604,-0.11505393013024791,0.948733645298115,-0.15918357559415489,9.8719312380145,-11.95989752033655,15.952452302538683
1760958961.2632833,-8.54285922646007,-0.11432326942776228,0.942367591662292,-0.16245904524508975,9.703477855636152,-11.39345593907189,13.916285490519014
1760958961.2732344,-8.355683720495815,-0.11488980337553319,0.9409649301503141,-0.1670830530696938,9.80727742325709,-10.390230895535295,12.618170562379875
1760958961.2832532,-8.184821571293003,-0.11614199383326962,0.9432072616740197,-0.172815398071668,10.109455628172945,-9.123860535386264,12.087722242327104
1760958961.293676,-8.0224539898457,-0.11709096645008216,0.9476271972512579,-0.17935738260514522,10.542865147139752,-7.792499922804869,12.305221510724525
1760958961.3033912,-7.859230126044303,-0.1165594252974355,0.9528385264324919,-0.18635577916051138,11.050397595424485,-6.591624176969231,13.206723907268294
1760958961.3132079,-7.68491807735711,-0.11339536002511655,0.9577129146974307,-0.19342371408863918,11.584181380856672,-5.687261652700431,14.690708064247387
1760958961.323222,-7.48925188522573,-0.10667535883102416,0.9614842759565377,-0.20017499487545293,12.10231042735058,-5.193072430046048,16.625927448112797
1760958961.3331802,-7.2628779229173945,-0.09586807548175996,0.9637770773927341,-0.2062638277700306,12.565028349653351,-5.154287233137866,18.860252497052976
1760958961.343269,-6.998289585190838,-0.08093872161057114,0.9645688284500323,-0.2114203495162883,12.932078595696197,-5.540669226453119,21.230310708330816
1760958961.353209,-6.6906443990182,-0.062386807226825526,0.9641057477473042,-0.21547367735739897,13.162347021809953,-6.249458282844525,23.571662371662736
1760958961.3632827,-6.338378310051038,-0.041219105999807486,0.9627940544174953,-0.21835758094884844,13.216131814709547,-7.117898397094705,25.72910478673856
1760958961.3732185,-5.943559555587298,-0.018866034195593944,0.9610891687189097,-0.22009858652852304,13.059551177438077,-7.943673153015804,27.566513991219058
1760958961.383316,-5.511950184290629,0.0029482743034628485,0.9594018991614867,-0.22079119734547623,12.669929909814769,-8.510587848185228,28.97548195476137
1760958961.393225,-5.052762963604656,0.022371704702472017,0.958034377783061,-0.22056809513647863,12.040672483727864,-8.616251671318233,29.881970329201792
1760958961.403288,-4.578118226058346,0.037613492111010026,0.9571501432679559,-0.21957326856195133,11.1842244257586,-8.098343870509705,30.250318744069663
1760958961.4136045,-4.102224731947926,0.04714061544329966,0.9567746758655485,-0.2179433894356909,10.13219719749179,-6.856269590481139,30.084198269813946
1760958961.4231687,-3.6403340385825778,0.04985930150648086,0.9568173503113804,-0.21579921245628186,8.932433538000948,-4.865599017697242,29.42443676509503
1760958961.4335048,-3.2075483763192754,0.04525571448921526,0.9571048372480447,-0.2132462060072905,7.6435265847416165,-2.183579730317035,28.343988711617502
1760958961.4432213,-2.8175913025154475,0.03347148985226181,0.9574187212139477,-0.21038249497018072,6.32787679087864,1.054910207501254,26.94059923596544
1760958961.4533572,-2.481667136573718,0.015300304022781342,0.9575333657164663,-0.20731111110043343,5.0446236108414695,4.65049722125648,25.327880434487426
1760958961.463282,-2.207530775370776,-0.007892011332971816,0.9572515419558744,-0.2041516523705752,3.8436797079395117,8.360039399777637,23.62559324592001
1760958961.4731793,-1.9988647060355467,-0.03430746475250663,0.956435360945627,-0.20104535635183704,2.761697054765706,11.922550835415356,21.949944778235135
1760958961.4831178,-1.8550216327844156,-0.06189280257128751,0.9550295135523815,-0.1981492724033441,1.8202656092010165,15.087229402288218,20.40468881202585
1760958961.4932292,-1.771146311816087,-0.08852885620400729,0.9530733642274292,-0.19561933790877997,1.0261725229985343,17.640157837090268,19.073755068311502
1760958961.5031419,-1.7386465106796911,-0.11221040834074307,0.9506990724668329,-0.1935865955568723,0.3732586826135657,19.426432777817148,18.016019034114585
1760958961.5132577,-1.7459481928433696,-0.13120020818976666,0.9481149952300627,-0.1921337053369291,-0.15468866956879673,20.36518561689291,17.262651541031147
1760958961.5233302,-1.7794484988227428,-0.14414771431968912,0.9455762993553317,-0.19127962209442997,-0.5805381715285712,20.45602049405321,16.817258035662658
1760958961.5334837,-1.8245715709813128,-0.15016926702692432,0.9433471923186135,-0.19097883230387727,-0.9303525044656407,19.776576247845217,16.658740653043917
1760958961.5432804,-1.866833857199715,-0.14889055452851668,0.9416611565842593,-0.19113823359782642,-1.2301965810400137,18.47201750316282,16.74651663601416
1760958961.5533504,-1.8928339851484595,-0.1404544082853724,0.9406865764073694,-0.1916504405806009,-1.5034512964587905,16.738122816782692,17.027446949216156
1760958961.5633793,-1.8910954294062456,-0.12549767534576967,0.9405047249098201,-0.19243822508318764,-1.7687968959423794,14.800179858901295,17.443611617555657
1760958961.5735474,-1.852707581043201,-0.10510109697106498,0.9411052521841192,-0.1935018419496359,-2.038992321755779,12.89011266051507,17.93994593479267
1760958961.5831487,-1.7717324547301447,-0.08071637434007797,0.942401129201943,-0.19495918703842413,-2.320558483529651,11.224203373511175,18.470753144301334
1760958961.593466,-1.6453679161688401,-0.05407450073738909,0.9442604645470121,-0.19706788092024846,-2.614439878088477,9.983494884366836,19.004257995965744
1760958961.6033893,-1.4738795552132564,-0.027078352095471544,0.9465476895880874,-0.20021906595067623,-2.917633523269724,9.298524079148754,19.524662537459726
1760958961.6133816,-1.2603283229079474,-0.0016808464525719115,0.9491633128726117,-0.20489601215519207,-3.22562221497744,9.239485984475959,20.03157049272632
1760958961.6232908,-1.010128691964439,0.02025095853827775,0.9520713244423824,-0.21159674798131772,-3.535253875111267,9.81232883505665,20.537078741637853
1760958961.6333327,-0.7304742709953209,0.03708425817508689,0.9553064289430955,-0.22072776286004786,-3.8475269463520254,10.96070691259653,21.061199341651005
1760958961.6432283,-0.42966833140496885,0.04757576058164279,0.958958622542747,-0.23248371033216397,-4.169640553830363,12.573240417434278,21.62650045325857
1760958961.65355,-0.11639928527026114,0.051021840737602776,0.9631391859181125,-0.24673442759517578,-4.515697121822169,14.495188379214742,22.25290389007232
1760958961.663403,0.20099264650934362,0.04738467378882893,0.9679390165450937,-0.26294428916698354,-4.905623339973062,16.543432258706193,22.9534495820144
1760958961.673498,0.5152028396846671,0.03737026288425192,0.9733955830329428,-0.2801492939365591,-5.36219144538095,18.523563252729026,23.731564708962864
1760958961.6833022,0.8205426113287204,0.022433748604312572,0.9794855404391852,-0.2970137705677051,-5.906427197731867,20.24782387691613,24.58002337751508
1760958961.6934085,1.1133533195780745,0.004693896389904371,0.9861534628121936,-0.31197947595381126,-6.552086700440902,21.552638762948185,25.481434652793943
1760958961.7033384,1.3922090113203978,-0.013248377162385541,0.9933738907601,-0.3235030789919624,-7.300158744811783,22.314459621842445,26.409819119002663
1760958961.7136085,1.6578853563340958,-0.028577139844434028,1.00122870513931,-0.33035421934900455,-8.134444748122078,22.46265491259392,27.33265904750014
1760958961.7235157,1.9130967556365295,-0.03858962807756749,1.0099699446450179,-0.3319193572547902,-9.019203948454335,21.988239038194735,28.212744270352403
1760958961.7334216,2.1620229262250152,-0.04104804873357665,1.0200319548072583,-0.328431166192017,-9.899662583661945,20.94740466466927,29.00919128576784
1760958961.7433379,2.4096605156223028,-0.03450671024881804,1.0319589782247036,-0.3210296908834656,-10.705881318852972,19.459124431482717,29.677201297746926
1760958961.75336,2.661047498210278,-0.018562502840949433,1.046232608107933,-0.3115828582155037,-11.360080058836711,17.696541042213326,30.166459180391065
1760958961.7633398,2.9204210331349865,0.00601437261191879,1.0630217905274462,-0.30226570041249556,-11.7870988088334,15.872453499389797,30.418538420104692
1760958961.7734237,3.190383911216423,0.03729545378145473,1.0819221705533928,-0.2949937976116394,-11.927259114935113,14.219873310170534,30.36417211555921
1760958961.783194,3.4711694792087555,0.07236670570298062,1.1017767981787436,-0.29087235732852246,-11.750419581760443,12.969297003834937,29.92162821097845
1760958961.7933054,3.7601057335465695,0.10766112019505998,1.1206631454500071,-0.28982675800169194,-11.269423774618534,12.324968843486774,28.997554428937455
1760958961.803221,4.051378067275871,0.13943629112555891,1.1360933439411958,-0.2905296422316769,-10.550517483251403,12.442922242801068,27.491465355168074
1760958961.8133874,4.336168961639472,0.16434775817006506,1.145413066306203,-0.2906529428034214,-9.717959079506947,13.413836068661995,25.304509287131953
1760958961.823316,4.603209989892252,0.18002594654992732,1.1463169982012853,-0.2873743815419838,-8.950283206942709,15.253492619950508,22.352269078212913
1760958961.8336575,4.839721687080651,0.18553419217046307,1.1373535171937212,-0.277990912592675,-8.466677467804342,17.902719792136036,18.580169428338685
1760958961.843404,5.032647082734491,0.18158733994173729,1.1182897836483532,-0.2604706001389052,-8.503675236278077,21.23722716567745,13.9788066112755
1760958961.8533711,5.1700146403702725,0.17045232778900762,1.0902500481607036,-0.23382142578602033,-9.284588429471217,25.08604991778565,8.595649232255571
1760958961.8634257,5.24221407029449,0.1555242545044945,1.0556014829286002,-0.19824163655884205,-10.986182366223796,29.255818778430886,2.539626971530827
1760958961.8734753,5.242958368130278,0.14065079892496454,1.0176159088216625,-0.15508521287561605,-13.708235270299676,33.55705310466755,-4.023628000169849
1760958961.883321,5.169752739572977,0.12934056464785504,0.9799741217124347,-0.10669193072187344,-17.451373243438464,37.82819995825269,-10.886014215399035
1760958961.8933902,5.02378778535537,0.1240202965024417,0.9462113422109221,-0.05610948009807375,-22.107122261102788,41.95324056285926,-17.81853528161239
1760958961.9034739,4.809292962108967,0.12549694117583393,0.9192236423162822,-0.006719110148136454,-27.46204166293216,45.86946702435587,-24.5963685929456
1760958961.9134233,4.532495790701879,0.13274013462800519,0.9009393814042009,0.038207128516977676,-33.21556177065452,49.56360165718468,-31.022833043938505
1760958961.9233346,4.200408001338104,0.1430389535652815,0.8921967810938072,0.0759529716265576,-39.00899552176805,53.05666507346373,-36.947949007469546
1760958961.9334326,3.819685965779988,0.152511230710502,0.8927952859436307,0.10472085846863932,-44.46143588551043,56.380437833398794,-42.278449898875664
1760958961.9434474,3.395784601739464,0.1568665786544244,0.9016526208174794,0.12383427293451184,-49.20731430676913,59.55034725904749,-46.977878476681504
1760958961.953398,2.9325500349590694,0.15226606898501527,0.9170101894060609,0.13374051903173734,-52.9305265069265,62.54058170574605,-51.05740184583142
1760958961.9632564,2.4322958821794933,0.13610069235464184,0.9366577446601232,0.13582244730097892,-55.391073976578795,65.26695943568281,-54.55974969840609
1760958961.9732094,1.8963045005579335,0.1075319406028483,0.9581668665098189,0.13207055336253207,-56.44170382755621,67.58170944099876,-57.53984679851831
1760958961.9834177,1.3256100916833924,0.06769216391772302,0.9791267540076094,0.12469525519288002,-56.03364579237758,69.28222814331473,-60.04609432655657
1760958961.993208,0.7218716845551417,0.019514484340942623,0.9973725625472751,0.11576519543337176,-54.211991183326404,70.13342712223488,-62.10586251056794
1760958962.003219,0.08813753782655608,-0.03276431226542483,1.0111909064960725,0.10693965454369894,-51.102446899262965,69.90076441781686,-63.71773904042757
1760958962.01323,-0.5706654796495213,-0.08432376401003003,1.0194804033119735,0.09933010172421147,-46.89211383846059,68.38876285882438,-64.85168489263474
1760958962.0233998,-1.2476241954157457,-0.13056101721017144,1.0218407739989162,0.09349088041117279,-41.807529112623634,65.47822367491568,-65.45677034639293
1760958962.0332232,-1.9341454688603048,-0.16782349997637716,1.0185677390340635,0.08951137643917878,-36.093332374548424,61.15497118159688,-65.47485237401536
1760958962.0432224,-2.620633419129284,-0.19394476255381737,1.0105452813039815,0.08716519578048966,-29.994409258308746,55.5241363597396,-64.8575883510991
1760958962.0532913,-3.297429544915724,-0.20850108358501637,0.9990489148828579,0.08606758222724403,-23.743228373329842,48.80658383433701,-63.58366811402475
1760958962.0633175,-3.955862183107374,-0.21276447056058162,0.9854966796668398,0.08580095775745093,-17.552596610820224,41.317520388713255,-61.673129105415484
1760958962.0733113,-4.589231426067391,-0.20938421085174444,0.9712002270497763,0.085986176193417,-11.612659957280322,33.43072627259149,-59.19606743115458
1760958962.0834198,-5.193563780228556,-0.20187271244804178,0.957169536983833,0.08629721923101408,-6.090077804359788,25.534397575167787,-56.2738841663944
1760958962.0931902,-5.768006512488256,-0.19399541753083682,0.9440098710612641,0.08643463763053108,-1.1271294990038656,17.985792615258948,-53.07231174151278
1760958962.1032448,-6.314788890887432,-0.18916852168165213,0.9319235794289139,0.08608485033674618,3.1608924414659674,11.071684408283637,-49.786761019584084
1760958962.1132715,-6.838747222405225,-0.18995576820695687,0.9208012501439423,0.08489539705778375,6.690473175017933,4.98028365364533,-46.62188451340233
1760958962.1232052,-7.346481795052631,-0.1977313634542082,0.910365098215123,0.08248872561919962,9.415978120203077,-0.21182475143153592,-43.76841440589953
1760958962.1333323,-7.845274860853404,-0.2125450197840488,0.9003188267151977,0.07852079878847186,11.335196602450958,-4.536697860800452,-41.38098590133621
1760958962.1432807,-8.341939524389796,-0.23319334674324552,0.8904653750762833,0.07277096508803145,12.492177575843316,-8.117435133319987,-39.56058772262793
1760958962.1532753,-8.841783395403453,-0.25747454998748726,0.8807736757167232,0.06523382948150896,12.975708006495024,-11.13940986226624,-38.34450941568596
1760958962.163301,-9.347855302830528,-0.2825822094853951,0.8713972277242583,0.05617942934157259,12.91280544697628,-13.81507532676998,-37.705385085424076
1760958962.1733556,-9.860598243713682,-0.3055774644018157,0.8626590145948085,0.04615703462181276,12.457722267758852,-16.3475785754524,-37.55944776920854
1760958962.183214,-10.377961011164492,-0.32386687186469443,0.8550148380652293,0.03593588473849523,11.777830509433608,-18.89815640935489,-37.78265633096604
1760958962.1933167,-10.895935928754623,-0.3356090857378936,0.8489977742163589,0.02639521582392253,11.038223318234891,-21.5614622404333,-38.23211192909816
1760958962.2032979,-11.409410817210103,-0.33998377880252206,0.845142697433627,0.018389393690967606,10.386971075100535,-24.351807273743795,-38.76930549681682
1760958962.213338,-11.913172050200671,-0.3372839015551942,0.8438973412632321,0.012619126250543702,9.942796724023761,-27.201957300456495,-39.281421939029435
1760958962.223174,-12.402885081676462,-0.3288304595439803,0.8455376909114575,0.009536816501481126,9.786521942856128,-29.974648782438347,-39.69731131015855
1760958962.2332036,-12.875905239843174,-0.31674288682067697,0.8501079475421498,0.009303983911495759,9.956997944395315,-32.485375184081846,-39.99579453039457
1760958962.2432578,-13.331818574432914,-0.30361597065093376,0.8573950820517333,0.011802931231338984,10.451473292107018,-34.533358394083336,-40.205460737041
1760958962.253312,-13.772662679237085,-0.29215492537397675,0.8669338219437918,0.016688014815267573,11.229690653661615,-35.936263560276075,-40.39663861127219
1760958962.2633188,-14.202820518784367,-0.28481175187760865,0.8780312701824404,0.023451022236128164,12.220675915605993,-36.563542538538115,-40.66738679834762
1760958962.273313,-14.628614051845721,-0.2834581487470848,0.8898045649121478,0.0314754804692933,13.331250929560118,-36.36356305793119,-41.12593331230262
1760958962.2833629,-15.057650069755029,-0.2891262195925477,0.9012333315723826,0.04006594017951493,14.455597525229361,-35.38080407482322,-41.872039523389255
1760958962.2932243,-15.49798895153981,-0.3018437967684727,0.9112317977473605,0.04845499898204556,15.485446638476644,-33.76097101206064,-42.97946519646703
1760958962.3033087,-15.957217851433185,-0.3205820518480921,0.9187405957216176,0.05580571129002513,16.32049181366248,-31.74347084119207,-44.48126562425757
1760958962.3133254,-16.441513920778675,-0.34332109337159183,0.922830729508441,0.06123439504576779,16.87847634602693,-29.642039373344726,-46.35919683364946
1760958962.323425,-16.954782887900187,-0.3672293372506246,0.9228073546014701,0.06387607885126205,17.10423680453079,-27.815397287210875,-48.538118275815435
1760958962.3334012,-17.49795591199011,-0.388945314662756,0.9182982367419391,0.06300168515635016,16.976909068360527,-26.63068274398489,-50.88597658372239
1760958962.3433497,-18.068522673989186,-0.4049420608766949,0.909308450372304,0.05817530394635134,16.514532872202228,-26.4230832812225,-53.21966150943557
1760958962.3533378,-18.66036756750625,-0.4119416761049074,0.8962223459776164,0.049419090222468084,15.775423153753813,-27.45553025151094,-55.3166376052346
1760958962.3634455,-19.26395464242534,-0.4073354276199921,0.8797430106350396,0.03734187905298188,14.855903768728712,-29.88250037478705,-56.93172328970378
1760958962.373179,-19.86687533999233,-0.38956036668977706,0.8607780356555373,0.023190690911919352,13.884252453223136,-33.721883947122286,-57.817798356220266
1760958962.3832524,-20.45473538596605,-0.3583887899582101,0.8402976885069976,0.008799869825568142,13.010876509897008,-38.838476127512,-57.748737583044175
1760958962.3933818,-21.012319185274556,-0.3150967527796583,0.8191970770620974,-0.003566320090096514,12.394823597330351,-44.94182837256194,-56.542596227748874
1760958962.4033382,-21.524934959829345,-0.2624856578686972,0.7981868186675433,-0.011462917535266222,12.186902671787813,-51.599907689167644,-54.08298359169897
1760958962.413359,-21.979812341028047,-0.20473436822877566,0.7777244005594454,-0.012578368465405094,12.510172113764622,-58.2683454576122,-50.33653255947321
1760958962.4234104,-22.367397838449964,-0.14706413708556906,0.7579900977909197,-0.005080630940849572,13.439467738883579,-64.33328098628638,-45.364305978365444
1760958962.4333014,-22.682378921629134,-0.09521688679762168,0.738912085188059,0.012041824079455539,14.982893269473168,-69.16423458225248,-39.32494695438543
1760958962.4435132,-22.92427468994199,-0.05478448726607201,0.7202498585026187,0.038689206778637436,17.069325638525882,-72.1722620453386,-32.46766879667036
1760958962.4533646,-23.097469046269616,-0.030471751129075905,0.7017395192511771,0.07346635304351769,19.5462339453688,-72.86785005357574,-25.11409482629459
1760958962.4634023,-23.210632308554192,-0.02540939135155664,0.6832819940601821,0.11366711631601957,22.190854300441366,-70.91257660679454,-17.629537091405666
1760958962.4734194,-23.27557076495458,-0.04064205699781619,0.6651270978440282,0.15547567273480206,24.73506169390518,-66.15858237312634,-10.386238423192342
1760958962.4834108,-23.305643519425427,-0.07489853887697517,0.6479928597495205,0.19439768043841804,26.900917895608547,-58.67065051549495,-3.722876268990629
1760958962.4933822,-23.31396965705945,-0.12470989735364353,0.6330730888056116,0.22588171468215745,28.440927037588143,-48.72743237782705,2.094235444541673
1760958962.503451,-23.31169397209188,-0.18488160651725516,0.6219256544313616,0.24603212185234313,29.175444418757444,-36.8010191737539,6.902511596491301
1760958962.5133402,-23.306571614954215,-0.24925604923112732,0.6162854390397284,0.25226418258947464,29.020038950059803,-23.517152913851856,10.661788102392075
1760958962.5232937,-23.30207319827718,-0.31163735223225075,0.6178795691941834,0.24373599100800233,27.997856241861513,-9.60116576641668,13.456353574984929
1760958962.533229,-23.297122952135766,-0.36671126090516454,0.6283055275404039,0.22143466012784635,26.235339162038915,4.183439763536989,15.478445243243362
1760958962.5433044,-23.286489459496,-0.41079133980795174,0.6489668405430615,0.18789973954359956,23.94283410588302,17.096364759932868,16.994304665028096
1760958962.5533423,-23.261765540387916,-0.44225796887819174,0.6809966014238802,0.1466915640934211,21.383827046899995,28.475193162543963,18.297283610430217
1760958962.5633805,-23.212801640988804,-0.4616161367297808,0.725091018310176,0.10178487401073981,18.837708297488145,37.77838651209154,19.65546137587682
1760958962.573237,-23.129394655659752,-0.4711668179033507,0.781229973755655,0.05704583471293645,16.561373729562565,44.61378006372325,21.262912509152933
1760958962.5833411,-23.002987933983814,-0.4743525664755196,0.8483373434801508,0.015864591141707404,14.754964908657014,48.75204152989087,23.20365060885259
1760958962.5933423,-22.82812082527602,-0.47489354104000525,0.9239848128195087,-0.019063195348522598,13.536749607180088,50.126485774408046,25.43536302525945
1760958962.60338,-22.603389456405395,-0.47587229610129667,1.0042543268992723,-0.04584490098789946,12.931358343270492,48.82190748399865,27.796711785804764
1760958962.613547,-22.331749861637686,-0.4789500781653001,1.0838551271605332,-0.06342475094402604,12.873950721704338,45.05561274082848,30.03776846008074
1760958962.6232643,-22.020103976151656,-0.4838926114986475,1.1565492347176687,-0.07156142706227488,13.230213124095966,39.153755125482405,31.868721939348244
1760958962.6333475,-21.67823904541832,-0.48853609052374675,1.2158755054885362,-0.07075647519833503,13.828764109445189,31.525715436475185,33.01811161752319
1760958962.6433444,-21.317313724442304,-0.48923398121914635,1.2560838157084246,-0.06214388273159095,14.499489641951905,22.63882421451643,33.28940217700777
1760958962.6536787,-20.948171200677052,-0.48170916256754615,1.2731143002214815,-0.047364504929150515,15.1096087095582,12.995156413829305,32.60456490287921
1760958962.6635146,-20.579789106780343,-0.4621205465343271,1.2654050380819921,-0.02845335231587383,15.589580815871555,3.11118924914441,31.025813569385424
1760958962.6733885,-20.21813757578334,-0.42807493573261163,1.2343136577062603,-0.007748126077147032,15.943389451662913,-6.500273532594337,28.75135968035757
1760958962.6833308,-19.86561803618655,-0.3793158648034555,1.1840162642278835,0.012209062433281867,16.241669256989535,-15.347948654229597,26.08684919744874
1760958962.6933348,-19.521124455676,-0.31791874709358536,1.1208874947317926,0.02882943303246232,16.600346553143105,-22.98237260340483,23.399331792426782
1760958962.7033443,-19.180646318036143,-0.24797867261269502,1.0525106420980515,0.039732060892656726,17.150482181528258,-29.020394579720055,21.063564890625244
1760958962.7134812,-18.838251008016883,-0.17492105705227817,0.986553251239924,0.04307663852214694,18.006038220361905,-33.173092871908246,19.410463893549686
1760958962.7233727,-18.487250273672057,-0.10463864757051666,0.9297453557862047,0.037891752828310483,19.23563113230697,-35.27334035555567,18.68521487277541
1760958962.7333486,-18.121360111241604,-0.04265113920150317,0.8871294026177338,0.024285493506127482,20.84286318048983,-35.297270293468614,19.019432720461396
1760958962.7432754,-17.73569405473243,0.006573546802782863,0.8616495600596638,0.0034500673291451107,22.75817124538731,-33.373876243909876,20.419043407577306
1760958962.7532985,-17.327479362860807,0.0400645278630093,0.8540564660967813,-0.022558743119661957,24.84340208173144,-29.77881321390685,22.767687007754787
1760958962.7631583,-16.896444779299216,0.05654222477926655,0.8630545580132636,-0.05120699054299975,26.908415861539297,-24.911396892164092,25.84405086992348
1760958962.7734215,-16.44488453795037,0.05638117461757404,0.8856189927985024,-0.07992028568250098,28.73702920852528,-19.256945713778105,29.35027169367073
1760958962.7833123,-15.977444419558353,0.04138464693289173,0.9174365250782902,-0.10645822361792028,30.117924636141975,-13.3392135911037,32.94742414726947
1760958962.7933536,-15.500694930758074,0.014429485478616588,0.9534504043666582,-0.1291521662446477,30.875261456569124,-7.669207996374482,36.293475402537545
1760958962.803365,-15.022554813866991,-0.02095162010501528,0.9884939187236158,-0.14699442899337697,30.893921794844445,-2.697031232457738,39.07916952551658
1760958962.813484,-14.551615485564408,-0.06098463651105218,1.0179718357040277,-0.15961463352015137,30.135555114598603,1.2273382410895612,41.05804868241426
1760958962.823321,-14.096408256341658,-0.1020160172833031,1.0384972166543756,-0.16719222769262732,28.643442391677663,3.8799631968532764,42.067941863223076
1760958962.8334668,-13.664659768170928,-0.14079825998932005,1.0483446621453645,-0.17033745835500466,26.536138066507295,5.173335718965355,42.04246731440419
1760958962.8433185,-13.26259380879333,-0.1746958075555106,1.0475923771225588,-0.16995230374143686,23.991458524837245,5.151352198475049,41.01222531804254
1760958962.853329,-12.894348655133474,-0.2018134789504122,1.0379118280400539,-0.1670796956773536,21.22354563593162,3.9710748784002954,39.09633334140148
1760958962.8636436,-12.561578767648312,-0.22104712001136959,1.0220756871363288,-0.16275988943828618,18.456477515773923,1.874911302143139,36.48575957707953
1760958962.8736954,-12.26329522506297,-0.23205789483346073,1.003326783448657,-0.15791856287458353,15.898229290267986,-0.842509044346601,33.42056102262838
1760958962.883401,-11.995973381642166,-0.23518087703331986,0.9847615698317569,-0.15330366509521332,13.718615550031751,-3.868524462367235,30.16364982155733
1760958962.8933125,-11.753922573785832,-0.23128819880677837,0.9688484032557262,-0.14947260281561836,12.034076503977364,-6.904034663853632,26.974050827658317
1760958962.90333,-11.529875003622747,-0.22162947364903904,0.9571470241800061,-0.14681614620546674,10.900859767801926,-9.689770906501236,24.082649250091578
1760958962.9134111,-11.315715336860023,-0.20766756158653035,0.9502397682704531,-0.14559656226712697,10.316604823238087,-12.025579773363653,21.673047707970124
1760958962.923197,-11.103248187548088,-0.1909215063957551,0.9478415650606529,-0.1459786713733887,10.228968382967208,-13.781989559943705,19.869353400791017
1760958962.9335594,-10.884895403595348,-0.17282468330416736,0.949030898507514,-0.14804213590055487,10.549009091843736,-14.903981488280118,18.731626893962474
1760958962.94336,-10.654231364488119,-0.15460501317293865,0.9525359412647447,-0.15177500474426311,11.166655490454918,-15.40731062610507,18.258567422922585
1760958962.953275,-10.406299189808303,-0.13719444009938658,0.957015157689857,-0.15705716028809777,11.965690704338613,-15.368072669150356,18.396028657869124
1760958962.9635203,-10.137696512502552,-0.12117569283869144,0.9612862996738418,-0.16364633247506893,12.836224163034474,-14.90662905080207,19.049341962452168
1760958962.9733093,-9.846465820267277,-0.10677378661544533,0.9644774039238828,-0.1711786658581829,13.683436470105342,-14.167522595285824,20.097259681958068
1760958962.9832478,-9.531859873202533,-0.09389578721056052,0.9660933018073109,-0.1791909413154345,14.432282405628943,-13.297566526815412,21.40558507826014
1760958962.9932475,-9.19406892530743,-0.08221497166381575,0.9660076117056676,-0.18716455538844892,15.028618695341006,-12.42471022370124,22.839087227604633
1760958963.0032344,-8.833991279827558,-0.07128705938329281,0.9644004716158813,-0.1945849563338131,15.437724807464715,-11.640386800030946,24.27092773006212
1760958963.0134046,-8.453106332125875,-0.060679989245780046,0.9616654241239609,-0.20100594630923174,15.64134231709684,-10.9877071115579,25.589403151404436
1760958963.0234382,-8.053477032050758,-0.05009671355309566,0.9583068878522668,-0.20610647708305374,15.634232041694064,-10.457099741685054,26.702241504213333
1760958963.033252,-7.637873311811273,-0.03947207202649223,0.9548454548487875,-0.20972846370553352,15.420966101105368,-9.989956342147547,27.538939390694622
1760958963.043343,-7.20997435803932,-0.029028212507813688,0.9517430209354473,-0.21188779090449245,15.01335032842418,-9.489723710268068,28.051687125412535
1760958963.0533073,-6.774580270372513,-0.019277479379951612,0.9493534393995836,-0.21275657083833874,14.428586424274897,-8.838858591172114,28.215342438466116
1760958963.0635152,-6.337748659515353,-0.010968189919909957,0.9478976611786444,-0.21262143089706192,13.688076162138096,-7.91925163463315,28.02674831987329
1760958963.0735517,-5.906775560834133,-0.004978470233191008,0.9474571817162495,-0.2118281804665096,12.816658589772743,-6.633220686455824,27.503516710555985
1760958963.0834444,-5.489964891790752,-0.0021747566707108804,0.947978361497056,-0.21072554154216744,11.842042600439196,-4.922036540330676,26.68226361617713
1760958963.0934227,-5.096170029281941,-0.0032595363182848476,0.9492835956541069,-0.2096184602170647,10.79421813987594,-2.7792214817622525,25.616202360996954
1760958963.10332,-4.734132887541,-0.00863337708051172,0.951091039109972,-0.20873603325755236,9.704671404901259,-0.2565535650310536,24.37198046702626
1760958963.113388,-4.4116823719328355,-0.018291435758659234,0.9530478818992898,-0.2082140301867966,8.605284214167247,2.538257146836105,23.025675256507917
1760958963.1234019,-4.134885083225844,-0.03176970799399967,0.954779563327661,-0.2080903515933783,7.526869004373225,5.452033384040552,21.65794308395175
1760958963.1333256,-3.907265503153343,-0.04815214291942495,0.9559501054473845,-0.20831276929406353,6.497382212607006,8.303335036813905,20.348453984394197
1760958963.1435013,-3.729221251344543,-0.0661423810271033,0.9563219053215591,-0.20875891135979346,5.5399669244764524,10.903984798649246,19.16993381215228
1760958963.1532147,-3.597740214696069,-0.08419170630902388,0.9558010206035263,-0.209266938152785,4.671084115207968,13.081848713303422,18.182344779962698
1760958963.1634004,-3.5064799170563683,-0.10066242903441319,0.9544567620442374,-0.20967251014807292,3.8990657913799853,14.701660940241394,17.427895595468723
1760958963.1735613,-3.4462084402800226,-0.11399951712496277,0.9525103178645066,-0.20984549873192793,3.2234216430914273,15.681086460569869,16.92761142922697
1760958963.1833065,-3.4055485694134497,-0.12288501981977114,0.9502941179013578,-0.20971971159378455,2.6351354144655246,16.000066229907276,16.68007237985488
1760958963.1935065,-3.371926035438041,-0.12635730295692824,0.9481902464926927,-0.20931041214696566,2.118018506983017,15.702567707084325,16.66265802810563
1760958963.203338,-3.3326038427997773,-0.12388634526710351,0.9465609848891463,-0.2087166547727694,1.6509913047089237,14.89094082731431,16.83526447373182
1760958963.2134016,-3.275686223092591,-0.11540434252921662,0.9456860359445879,-0.20810796003417895,1.2109871649552875,13.713990721817742,17.146059683622155
1760958963.2233891,-3.1909931550579307,-0.10129641931891292,0.9457186078846429,-0.2076974372696868,0.7760582952617024,12.350533840656052,17.538491393705105
1760958963.233374,-3.070733973014527,-0.08235922573340065,0.9466672067370536,-0.20770541868745174,0.3282179613118323,10.990570303916012,17.958531495805534
1760958963.2435274,-2.909940532719689,-0.05973593057363311,0.94840352616511,-0.20831827520872698,-0.14442982445563715,9.816280382785521,18.361087539711086
1760958963.2533987,-2.706651482468768,-0.034835242602660105,0.950691372881842,-0.20964695702145938,-0.6466431016105915,8.984857839814149,18.714660020450047
1760958963.2633312,-2.461864982002864,-0.00924016834174522,0.9532288748346945,-0.211690387436745,-1.1762904296424357,8.614782252996678,19.003650186139073
1760958963.2734365,-2.179294303496866,0.015390328236757959,0.9556963910403661,-0.21431037386437848,-1.7258803103060554,8.776588885694558,19.228159502359134
1760958963.2832658,-1.8649677268223215,0.037426029369690646,0.9578039580741646,-0.21722592029266938,-2.2851068906576564,9.488604099043746,19.401577101913258
1760958963.2932973,-1.5267122153699744,0.05537713859036258,0.9593332397101255,-0.22003443284030733,-2.8439358207923235,10.717558394399406,19.54662954239985
1760958963.3033385,-1.173552736622826,0.06801306641908149,0.9601697301189468,-0.22226455744617074,-3.395619522544413,12.383542960602423,19.690786465986243
1760958963.3132718,-0.8150504419593154,0.07448564520487458,0.9603223230658344,-0.22345993700334163,-3.9389901283395794,14.36848515039406,19.861931190723357
1760958963.3233464,-0.46059896709794934,0.07444855670396142,0.9599298716765347,-0.2232855574229515,-4.479443153815643,16.52717921144252,20.085020782023495
1760958963.3333416,-0.11870390942884633,0.06815711279483408,0.9592573621386316,-0.22164026977538875,-5.028208242885043,18.699876025582142,20.380124327805866
1760958963.3435225,0.20371294651725272,0.056525401850527,0.9586861380193095,-0.2187528192897476,-5.599798843740952,20.725463373252463,20.761823064432853
1760958963.3535192,0.5019223384808407,0.04111590065900711,0.9587015533580884,-0.21523629268788472,-6.207885075919066,22.454342951757482,21.23958326740748
1760958963.3633218,0.7738344319862178,0.024043844905809904,0.9598770663898296,-0.21207844142697124,-6.86014792405907,23.76023921003549,21.81846318309179
1760958963.3733234,1.0202149595855676,0.007793516617455775,0.9628482208786393,-0.21055319609272694,-7.552885461613418,24.55034312171897,22.49943633497001
1760958963.3833444,1.244624456275913,-0.005040518137572182,0.9682675902214306,-0.2120517494820901,-8.266279967581072,24.77335623060937,23.278712446665494
1760958963.3937185,1.4530642129724163,-0.012063092605481477,0.9767359877631732,-0.21784852955148687,-8.961359183312952,24.42510471983622,24.145697545672544
1760958963.403499,1.6533401060132424,-0.011408797353797538,0.9887149893550319,-0.22883461080823486,-9.579774387821073,23.551395586108544,25.07960761131846
1760958963.413279,1.8541792718727066,-0.002057946402429695,1.0044362198817198,-0.24526379222330272,-10.047445359587106,22.247681702690343,26.04515473179168
1760958963.4232569,2.06415893188884,0.015903060357933707,1.0238292074353037,-0.2665612071046201,-10.282750680340952,20.65496898853102,26.988086045861532
1760958963.4332592,2.2905349818514735,0.04112437380420675,1.0464895112723667,-0.2912399262747425,-10.20922677780397,18.95139206143855,27.831625508162748
1760958963.4432633,2.538088483753906,0.07098770621114475,1.0717019961312275,-0.3169581887536764,-9.771753156788115,17.339161027742655,28.475006723397854
1760958963.4532747,2.8081341895846434,0.10179622086148142,1.0985218005408675,-0.3407296601680925,-8.954105857360721,16.027217543344992,28.79524584645754
1760958963.463436,3.0978472687589353,0.12918225166067682,1.1258994493150778,-0.35927280611109463,-7.794793995736537,15.210875904261925,28.653050606281834
1760958963.4735234,3.400052444842555,0.14872094059617263,1.1528178027423128,-0.3694552548235417,-6.397563574424333,15.050759967122984,27.903285553786393
1760958963.483361,3.7035759444961163,0.15668820166800895,1.1783902895046432,-0.3687582522024825,-4.9331459217824385,15.654157404677061,26.40972028564598
1760958963.4940243,3.9941835027357357,0.15084229583200498,1.2018662218162617,-0.35566443273176873,-3.6298676355128077,17.062149887475492,24.06288946139563
1760958963.503532,4.256025091835952,0.1310539195764054,1.2225234398450788,-0.32987963862179176,-2.752566837646701,19.245299783647486,20.79885995204965
1760958963.513378,4.473398674624403,0.09959201540132048,1.239499945844344,-0.2923490052946999,-2.571689526144348,22.109270689085598,16.61573578160661
1760958963.52336,4.632561558676541,0.060928380146004345,1.2516734957054105,-0.24509511510829612,-3.3270134110882577,25.50982271022028,11.58421301962895
1760958963.5334723,4.723288509814756,0.021049308186843006,1.257688150161865,-0.19094832081488483,-5.192304646334266,29.27470135734696,5.848867902349861
1760958963.543412,4.7399126349449645,-0.013600349095759306,1.256158049936244,-0.13323912874202815,-8.24744944603538,33.22858906863147,-0.38168003762565567
1760958963.5534494,4.681678224286478,-0.037321169683462406,1.2460015450047268,-0.07549433994829657,-12.462961196096224,37.21679369229212,-6.855347675038837
1760958963.5635169,4.552361500024293,-0.04625519004963599,1.2268063580114232,-0.02114554461636306,-17.698929698577103,41.12367215640944,-13.305178545796805
1760958963.573507,4.35924789573401,-0.03913771744180065,1.1991068130930946,0.02675716604277182,-23.717610583852863,44.88273979322432,-19.481406875289146
1760958963.583373,4.111665441607034,-0.017545904205209167,1.164473823330244,0.06582054477337419,-30.20677823725638,48.47678965500205,-25.181588567119142
1760958963.5933669,3.8193423779696483,0.014394997107404698,1.125378231194484,0.09453980509816265,-36.80983418617871,51.92795541251398,-30.273566365607604
1760958963.6033905,3.4908742816689866,0.05076377023932393,1.0848635222279175,0.11243994986578891,-43.158291660280554,55.27931556462706,-34.707197160138634
1760958963.6135194,3.132553023457661,0.08488298328322756,1.046115702837806,0.12009149593451564,-48.90254501438209,58.571138546565194,-38.51274186278883
1760958963.6233687,2.747735259447641,0.11043964827003011,1.0120282437147436,0.11899177088235406,-53.73772991713433,61.81594218152057,-41.7862455143347
1760958963.633382,2.3368264895905604,0.12248869480768179,0.9848402764317578,0.1113299175089802,-57.42278533498628,64.97695534608128,-44.66460982565036
1760958963.6435173,1.8978468922488094,0.11818113572012923,0.9658960207351326,0.09967346591260806,-59.7921699849981,67.95424008856402,-47.29490268324073
1760958963.6533608,1.4274465289531957,0.09711776964063411,0.9555448791952201,0.08662585574495461,-60.76066560295087,70.5817354975896,-49.80341850817067
1760958963.6635172,0.9221666544317711,0.06129708527038649,0.9531804825790355,0.07450780852566116,-60.322102889338126,72.63696728724278,-52.269911459558514
1760958963.673484,0.3797124035739654,0.014693345764799201,0.9574029406057647,0.0651091016903276,-58.54279716904719,73.86326507594606,-54.7112889777396
1760958963.6834059,-0.19998604888260274,-0.03744258968591335,0.9662765437164113,0.0595405951902342,-55.55036915769337,74.00219237844867,-57.07715853479619
1760958963.6933284,-0.81409757151448,-0.08943026606266319,0.9776419151758718,0.05819466626643074,-51.51882861889375,72.83178585716358,-59.2574354000548
1760958963.7032573,-1.4567001454873585,-0.13601229650028174,0.9894302871649364,0.06080353759425014,-46.65138897516974,70.20455178221691,-61.10021686601652
1760958963.7134502,-2.1190966751674933,-0.17308165086079927,0.9999248608109376,0.06657314285287169,-41.16313756734584,66.07849613672683,-62.436643010976766
1760958963.7233353,-2.790580275807072,-0.19818304010029578,1.007924810043275,0.07436405289645476,-35.26591698866552,60.53514653414107,-63.10864990004205
1760958963.733476,-3.459530012845581,-0.21073039568988336,1.01279048588736,0.08288901792532426,-29.157303597712364,53.780557059381266,-62.99537272081331
1760958963.7435756,-4.114673581350061,-0.2119296532339983,1.0143769894946348,0.09089881610609023,-23.01453292724779,46.128257862986224,-62.03437247379229
1760958963.7534409,-4.7463312697333375,-0.20444215812507613,1.0128884419591753,0.09733421932577414,-16.99300528646025,37.96636314397265,-60.23471840680975
1760958963.7634602,-5.347459133039101,-0.19186285748864954,1.0086999872525715,0.1014305510891706,-11.227990795397211,29.713869778935766,-57.68014290591138
1760958963.7736752,-5.914339361589682,-0.1781115592026308,1.0021957433887458,0.10277009231846244,-5.837597383416711,21.772969619817307,-54.521873707391784
1760958963.7833295,-6.446818727756031,-0.16683957784711265,0.9936597191144209,0.1012843727805683,-0.9250790690271284,14.48465390702696,-50.96220135277168
1760958963.79351,-6.948064078892706,-0.1609389265197495,0.98323811501099,0.09721318106989017,3.4209048197120056,8.09401710581298,-47.23118886081639
1760958963.8034556,-7.423876981700229,-0.16221329001226442,0.9709716542831662,0.09103200918426672,7.128595474763518,2.7297357438999086,-43.55997178286122
1760958963.8136187,-7.881675939803526,-0.171236862512534,0.9568799491217074,0.08336501824494968,10.147543302670742,-1.6003099107668135,-40.15461819593617
1760958963.8233466,-8.329302233210608,-0.1873952250143618,0.9410688634309614,0.07490247540101266,12.45384956279757,-4.997820995983552,-37.17436083843074
1760958963.8334131,-8.773827156332864,-0.2090782541487692,0.923828825496712,0.06633576857836739,14.054603965118607,-7.649914993190892,-34.717179278018385
1760958963.843395,-9.220534485582617,-0.23398306438059605,0.9056979549005477,0.05831192936679739,14.990041527851686,-9.796088086169547,-32.8144362274876
1760958963.85349,-9.672225926316628,-0.2594826164642588,0.8874747704372233,0.05140101867893502,15.332447729142485,-11.691070989169182,-31.434911158909593
1760958963.8635433,-10.128950849604193,-0.28301519050623347,0.870175151960866,0.046068520393566674,15.18144275197353,-13.568339753309107,-30.49734764851926
1760958963.8733392,-10.588197069735102,-0.3024477906501076,0.8549361225959572,0.04264840141299652,14.655888692517179,-15.608545577764856,-29.889561412121147
1760958963.8834817,-11.04550494264358,-0.31636641028164475,0.8428785153544681,0.04131642974095089,13.883311205540924,-17.91638111529176,-29.491245639285562
1760958963.8934948,-11.495397390488906,-0.32425329386416946,0.8349519361282919,0.042067209925389135,12.98831608184795,-20.508515222958756,-29.196993801169413
1760958963.9033847,-11.932470047341575,-0.32652781274539083,0.8317929327314155,0.04470259926310943,12.081772633722448,-23.314124392080437,-28.93594815862149
1760958963.9132912,-12.35246953399096,-0.3244502489026084,0.8336252945842066,0.04884105470607645,11.25235890989815,-26.188123068831676,-28.68499395339142
1760958963.9233098,-12.753202891277724,-0.3199091361775486,0.8402196129193533,0.05395390082255399,10.561481299827546,-28.935523979100168,-28.473483497852477
1760958963.933433,-13.135155965511359,-0.3151260229179602,0.8509127859376518,0.05942597358028318,10.041839415361624,-31.343734436561103,-28.3788547771137
1760958963.9434295,-13.501741166628172,-0.3123163448602987,0.864674660749708,0.06462860130037602,9.699279277783342,-33.218370683658335,-28.51390795345845
1760958963.953482,-13.859140124277932,-0.31334604078495,0.8802035117618,0.06898759539442155,9.517220693438023,-34.417584647782995,-29.007668014324274
1760958963.9635556,-14.21575284816397,-0.3194234927015719,0.8960340536714316,0.07203119334806234,9.462845430539998,-34.87999174348794,-29.982543600456786
1760958963.97336,-14.58130984701113,-0.3308650324797346,0.9106475664871158,0.07341162092039696,9.494284431190366,-34.641993971929715,-31.5308528452086
1760958963.9833004,-14.965743913312776,-0.34696846323957403,0.9225800664765051,0.07290419346387692,9.568145064559511,-33.841530884749375,-33.69377524549474
1760958963.9935644,-15.377950071959548,-0.366020939780952,0.9305279315975507,0.070394764028106,9.646796459946067,-32.706994931715904,-36.44548121097877
1760958964.0033302,-15.824580644243438,-0.38545230406751213,0.9334481797006814,0.06586758371906379,9.70483158835349,-31.53207815693748,-39.684629917104004
1760958964.013549,-16.309022485622503,-0.4021223427786068,0.9306442702511487,0.05940159530405946,9.734082309185514,-30.639397102740247,-43.234609850658856
1760958964.0233607,-16.830683008955056,-0.4127066639931632,0.9218248101960184,0.05117667245593325,9.746598409074197,-30.337517495774105,-46.852848655772114
1760958964.033565,-17.384673551890995,-0.41413061286464575,0.9071274163925911,0.041486811581351465,9.775194431904342,-30.877151764189033,-50.2483790783386
1760958964.0436573,-17.961930933284215,-0.40399846572258113,0.8871096644869007,0.030756947412212878,9.871441702367695,-32.41259736896544,-53.105872653097364
1760958964.0538216,-18.54977059823127,-0.38097191435209327,0.8627142417930788,0.01956107477838098,10.101169371633812,-34.973810098380625,-55.11376406963354
1760958964.06344,-19.132824773231672,-0.3450594052774911,0.8352123080275752,0.008637175644134364,10.537567308607917,-38.45297125364873,-55.99389929705907
1760958964.073517,-19.694287636598055,-0.2977804358059098,0.8061227947534634,-0.0011118074022381122,11.251961249319436,-42.60736654084958,-55.530157356033946
1760958964.0836973,-20.217362505251863,-0.24216700882270303,0.7771033190282995,-0.008647768400778749,12.302459956365663,-47.078294429087954,-53.593493561536874
1760958964.0933557,-20.686779769384014,-0.18256763525153744,0.7498146200010419,-0.012874635406364614,13.72115270544078,-51.42389508869835,-50.16075636035508
1760958964.1034443,-21.09023220224244,-0.12424108279487019,0.7257735407860362,-0.012769815728805575,15.50141999154132,-55.16237166357234,-45.324615537395026
1760958964.1135674,-21.41956688593554,-0.07276988519520375,0.7062203330346392,-0.007558360260344859,17.587928909823066,-57.82105041606271,-39.29234594615439
1760958964.12337,-21.67158999957815,-0.033371450154446966,0.6920220772910961,0.0031028930625797554,19.872407080285065,-58.986047326780806,-32.37226025107118
1760958964.1333773,-21.848383231925823,-0.010216446156403495,0.6836144899154479,0.018977877128578614,22.19779797605426,-58.346987610874656,-24.948162867662642
1760958964.1433976,-21.957090125013718,-0.0058697832628549105,0.6809667676101824,0.03918506778253473,24.371870067812555,-55.731387316025,-17.443940557978838
