timestamp,angle,linear_acceleration_x,linear_acceleration_y,linear_acceleration_z,angular_velocity_x,angular_velocity_y,angular_velocity_z
1760598804.7804062,-6.067913865819859,-0.09665965320821662,0.9872195013763635,-0.025951703464720016,-0.8466491270579561,-4.40544145725522,-1.027727425270718
1760598804.790305,-6.058191425113186,-0.0980483545392277,0.9870223480422229,-0.025257376540701378,-1.257515188856095,-4.162140290872592,-0.8009895694485037
1760598804.8002357,-6.0517506340490055,-0.09990868613046741,0.9866611235700615,-0.023927467198705622,-1.6892045369522055,-3.8695220104178385,-0.5913339444043227
1760598804.8102393,-6.049327206052982,-0.10205476419589886,0.9861590769402401,-0.02204687389231491,-2.12598615942606,-3.5583758556442455,-0.40704138172268906
1760598804.8201942,-6.05108562670219,-0.10426891884641172,0.985548228552887,-0.01976787511674006,-2.553998335345806,-3.2607016916732374,-0.25274099023352525
1760598804.8302038,-6.056582601577455,-0.10631338478183425,0.9848721341053305,-0.01729536432210633,-2.961892161687863,-3.007424682995254,-0.12948189700578627
1760598804.8402464,-6.064775378099356,-0.10794386823950049,0.9841874338724009,-0.014864239542155792,-3.3409478265494603,-2.8261039667363885,-0.035185734237255586
1760598804.8502932,-6.074079956576337,-0.10892619334520635,0.9835630772260391,-0.012710932902763818,-3.6847344520708964,-2.7388153167604883,0.03467866880838945
1760598804.8602078,-6.082484100170013,-0.10905705053167171,0.9830769321221705,-0.011041766986512663,-3.9884972816133715,-2.7603947783787133,0.08636259203139539
1760598804.8702648,-6.087716329608674,-0.1081883080717671,0.9828100445546165,-0.01000114982812055,-4.248534165370812,-2.8972109682562546,0.12718203264209946
1760598804.8802757,-6.087463571589631,-0.106252072837043,0.9828389936536814,-0.009642801936177036,-4.461841303348728,-3.146589540615306,0.16502497378601544
1760598804.8903482,-6.079619567469675,-0.10328225384948196,0.9832269265159779,-0.00990736118582443,-4.626251175381554,-3.496953211414392,0.20805184473200203
1760598804.900062,-6.062537661176555,-0.09942842767041142,0.9840139540545706,-0.010609622395323728,-4.741158533128207,-3.928677081973824,0.26457282850907116
1760598804.9102907,-6.035256880480994,-0.09495854448868352,0.9852074667619569,-0.011438122772555343,-4.8087625177292415,-4.415602258888906,0.34305350620686864
1760598804.920274,-5.997669007905555,-0.0902478252981036,0.9867728073827232,-0.011968908660132787,-4.835588825834763,-4.927107013521274,0.4521839335699599
1760598804.930004,-5.95059754289841,-0.08575266550594676,0.9886249995749862,-0.011694438470291078,-4.8339378933464765,-5.430606642132587,0.6009431293598149
1760598804.9400814,-5.89576904722568,-0.08197094281465019,0.9906228912583013,-0.010067791518340882,-4.822861041815132,-5.894341048331881,0.7985991122988096
1760598804.9503362,-5.835672430387135,-0.07939277039499376,0.9925678448444835,-0.006561412492528216,-4.828303421461203,-6.29030583787008,1.0546058557854423
1760598804.9600365,-5.773317488278696,-0.07844693785587953,0.9942096625259935,-0.0007381274961866268,-4.8821567197836915,-6.597169682762925,1.3783962167531505
1760598804.970298,-5.711916037739457,-0.07944807234439268,0.9952623555582814,0.0076702216358660496,-5.020111440764858,-6.802979926091134,1.7791218671359863
1760598804.9800513,-5.654516631972538,-0.08254920162264782,0.9954312267730625,0.01868442037824569,-5.27836802134008,-6.907393988215006,2.265444607061055
1760598804.9903328,-5.6036282487592795,-0.08770442303648156,0.9944504762267337,0.03201099608215975,-5.6894501781366875,-6.92311408445357,2.845516647401002
1760598805.0002844,-5.5608693492413925,-0.09464609365223443,0.9921276314384243,0.04700007787209347,-6.277559847153085,-6.876178607188387,3.527278432319313
1760598805.0099893,-5.526675422481541,-0.10287992081265611,0.9883882905333891,0.06264127255360424,-7.054107096665185,-6.804794556978229,4.319139457743899
1760598805.0202808,-5.5000912773008475,-0.11170005964777184,0.9833127261828837,0.07760868712281041,-8.014202506763864,-6.756490455770791,5.23099831700984
1760598805.0303626,-5.478666211874119,-0.12022535993100132,0.9771555037372438,0.09036217324712847,-9.134952389174426,-6.783531929583962,6.2754297307903055
1760598805.0403187,-5.458462536152368,-0.1274569642515519,0.9703406772579112,0.09930576504623231,-10.376284653213498,-6.936769221487074,7.468752389421193
1760598805.0502305,-5.434180773220306,-0.13235579731543937,0.9634281606264306,0.10299562833801804,-11.684721603450747,-7.258364177412003,8.831623769220592
1760598805.0601504,-5.39939714343039,-0.13393568478502466,0.9570516019372936,0.10037830470293302,-13.000026232285272,-7.774148222223273,10.388811381467377
1760598805.070017,-5.346899699370939,-0.13136419007567196,0.9518350186269766,0.09102637040624566,-14.264052696109987,-8.486643852758915,12.167875262701028
1760598805.0804167,-5.26909957729247,-0.12406004101234437,0.9483034976699044,0.0753260544431682,-15.430536337972914,-9.36996456767299,14.196660327794486
1760598805.0905564,-5.158486418321753,-0.11177487729759122,0.9468078066473038,0.05456616108557827,-16.474095330685973,-10.367820479970966,16.499722550784906
1760598805.100151,-5.008094461029866,-0.09464801020247839,0.9474791981609977,0.030886110908867264,-17.396532703590594,-11.395674268200247,19.094060249044723
1760598805.11067,-4.811946650075148,-0.07322432175836764,0.9502211479233136,0.007064205721495805,-18.2287560273774,-12.34771990082157,21.98472466119922
1760598805.1202533,-4.565445226403368,-0.04842675550053976,0.9547365503528167,-0.013838371827371618,-19.027321953702387,-13.108763902955017,25.16098154364223
1760598805.1303427,-4.265677138239704,-0.021477169358239317,0.9605849933856146,-0.028921424220359756,-19.86566178708133,-13.570215065461245,28.593673907999268
1760598805.1403093,-3.9116017812611696,0.006235755334410741,0.9672612126126006,-0.03588347681923885,-20.821190912713607,-13.648280878243416,32.23430758240168
1760598805.1502724,-3.5040912399135493,0.03333313590452871,0.974279873574586,-0.033346057351489995,-21.96043555392088,-13.301422485273552,36.01613473545071
1760598805.1601324,-3.0458067154604547,0.05864401657997921,0.9812475241667428,-0.020986697336443205,-23.32481277087025,-12.543606462178278,39.85715503212526
1760598805.1703002,-2.5409213743103094,0.08138837941807951,0.9879053856729112,0.0005317620332711883,-24.91970896300826,-11.450244601402352,43.66460459830986
1760598805.1802273,-1.9947303007066652,0.10130383381393054,0.9941348326465359,0.02977871170810062,-26.70901672787271,-10.154859306584877,47.34032575397093
1760598805.1900043,-1.4132084372977116,0.11868234105460909,0.999924395169623,0.06482458342504394,-28.61632647553884,-8.836071505065838,50.78646297655818
1760598805.2000363,-0.802579301374251,0.13430110444645682,1.0053020237088899,0.1034745889077955,-30.532663944554017,-7.696115167574639,53.91110780901899
1760598805.2100976,-0.16894347624074577,0.14925531769818245,1.010244620540588,0.14343013844558677,-32.32936827451739,-6.933528459644649,56.63365754943725
1760598805.220141,0.4820045441311923,0.16472370774870435,1.0145895473207445,0.18239934336368063,-33.87385393085288,-6.713804601799239,58.88966953457656
1760598805.23036,1.1451617486688837,0.18171457039794756,1.0179813953577448,0.21821100004243327,-35.04582016322282,-7.142431955888225,60.63490145446508
1760598805.2402377,1.816109630954397,0.2008459203884299,1.0198813259862212,0.24897305681144152,-35.75181235440972,-8.244744892536822,61.84812037907153
1760598805.2505865,2.491130259378562,0.22220659828787798,1.019644893959585,0.27326479042948276,-35.936526686479965,-9.956231241955866,62.53224351408883
1760598805.2603438,3.167165943249429,0.24532691153909242,1.0166482919347248,0.29030116692155283,-35.5896489209411,-12.125405783570915,62.7134983337533
1760598805.2702935,3.841743404973342,0.26926203470907,1.0104259689227308,0.30000122201060236,-34.74741892391418,-14.52928860675145,62.43854833114394
1760598805.280487,4.5128798921781526,0.29276546263599873,1.0007813684321492,0.3029333421617476,-33.48870725155057,-16.899374249837663,61.76985874393237
1760598805.2903478,5.1789828764710855,0.3145103520442229,0.9878449453757313,0.30016140433000055,-31.92616134319924,-18.954242044163927,60.77987337539105
1760598805.3000722,5.838748934373495,0.333309126842161,0.9720714917333522,0.2930430266459575,-30.19369867000454,-20.433969543026684,59.54474039035772
1760598805.3103507,6.491063350050778,0.3482875626914033,0.9541833200592637,0.28303176487719245,-28.432080758221797,-21.13136903022273,58.13831587841146
1760598805.3201082,7.1349011334844095,0.35898462915141993,0.9350735076056226,0.2715203282045808,-26.77443127460961,-20.91573238716914,56.62701698289556
1760598805.3300805,7.769232035681231,0.3653672136989876,0.9156866058939517,0.25973978400542636,-25.333394364752294,-19.746140635187118,55.065869681709934
1760598805.3402133,8.392935724576551,0.36776585636430603,0.896896061780796,0.2487084414300309,-24.191208165896068,-17.673258367848224,53.495876857490465
1760598805.350155,9.004737786145501,0.3667535798488526,0.8793984810370248,0.23921335707206526,-23.393372617850687,-14.830476636034462,51.94265808575319
1760598805.3603888,9.603181313137808,0.3630028354041765,0.8636434492176949,0.23180905506095956,-22.94599540876624,-11.4167698977932,50.41618933838769
1760598805.3702447,10.18665033675915,0.3571600259334688,0.8498121787356091,0.22682485776993314,-22.816485184920637,-7.674357276598188,48.911397107530796
1760598805.380124,10.753458581981112,0.3497699562027066,0.837848259488135,0.22437761318782629,-22.937058256813867,-3.864240024008611,47.409342696964075
1760598805.3901384,11.302009628133732,0.34126686751894664,0.8275316319282382,0.22438946231885343,-23.21044658417028,-0.24219984912541617,45.87878918503486
1760598805.4002342,11.831021984916713,0.33202932455898165,0.818576691202889,0.22661167278651254,-23.517196523462545,2.9628458789631154,44.27809564542308
1760598805.4101303,12.339793415889101,0.3224765314333134,0.8107305575564401,0.2306558443110769,-23.724054079012884,5.566935973809958,42.55759822838253
1760598805.4204056,12.828453619432475,0.3131675302001461,0.8038496154203477,0.23603262866958652,-23.69312093406125,7.444951217915902,40.662805102469825
1760598805.4306846,13.298129405941193,0.3048580472016721,0.7979405141666014,0.2421955841000659,-23.291623865464633,8.539916204141225,38.53872027376024
1760598805.440031,13.750934304862806,0.2984778994268527,0.7931627283239805,0.2485853222718703,-22.40214508821539,8.86738863347165,36.13537646417252
1760598805.4500306,14.189709718229283,0.29501585124195817,0.7897997876941879,0.2546688554659724,-20.93297015772555,8.51459990701503,33.4143008575971
1760598805.4600801,14.61749554552797,0.2953325088245532,0.7882122980615862,0.25997191852529117,-18.827903126276293,7.634114291777516,30.355334366951706
1760598805.4703233,15.03678786965829,0.2999525845078405,0.7887861458319917,0.2641061600499369,-16.07464987326013,6.43206841119636,26.96309403975069
1760598805.4804897,15.44872757816498,0.30890223235260167,0.7918846663567699,0.2667951255135069,-12.710832010911563,5.15151793972149,23.27241205357155
1760598805.490826,15.852427397021541,0.3216483050832316,0.7978068838183553,0.2679011865231144,-8.826872834598998,4.051958416384281,19.352218106760112
1760598805.5000572,16.24465794270611,0.33716596727471576,0.8067479944176407,0.2674508507791158,-4.565257349053327,3.3865754176810507,15.307439070002841
1760598805.5101662,16.6200576913821,0.3541183022675821,0.8187555708539996,0.2656506052748645,-0.11585664433272824,3.379094473968013,11.278481999478815
1760598805.5201614,16.971911462682367,0.3710934256114414,0.8336783433364144,0.2628832580940616,4.292910230670101,4.202151670020881,7.437744301374628
1760598805.5303078,17.293391629798144,0.3868293921777696,0.8511143013223688,0.25967906440549915,8.407202637773336,5.958882121846085,3.9824790106793646
1760598805.5403607,17.57902590058825,0.4003697794353283,0.8703755429928267,0.25666583493631157,11.964998814654352,8.6690484431862,1.1234245283074225
1760598805.5502777,17.826085079555927,0.4111218422118534,0.8904903917189776,0.2545111187470144,14.716672995558225,12.260707490585679,-0.9309563477367587
1760598805.5599964,18.035590959461764,0.4188201472485169,0.9102562256006008,0.25387047474360014,16.44728155843312,16.568264121657414,-1.9939608191393592
1760598805.5703022,18.212723980702926,0.42342347313199286,0.9283433562556711,0.25534799614592707,16.99810132809408,21.337721982646592,-1.9221274396390264
1760598805.5799985,18.36653912272517,0.42498679645382864,0.9434354943886675,0.2594639007559095,16.28456303753217,26.239807488868824,-0.6360083477048327
1760598805.5906818,18.50904042595286,0.42354994491447073,0.9543784816234663,0.2666153283088515,14.308045910510344,30.89119047047181,1.8630159504414763
1760598805.6002715,18.653783801347423,0.41907146240566895,0.9603003452019272,0.2770147643373932,11.160005785786966,34.88313915936893,5.482984252500375
1760598805.610319,18.814250875398088,0.4114180220180841,0.9606685901378167,0.29059925064969777,7.018250566388734,37.81571872700533,10.040894594074638
1760598805.6202662,19.002255334184007,0.40040535569969277,0.9552683649061128,0.30692367329344505,2.1363800060034746,39.33437040040023,15.272331217056232
1760598805.6303105,19.226612503641217,0.38588087707177615,0.9441130119634525,0.3250746281760331,-3.17192575871025,39.16479040780954,20.85030721111982
1760598805.6400914,19.492237489003315,0.36783891032283594,0.9273242716769058,0.34365115426931514,-8.552115634654205,37.14181126948752,26.410941071616715
1760598805.6502664,19.79975543605871,0.34655953431338055,0.9050309655162465,0.36084522719259576,-13.63038972991247,33.228639275074876,31.582575964997094
1760598805.6603289,20.145624306448482,0.3227553862673313,0.8773281054449588,0.37462591576577864,-18.03727318495765,27.52422258990276,36.014626746300074
1760598805.6702268,20.522696231316807,0.29769878445955494,0.8443173937518237,0.38300243433196934,-21.43276345669304,20.25836579694083,39.40276603179118
1760598805.6803253,20.92108704196563,0.2732923598359976,0.8062234294004472,0.3843221533824447,-23.531935447935414,11.776020735105247,41.507873421321875
1760598805.6903071,21.32919325433394,0.2520470539186392,0.7635557833464302,0.3775498564955329,-24.128672099781358,2.5135894185785714,42.16729020379135
1760598805.7003603,21.734695206255203,0.23694270286382882,0.7172713894964758,0.3624725020816904,-23.114228627874564,-7.02917992686838,41.298140363652315
1760598805.7103705,22.1254110219899,0.2311652967164325,0.6688872762390442,0.33978254517924156,-20.4872450681028,-16.318162130931345,38.893561891493995
1760598805.7203002,22.48991095518236,0.23773748533140182,0.6205001853771797,0.31101711968288226,-16.35277923453652,-24.81194454758964,35.01345674500713
1760598805.7303157,22.817855901626057,0.2590806052835004,0.5746860231080005,0.27836615489392025,-10.909760242131767,-31.985652810059424,29.771750041173817
1760598805.7403934,23.100076743337084,0.29656250786787547,0.5342779884077483,0.2443953262242687,-4.428542265902117,-37.351724262217836,23.32217993841446
1760598805.7500389,23.328452048883637,0.3500920093941582,0.5020536513793086,0.21174569403403362,2.7776724401340447,-40.479239189693445,15.844369008692448
1760598805.760312,23.495663277041043,0.41781735632189,0.48038754748699725,0.1828672101879529,10.382620151611999,-41.01418880596352,7.531413440540238
1760598805.7703328,23.59490869724687,0.4959768673669277,0.4709361987335683,0.1598236043350979,18.07328419006628,-38.702922719236476,-1.4203818995773236
1760598805.7801461,23.61964644069476,0.578941150231013,0.47441573633210804,0.1441811242842669,25.56946855194465,-33.41994065965272,-10.819444595700869
1760598805.7902818,23.563422347801904,0.6594796760724173,0.4905167585646279,0.13697208555257012,32.635356726165334,-25.199325490781888,-20.484491211468157
1760598805.8003206,23.41982547689559,0.7292742305604605,0.5179828077010604,0.13871099647391658,39.08365014392065,-14.266738261289456,-30.24749944202394
1760598805.811362,23.182604523024494,0.7796790437707191,0.5548545421673765,0.14943568460988607,44.774246954498075,-1.0664444956654833,-39.95377492071437
1760598805.8204226,22.845969308614354,0.8026875964935333,0.5988460728118804,0.16874563615767477,49.61006788512981,13.724060895034498,-49.45893094114096
1760598805.8303454,22.405088250989866,0.7920146376005933,0.6477777520156754,0.1958145313434144,53.53249979672752,29.19991832407561,-58.62305333559676
1760598805.8403137,21.85677096884936,0.7441539854504177,0.6999595586164508,0.22936506907069037,56.518152022030634,44.26227511385398,-67.30300791925984
1760598805.8502846,21.200292661520283,0.6592440360044697,0.7544236997838532,0.26761077349916673,58.57752937477312,57.683297381012345,-75.34461551220983
1760598805.8602295,20.438275590921194,0.5415720811646947,0.8109466592112449,0.30818996949597177,59.75515928581206,68.20253701326504,-82.57700413005514
1760598805.870516,19.577502181706397,0.39957780856644115,0.869853134010761,0.3481380049236407,60.12987915018119,74.64900829192709,-88.8115101373287
1760598805.8801796,18.629508067477182,0.24527433645395016,0.9316330666641165,0.38395530312719284,59.813460001826684,76.0778561157833,-93.84686510888525
1760598805.8903344,17.61080249990837,0.09308562594825485,0.9964354688665371,0.41182069076171496,58.94555506171108,71.90579797048068,-97.48122739372047
1760598805.9001658,16.542590067778544,-0.04180909224735419,1.0635446740956849,0.4279694100233372,57.68329065282917,62.02643044766761,-99.53029386523507
1760598805.9100628,15.449918271165568,-0.14544299106770509,1.1309823252383322,0.4292081328532427,56.18494575772059,46.88577220881085,-99.84965071632435
1760598805.9201987,14.360245966361138,-0.20708238595710504,1.195375511560798,0.4134862795390496,54.58915495338933,27.50066540130585,-98.3588469302409
1760598805.9301312,13.301513827637907,-0.22098383677859995,1.2521709938093977,0.38040149591289296,52.99338759369091,5.4081927021915055,-95.06423886431632
1760598805.940348,12.299892891896263,-0.18754736283409448,1.2961808083537367,0.3315039326275093,51.437062645532116,-17.45702040489026,-90.07715011664204
1760598805.9500299,11.377477537373593,-0.11356227216532022,1.3223583260439347,0.27028773540849094,49.89461194331936,-38.94965523341443,-83.6232602163318
1760598805.9603658,10.550252181502099,-0.01137059898578147,1.3266550192856676,0.20181717309706293,48.28190609969072,-56.94493850424953,-76.03891565764995
1760598805.970045,9.826667250742616,0.10299797194841034,1.3068001629300667,0.13201607636599916,46.47635585238114,-69.58449349104134,-67.75120197961719
1760598805.9800637,9.207085807618922,0.21238605915170294,1.2628652564416298,0.0667338084232962,44.34770880931,-75.50164723053943,-59.24173862471365
1760598805.9903195,8.684207646990451,0.3012086922310828,1.197508309311109,0.010771691766086965,41.793866282000025,-73.99227819328839,-50.9987457186339
1760598806.0000694,8.244377388135133,0.35768563750338467,1.11583723591819,-0.032907083322628504,38.774350878968875,-65.10501644770805,-43.46622530721461
1760598806.0102944,7.869497988662234,0.3751453617549149,1.024890644117239,-0.06357668168934417,35.33366789578178,-49.63686426495571,-37.000922186769955
1760598806.0200791,7.539163940560936,0.3522280923602441,0.9328054009839207,-0.08263707278256084,31.60815713986936,-29.034815424021428,-31.845841538054042
1760598806.0300865,7.232637186655622,0.292135404015275,0.84780610511121,-0.09301803467420874,27.81328488642723,-5.218822661471873,-28.12407900256736
1760598806.0402598,6.930408378973377,0.2013147342264035,0.7771875728101311,-0.09827672429719463,24.21311549093687,19.645851556728854,-25.850643953173552
1760598806.0503006,6.615265962424321,0.08804870300139726,0.7264540224622528,-0.10165658738373645,21.078357142910622,43.391190976785865,-24.955247573281927
1760598806.0602388,6.272960776923692,-0.03867572602487082,0.6987374882980648,-0.10536758237140403,18.642095046215665,64.06801084099361,-25.307309255546613
1760598806.070539,5.892641637542466,-0.16985382469111185,0.6945647539647235,-0.11025714223973121,17.062264667239692,80.1184602172768,-26.735969707193856
1760598806.0803251,5.467225120738857,-0.29676441286313643,0.7119881316198644,-0.11591118618167014,16.39760174277442,90.48445331842899,-29.04165758224742
1760598806.0903237,4.993771988226716,-0.41109310710807917,0.747040930713025,-0.12109905125256953,16.60042837773673,94.65095355781366,-32.00000781313095
1760598806.1005852,4.4738230118771405,-0.5051161029103307,0.7944273702751212,-0.12439001685132794,17.526192952662903,92.63356082720733,-35.362069099976424
1760598806.110526,3.9135526718096356,-0.5721030493540904,0.8483198566041221,-0.12474149433555437,18.956747424071178,84.9250188455779,-38.855910519807196
1760598806.120473,3.3235664623507875,-0.606950666434779,0.9031240872625004,-0.12188988388486087,20.63227653300314,72.41538960232103,-42.19393983658943
1760598806.1301477,2.71820313303813,-0.6069139489899898,0.9540888517795855,-0.11644960309648192,22.285881479583537,56.29738036744147,-45.08804017339227
1760598806.1405478,2.1142901446332885,-0.5722221036398507,0.9976802745325427,-0.10972156238065535,23.675209718868278,37.96370517436547,-47.27182816544418
1760598806.1506052,1.5294127105250646,-0.5063769387823301,1.0316995075272821,-0.10330186668815708,24.607007667151645,18.899465779552813,-48.5267658973072
1760598806.1601543,0.9798685221961745,-0.4160123251671808,1.0551823792810446,-0.09863561082916134,24.952461682245552,0.5710072658998311,-48.70719274393511
1760598806.1701248,0.4785693970775924,-0.3103000642990398,1.0681618593626734,-0.09666120825491752,24.653022322017755,-15.68588018384045,-47.75901927266019
1760598806.1803768,0.0331998389059973,-0.19997901881155725,1.0713870175217506,-0.09764199067990909,23.71774741279833,-28.77206280338828,-45.727990845700596
1760598806.1900694,-0.35506024413764276,-0.09614219328264584,1.0660742831422352,-0.10120762019162882,22.21407196822099,-37.9154878140111,-42.755765013082375
1760598806.2002754,-0.6919987377493789,-0.008945693069067813,1.0537302945635934,-0.10655866321147266,20.254388655911733,-42.73423456522404,-39.06471616867634
1760598806.210353,-0.9898767558291173,0.05358600863500676,1.0360482938727762,-0.11274691196163177,17.98088060777552,-43.26200710869595,-34.934415215248904
1760598806.220241,-1.265973507033228,0.08649335598748685,1.0148546593403327,-0.11893911611649854,15.550700961249126,-39.930539947274674,-30.673599597196844
1760598806.230794,-1.5403238986023062,0.08842212184185666,0.992072938018332,-0.12459539492965875,13.122976103479813,-33.50984829101221,-26.591256151046135
1760598806.2401595,-1.832952421541531,0.06169457821277169,0.9696772460960681,-0.12953146852433528,10.848415458999199,-25.013752368715583,-22.96968852148873
1760598806.2503157,-2.1610246061336595,0.01190374151789281,0.9496182034956766,-0.13387077650765553,8.861697198539732,-15.58316770465712,-20.041653052773768
1760598806.260093,-2.536386489619895,-0.05290307058902374,0.9337150442380661,-0.13791753005216265,7.276348476877361,-6.362367943523183,-17.973089112363873
1760598806.2703097,-2.9639107324305742,-0.12331888701270276,0.923514450502387,-0.141992402171739,6.181558852400077,1.616484263868504,-16.852594401624774
1760598806.2805269,-3.440914512318754,-0.1897767607367584,0.9201228620177303,-0.14627321228101464,5.6402200361052355,7.527521078003858,-16.68838130804778
1760598806.2902288,-3.957703190567604,-0.2436797473242607,0.9240278441781176,-0.15067767939572926,5.687453839485775,10.815073099054555,-17.412824592577838
1760598806.3005815,-4.499091576324939,-0.27832238796591763,0.9349350271715716,-0.15481481152906093,6.329016437959844,11.223179807856507,-18.893896684567462
1760598806.3100772,-5.046610857290743,-0.28952044837492064,0.9516561302018721,-0.15801589558926374,7.539312492860642,8.791388388532372,-20.951964210008217
1760598806.3203666,-5.581037459972982,-0.2759190453352778,0.9720860465905626,-0.15943757456100438,9.259290376299337,3.8215105360369006,-23.379780030893848
1760598806.3303473,-6.0848722326558,-0.2389893706130887,0.993300417344076,-0.15821205203136493,11.395066071864417,-3.1772126833341727,-25.963170704937685
1760598806.340379,-6.544445141661143,-0.1827520229896606,1.0117902400772947,-0.1536077531214036,13.818522571839905,-11.555681684115841,-28.499936101685513
1760598806.3502777,-6.951411559733829,-0.1132830507769501,1.0238293935835205,-0.14516217027077596,16.371162948841217,-20.596344587359546,-30.81482142530543
1760598806.3603253,-7.303518509726031,-0.03806526079171415,1.0259473576147524,-0.1327583810506374,18.872053498708205,-29.580691473430495,-32.769020904909006
1760598806.3705018,-7.604621690672245,0.03475795222982069,1.0154562313284605,-0.11663413304567222,21.129813306062967,-37.84711797879945,-34.26344982520139
1760598806.3804905,-7.864005700551692,0.09717803625077184,0.9909627358649397,-0.09733027885230043,22.957517544053193,-44.835852985021134,-35.23590716943748
1760598806.3903215,-8.095101160468243,0.14211917876673485,0.9527861436623116,-0.07559646422376086,24.188466698328988,-50.119896276557064,-35.65316003057803
1760598806.4003742,-8.31371898843809,0.16417993387266236,0.9032037975647248,-0.052272503894603965,24.690359436848947,-53.422587733246466,-35.499782515571304
1760598806.4101446,-8.535950467004918,0.16023869778132757,0.8464574299972311,-0.0281560479370137,24.37558129390511,-54.62336533620193,-34.76611669505935
1760598806.4202912,-8.775920294512765,0.1298273850705405,0.7884769631849191,-0.003860024505674116,23.205993050335465,-53.75356614564663,-33.43787538493722
1760598806.430322,-9.043625718639964,0.07518545262223372,0.7363163413080434,0.020329676345906513,21.19161642053122,-50.98402893697618,-31.489620892819126
1760598806.440139,-9.343135975579292,0.0009458602143297373,0.6973493116474887,0.044557450892840245,18.383752829792833,-46.60598539602544,-28.883610743691992
1760598806.4503617,-9.671442733175708,-0.08652979089173321,0.6783327864364757,0.06939154958639673,14.864101576874175,-41.00645101594919,-25.57438884686045
1760598806.4605334,-10.018216068964204,-0.18006729422778486,0.6844851780161043,0.09564725867846174,10.732185956647237,-34.63920760368757,-21.518269346027758
1760598806.4703577,-10.366604195854219,-0.272666129445727,0.7187221243173259,0.12405216743537803,6.093635624607945,-27.99254346788527,-16.685791408903626
1760598806.4801104,-10.69501841703704,-0.3583371517206003,0.7811513376773688,0.15484929240134232,1.0513725403442113,-21.55508109320288,-11.074500290873075
1760598806.490469,-10.979619109225483,-0.4326215199527582,0.868884995857879,0.18745534354212098,-4.2994621992880155,-15.781222344948924,-4.719189733206066
1760598806.5001924,-11.19705381234307,-0.4927435087228393,0.9761949200032614,0.22026201797489212,-9.873442053118652,-11.058045201588936,2.3027934740423426
1760598806.5100577,-11.326967457692177,-0.5374741319185788,1.0950007467020517,0.25065197400499606,-15.595230151061502,-7.67592931676254,9.872405130272483
1760598806.520349,-11.353909704444728,-0.5668411933155778,1.2156422772840851,0.2753023389722537,-21.400014431167072,-5.805668927119575,17.835603312402586
1760598806.5301456,-11.268440849208464,-0.5818024214274519,1.32785937027466,0.2908066545600703,-27.234713090421558,-5.485127953589844,26.014273506961086
1760598806.5403826,-11.067409988350846,-0.5839362754985618,1.4218946136874988,0.2945263900944242,-33.05930911166179,-6.618273507802868,34.21914209173232
1760598806.5503395,-10.753505494941077,-0.575151253701894,1.4896318149141687,0.28543305462202667,-38.84664587360656,-8.98833438956295,42.26257357488534
1760598806.5603573,-10.334253778109156,-0.5574073084443195,1.5256597014883642,0.264631924072181,-44.57893432971291,-12.28479733447514,49.96977265682449
1760598806.5701482,-9.82067957027655,-0.5324772290280037,1.528095264058991,0.23534606105450437,-50.2402240877105,-16.141470213968816,57.18761142480451
1760598806.5800717,-9.225849829259703,-0.5018047265227293,1.4989533541474016,0.20233643570926108,-55.805748196359225,-20.1807328955655,63.79074194508552
1760598806.5902848,-8.563506188606956,-0.46649926404436404,1.44388141651978,0.17092038104056878,-61.23052954927997,-24.0579399218704,69.68481056711133
1760598806.600378,-7.8469479992889895,-0.4274526856873059,1.3712267018875044,0.14586240572088074,-66.4401176241737,-27.49986411476744,74.80668328154319
1760598806.6103964,-7.088265155203606,-0.38551073330503155,1.2906069265382376,0.1304437009254245,-71.32561929902766,-30.331986250601208,79.12183241437349
1760598806.620286,-6.297949487722041,-0.3416187751494216,1.211299327144034,0.1259570677236196,-75.74394158833574,-32.49117878618344,82.61945847218692
1760598806.6303375,-5.484849379452713,-0.29688822056007586,1.1407877241092341,0.13172406599603081,-79.52320619858142,-34.02264391768685,85.30636895642019
1760598806.6400647,-4.65638376442358,-0.2525704238855552,1.0837396352810058,0.14555426490694184,-82.47283157775148,-35.06245700547628,87.2008639441636
1760598806.6503115,-3.81890263942951,-0.20994981323287398,1.0415766005370468,0.16444875914060023,-84.39743767189529,-35.80916565072997,88.32775493947166
1760598806.660318,-2.978072890498247,-0.17017526770227961,1.0126783402756445,0.18532710547223016,-85.11329353020376,-36.48901172487799,88.71527933962206
1760598806.6703842,-2.1391811301080046,-0.1340543321752032,0.9931368242111263,0.2056033070091876,-84.46575644939269,-37.319311261405325,88.3942949399825
1760598806.6805685,-1.3072775604760265,-0.1018474759296689,0.9778653936693217,0.22351216369545823,-82.34629281307981,-38.473836966348394,87.39982257054923
1760598806.6903436,-0.4871310658100034,-0.07311424463326396,0.9617991600521689,0.23816658883770223,-78.70798034803431,-40.053454981006645,85.77462571453607
1760598806.7003005,0.3169831672129287,-0.04667003174427648,0.9409255649051695,0.24939414720405179,-73.57839226640225,-42.06510245132018,83.57399701942019
1760598806.7103314,1.1015968590668046,-0.020702022927026723,0.912959523597327,0.257445659400711,-67.06833006877946,-44.4120996467637,80.87040094609108
1760598806.720537,1.864366823590488,0.006940791127710543,0.8775888970990734,0.2626835629265119,-59.37434480231917,-46.89813563383068,77.75633722768372
1760598806.730319,2.6042975821936927,0.038322400320845135,0.8363176142895589,0.2653426712035221,-50.772857926774705,-49.24573165929347,74.34392273975436
1760598806.7403524,3.3217915569934817,0.07495360641967622,0.7920030672746836,0.2654189239880865,-41.60437324597579,-51.12775226013411,70.76032275043089
1760598806.7503111,4.018497314784419,0.11740900708964887,0.7482202504488046,0.26269605870574575,-32.24797055368106,-52.20807412663937,67.13922315144141
1760598806.760135,4.696982122474684,0.16513656880115693,0.7085914129489723,0.256878896849675,-23.08869080180605,-52.185449778650245,63.609710975700416
1760598806.7700183,5.360299912149011,0.21651409061599192,0.6762004269823783,0.2477768038294494,-14.482590824500202,-50.83360137248806,60.28476618271745
1760598806.780027,6.011546367313228,0.2691363461892134,0.6531725342380033,0.2354798647489675,-6.725120565305596,-48.03108915431982,57.25174901083502
1760598806.790228,6.653486736937821,0.3202578705300115,0.6404549604273664,0.2204874694968659,-0.027780283742368374,-43.77635519534699,54.56678233050119
1760598806.800336,7.288314779701047,0.36728417129926944,0.6377958526687433,0.20376586075882364,5.493770516087178,-38.185934494360424,52.25397017887317
1760598806.8104007,7.917563274037086,0.408202393480532,0.6438943415458953,0.18671860674182317,9.819226937786464,-31.47658738214594,50.30923953357356
1760598806.8201115,8.54214988901046,0.44186658020721,0.6566795086657902,0.17106125515664772,13.012045288388531,-23.93469165650414,48.7075663848549
1760598806.8304336,9.162516287141585,0.46809167306857563,0.6736653857686726,0.15860837490423887,15.199727369060682,-15.878318767128809,47.4117174094638
1760598806.8403254,9.778806861170986,0.48755365138399903,0.6923231229685863,0.15100406960906446,16.549928209918374,-7.618593735083675,46.38050304057952
1760598806.8500843,10.391035257197492,0.5015329586937838,0.710413575259942,0.14944553949040096,17.246469836063664,0.5731827906199057,45.574850478850784
1760598806.8602674,10.999197641486841,0.5115664886991761,0.7262346536750841,0.1544568379297226,17.468707196300343,8.487685767441798,44.96065496261317
1760598806.8702528,11.603306243216432,0.5190837483678655,0.7387548159680731,0.16576559711831204,17.376456376301917,15.986533443752375,44.50819216307073
1760598806.880434,12.203330680455945,0.5250960229474272,0.7476234172493708,0.18231996636846554,17.10122138424857,22.99836791800968,44.18867351817658
1760598806.8903313,12.799046897229847,0.5299894093213284,0.7530694153910881,0.2024561205136326,16.743181829659232,29.50465173319304,43.96912871350305
1760598806.900301,13.389807049319023,0.5334503453105385,0.7557220537257358,0.22419007797909546,16.372622293058484,35.519251610774695,43.80711843556721
1760598806.9103534,13.97426120019354,0.5345306918130923,0.7564054504894232,0.2455698563490972,16.034262110518302,41.06638935791209,43.646798158445655
1760598806.9201274,14.550080624881673,0.5318400251144215,0.7559624745736025,0.2650004889801981,15.7531711247021,46.161144160318855,43.41758121588218
1760598806.930305,15.113744884339933,0.5238341663981808,0.7551449492106033,0.2814593095689222,15.541394374719244,50.79555465874478,43.036116387281616
1760598806.9405966,15.660453043749717,0.5091502936238343,0.7545747040992186,0.2945547397562417,15.404778060768235,54.93174787563365,42.41156758293854
1760598806.9503298,16.18420124891466,0.4869247602394453,0.7547517873456561,0.3044339931082263,15.349611604883515,58.501784298244935,41.45339711010741
1760598806.960322,16.678038540840845,0.4570299089524646,0.7560764028374309,0.31158890253617166,15.388571267746048,61.41253368720266,40.08023796293
1760598806.9704204,17.134479473113856,0.42018645604937144,0.7588592026428496,0.31662692902584877,15.545199364197497,63.55331840282761,38.22824650753787
1760598806.9805074,17.54602618620914,0.37794052538592754,0.7633091618851338,0.32006708488062763,15.855973152923285,64.8044027572027,35.85764561517384
1760598806.9900963,17.90574019127689,0.3325237235754686,0.7694999474860791,0.3222001193377302,16.369116966811166,65.04536093213837,32.956790145913374
1760598807.0004895,18.207804098446914,0.2866320040591891,0.77732345304787,0.3230287312913473,17.139832524433775,64.16336131992189,29.543622913798348
1760598807.0103445,18.448019529214648,0.2431645830161412,0.7864459216603958,0.32228173264041565,18.22249456351165,62.06196540782496,25.664595794883905
1760598807.0201051,18.624192751802674,0.20495990690117577,0.7962878038885218,0.3194810631824652,19.66124210627749,58.670956107705365,21.39108857155496
1760598807.0304084,18.73636172054867,0.1745546906681026,0.8060501454938015,0.31403689976649457,21.48089603310472,53.95712162997494,16.81332869300045
1760598807.0403612,18.78682085368577,0.15398118873441174,0.8148053210367643,0.3053524696983376,23.680101935579227,47.935174651446886,12.031989200500329
1760598807.0502605,18.77991050972887,0.14461356488571125,0.8216573885863132,0.29292959387835404,26.228158143055946,40.67745531183208,7.148041012432099
1760598807.0601437,18.721562998466585,0.14707550680304785,0.8259584750537372,0.2764717980201349,29.066325711951375,32.32097789266797,2.2519459613700215
1760598807.0705895,18.61863675666798,0.16122124699229717,0.8275471922296622,0.25598181724216373,32.11363102830827,23.07073138035222,-2.586287832251568
1760598807.08039,18.47811741942458,0.18619548776009393,0.8269598841543732,0.23184607852831732,35.27632759018897,13.198764821083499,-7.32447860853011
1760598807.0900934,18.306302686650707,0.22056315585864367,0.8255606737439957,0.20489287856936272,38.45940345528484,3.0392563257149554,-11.951508429116663
1760598807.1003876,18.108098745973184,0.262480814713711,0.8255437463848078,0.17640588152587677,41.57800045655536,-7.019780078444231,-16.48536760608846
1760598807.110362,17.886532684056416,0.3098672312026729,0.8297796574776118,0.14807358589644476,44.56652560864737,-16.547484553922427,-20.965792561491487
1760598807.1200972,17.64253895304457,0.36053013793627364,0.8415018793232835,0.12186216556009684,47.383598677040204,-25.08361445135919,-25.44233156748753
1760598807.1301851,17.375027145660955,0.41221865809471947,0.8638534841605623,0.09981393917413416,50.011631920050064,-32.15487725715266,-29.959671385739274
1760598807.140329,17.081195212650062,0.4625887461783944,0.8993328717862416,0.08379219553353938,52.450602260629275,-37.294986239213415,-34.54276738859103
1760598807.1506274,16.757020964510357,0.509090100508446,0.9491959735569241,0.07520814891342092,54.7064149141456,-40.06938675227183,-39.184590238506736
1760598807.160527,16.39784670638251,0.5488093402676135,1.0128981804730948,0.07477259076371837,56.775242883550504,-40.1053218049005,-43.83904077493035
1760598807.1703339,15.998968007032351,0.5783325489619382,1.0876901346669248,0.08231448066360764,58.626361460089754,-37.12726666925077,-48.420771163702796
1760598807.1803803,15.556147522103368,0.5937099951830833,1.1684991905655016,0.09670397166435074,60.18709019504808,-30.99668190538349,-52.812415567482546
1760598807.1905146,15.065997482093305,0.5906067448443377,1.2482091984372656,0.11590597270891148,61.33417940178627,-21.75342271718905,-56.878337024208356
1760598807.2003255,14.526209164524229,0.5647024449644785,1.3183847035930967,0.13717022034052045,61.895969926542875,-9.654065181341583,-60.48268203255063
1760598807.2103853,13.935651298143657,0.5123620133604168,1.3703845669565342,0.15733860838842278,61.668529097685145,4.799866745306264,-63.508462562286645
1760598807.2203896,13.294401484387974,0.4315302441151862,1.39670498591458,0.1732236877261195,60.44643703945413,20.85271777645421,-65.87374827781697
1760598807.230393,12.603797489320621,0.322704706343279,1.3923141954312215,0.1819874986922702,58.065136008905014,37.514112163312916,-67.54120036431752
1760598807.2403944,11.866581170316248,0.18973559903001885,1.3557090963756386,0.18144239304062715,54.44765914779399,53.6145699676008,-68.51854406600215
1760598807.250434,11.087151066752812,0.04014180682512823,1.2894448423756075,0.17022563837067226,49.645551699344516,67.89967793500648,-68.85024536964497
1760598807.260313,10.271855197650165,-0.11531939437022946,1.199969487126232,0.14786265552748298,43.863217754039454,79.1570149148517,-68.60382904016761
1760598807.2707717,9.429179830660983,-0.2639078155308283,1.0967404091590809,0.11478562829018243,37.45733017731086,86.36078265218349,-67.85631504671096
1760598807.2801056,8.569667407989,-0.39278547833383753,0.9907794870962751,0.07236711552334552,30.907822872867342,88.81137385376444,-66.68569412964104
1760598807.2902856,7.705453513027925,-0.49108755241917074,0.8929747136394028,0.02296243575080958,24.763009026451176,86.24371731255835,-65.16920291954423
1760598807.3002346,6.849433548425964,-0.5516413630836781,0.8124946910704042,-0.030117883059373143,19.566960292239752,78.88122009063427,-63.386170962267705
1760598807.3103373,6.014200468327656,-0.5719123432759385,0.7556304091383658,-0.08280638721388513,15.781194800034411,67.42151353712809,-61.42080427684356
1760598807.3203962,5.21097319306711,-0.5540242168270191,0.7252431675568048,-0.13070235131073685,13.714330975440443,52.95355422593688,-59.36076237641712
1760598807.3304548,4.448728496150156,-0.5039843659685534,0.7208326238831284,-0.1696872320452521,13.472563674806691,36.81918984578491,-57.29021441374727
1760598807.3403823,3.7336704697493857,-0.4304216905025457,0.739101974985496,-0.19661256269589014,14.940700697681747,20.442773426187703,-55.27938437652893
1760598807.3504658,3.0690664723516337,-0.3431742421465847,0.7748236769206115,-0.20989349904012605,17.79821716279047,5.157749885858886,-53.37456401403733
1760598807.3604174,2.4553936749379623,-0.2519883183607276,0.8218014326196325,-0.2098490690332689,21.567933132050413,-7.941539757827434,-51.59235426159521
1760598807.3703175,1.890700062450363,-0.1654799466508562,0.8737620639476412,-0.1986908035080267,25.688034328285077,-18.101144203515467,-49.91998822974197
1760598807.3802981,1.3710840218608535,-0.09041883398799484,0.9250680975544179,-0.1801545970524792,29.593428362346568,-24.951150548948565,-48.32130052734005
1760598807.3902128,0.8912174846670666,-0.03134300445459296,0.9711983322855435,-0.1588635907551017,32.79143894474705,-28.49337115497152,-46.746386123582326
1760598807.4004214,0.4448608062840248,0.009513679744698248,1.0089898102931378,-0.1395690370779852,34.91955115759712,-29.044922225103292,-45.1425670037997
1760598807.410339,0.025336672538155143,0.03202185128732695,1.0366682448745763,-0.1264237807632287,35.77793712654156,-27.154860991201364,-43.46461716241743
1760598807.4202662,-0.37405277917657637,0.03775433217539335,1.053714590937045,-0.12240768556687442,35.335072274675674,-23.511082253013903,-41.68283284508917
1760598807.4302602,-0.7596659245045898,0.029474896227992427,1.0606237444515259,-0.12897205379674356,33.709564868447174,-18.85101508668989,-39.78820179856495
1760598807.4403641,-1.1372094278115839,0.010614725768082593,1.0586105307272702,-0.14592284611667314,31.13464354589619,-13.884666667057868,-37.79449472480235
1760598807.4503422,-1.5114668299446454,-0.01519037901769486,1.049311958714374,-0.17152744963719638,27.913357516246293,-9.234145516438542,-35.7375192736049
1760598807.4603868,-1.8860756979868432,-0.044466703476277694,1.0345250131462072,-0.20280643509841512,24.372539648162075,-5.390856419470939,-33.6720246306807
1760598807.470938,-2.2633802538226355,-0.0741700581196473,1.0160065251080805,-0.23596054020505292,20.82226153984361,-2.690060804055906,-31.666820258922062
1760598807.4801943,-2.644395997490508,-0.1018650073863323,0.995346777002075,-0.26688225143323513,17.52532625292777,-1.3018887331573916,-29.798610003309424
1760598807.4900537,-3.028912058424735,-0.12582488761293711,0.9739136252116258,-0.2917026739834032,14.678849491167467,-1.2375478174205226,-28.144949584375393
1760598807.5003526,-3.4157273410939455,-0.14505459065982584,0.9528523007722267,-0.30731800037539064,12.407700454364509,-2.3690146535287306,-26.776748197481307
1760598807.510332,-3.8029816471728437,-0.15923670233933976,0.9331199484224668,-0.31182317007196203,10.767883944736269,-4.4598361911081055,-25.75090692521155
1760598807.5201395,-4.188519137358429,-0.16860829591754728,0.9155329821399499,-0.30476587050787657,9.756999121769477,-7.2039168425827595,-25.103924847429095
1760598807.5304222,-4.570217236423782,-0.17378565862577613,0.900807737219097,-0.28714937725159756,9.32865235773831,-10.26846852089695,-24.84742729009764
1760598807.540406,-4.946226554079333,-0.17556138491906798,0.889579657749685,-0.26117413835166287,9.407946391960616,-13.33677246683717,-24.96643048102768
1760598807.550366,-5.315088285820731,-0.17470051648601276,0.8823927602713871,-0.2297880861583112,9.905718366153097,-16.14616072789242,-25.420727974632406
1760598807.5605853,-5.675719380389108,-0.17176178146503418,0.8796583248532713,-0.19616273069589546,10.729921044305684,-18.51684645610981,-26.149189280998698
1760598807.570148,-6.027280569093109,-0.16696821240106682,0.8815888873209001,-0.16320736923194945,11.793323486323802,-20.36807982148143,-27.07620573152564
1760598807.5803661,-6.368965347770045,-0.16014758292567582,0.8881206692779983,-0.13320207197272185,13.01742111115286,-21.71957584614697,-28.119179700579924
1760598807.5900722,-6.699764783876875,-0.15075601192416127,0.8988440769153694,-0.10759726160590499,14.33301145257178,-22.678055157816914,-29.195908381563136
1760598807.6003952,-7.018270350125601,-0.13798846361212025,0.9129650691862515,-0.08699581570263043,15.678319631059527,-23.41077730047408,-30.230931167183723
1760598807.6100848,-7.322574435397524,-0.12096956985437307,0.9293167507279274,-0.07129747577996942,16.995852163832684,-24.10983272983671,-31.16027956399847
1760598807.6202674,-7.610317366876536,-0.09900809642022765,0.9464308975973723,-0.05995157083573978,18.229269955199204,-24.952417178137203,-31.934462641710653
1760598807.6302006,-7.878911627100913,-0.07188705100147365,0.9626676019899392,-0.052246526232836044,19.321473893753005,-26.063128887562666,-32.51984518290991
1760598807.640426,-8.125946698239328,-0.04014708862023254,0.9763913871841725,-0.04756886083981892,20.214822651114893,-27.484356691937055,-32.89876189597081
1760598807.6501098,-8.349739803656618,-0.005306072837434555,0.9861744646440864,-0.04558429319539397,20.853979194044513,-29.159954127265774,-33.06870753506342
1760598807.6601784,-8.549953009142998,0.030048870037785478,0.9910019967220681,-0.04631986216494651,21.19130744511596,-30.935601270454054,-33.04075890607366
1760598807.6701343,-8.728158517346749,0.0623489839878641,0.9904511876569984,-0.05015128766055115,21.194053466059604,-32.576714902800774,-32.83713069686208
1760598807.6802926,-8.888217162733984,0.08733180669661879,0.9848169052541313,-0.0577185487485736,20.851883677242256,-33.80187562871857,-32.487614713485755
1760598807.6904209,-9.03634874909397,0.10050789336461691,0.975161247301644,-0.06980097212488261,20.182915189336164,-34.32703668653479,-32.02473159070838
1760598807.7000456,-9.180814213961536,0.09774772634876622,0.9632717655970671,-0.08718009413142196,19.236334460415645,-33.91380311017596,-31.477735955736648
1760598807.7102604,-9.331188866972068,0.0759084189843429,0.9515218438640547,-0.11050695690638515,18.090126939253516,-32.41420835965322,-30.866030339361096
1760598807.7203894,-9.497273478512545,0.03341277209465887,0.9426368787856256,-0.14017659728840967,16.843250866615314,-29.80479143590703,-30.192878030208828
1760598807.7303872,-9.687759029250596,-0.029306386131537767,0.939381849333865,-0.17620435635867673,15.60258361955267,-26.20426726629771,-29.440424531873077
1760598807.7404008,-9.908824007072347,-0.1095791635395326,0.9441992413275806,-0.21810178184370604,14.465931032697037,-21.87143664203997,-28.566917655764314
1760598807.7503426,-10.162886230608107,-0.20255633788330377,0.9588392212004421,-0.26476277595015785,13.503184183456366,-17.18289303862043,-27.506738309384524
1760598807.7602627,-10.447734525238252,-0.301584734308604,0.9840331319866834,-0.3143853345992419,12.738288405569316,-12.593163025445982,-26.17351418009277
1760598807.7702925,-10.756215409581555,-0.39888023677787793,1.019262787652396,-0.3644621566893655,12.134998019980614,-8.58266412324921,-24.466218141372085
1760598807.7804298,-11.076551789243267,-0.4864201445499834,1.0626690424366458,-0.4118704318279308,11.589276748634155,-5.600737608061745,-22.27773964912544
1760598807.7902236,-11.393250956706517,-0.556928989700068,1.1111257593309727,-0.4530781717022906,10.930508913818697,-4.011639626790444,-19.504995517534983
1760598807.8003838,-11.688453423954972,-0.6048066621017129,1.1604855065157587,-0.48446470609161363,9.93244961083509,-4.0507442323359,-16.059341035673356
1760598807.81035,-11.943510100384717,-0.6268493001601129,1.205984898434134,-0.5027290139530278,8.333381121792389,-5.796624883370148,-11.876000326815703
1760598807.8204074,-12.1405622231695,-0.6226413305974959,1.2427792912822182,-0.5053341736462692,5.863644643168514,-9.162467713786716,-6.9215030249707805
1760598807.8302958,-12.263927251704317,-0.5945496045859336,1.2665560681431811,-0.49091570169701104,2.277731709007222,-13.907647743573131,-1.1985633686043022
1760598807.8402963,-12.30114748451744,-0.5473216457584098,1.2741535356860074,-0.45957463039186813,-2.6126508498836714,-19.667498000556346,5.2517773104805805
1760598807.8503072,-12.243620832033999,-0.48736135010288145,1.2640938456295987,-0.4129872702238746,-8.90872756885123,-25.99672187985465,12.350765931370328
1760598807.8602998,-12.086793793255126,-0.42180479794840064,1.2369332557574813,-0.35429075266188553,-16.602414485291643,-32.42002511762281,19.98533883589582
1760598807.8703454,-11.829947872406956,-0.3575385722661637,1.1953503758038402,-0.2877428419165123,-25.56562116144826,-38.482710089769284,28.014305641981032
1760598807.8803985,-11.475649195854718,-0.30030092193633146,1.1439320017436578,-0.21820091358556426,-35.55371295249119,-43.79429439066077,36.277105375110445
1760598807.8902183,-11.028957314983826,-0.2539895787037476,1.088665593308447,-0.15050830258606215,-46.22372105862799,-48.059665973365504,44.604563906165986
1760598807.9003594,-10.496504530330453,-0.22026883372170533,1.0361955330001944,-0.08890270237573773,-57.16546727308195,-51.09470012383829,52.83067270065658
1760598807.9103076,-9.885562355713775,-0.19852194797442174,0.9929406847457731,-0.036557056442079516,-67.94144103199696,-52.826188202125444,60.804028476903284
1760598807.920366,-9.203207531998558,-0.18614007187946455,0.9641990641143751,0.004678709929054244,-78.12960716796618,-53.278644462923936,68.39730100206027
1760598807.930423,-8.45568738270677,-0.17909003753415095,0.9533764249881146,0.034329334401683065,-87.36280721092973,-52.55237707497559,75.51308222746084
1760598807.9401138,-7.648064383762371,-0.17267304743052533,0.9614656254660321,0.05317585530084161,-95.3591379360899,-50.79783884308708,82.08486552404361
1760598807.9503245,-6.784191369822039,-0.16237251429356214,0.9868711970573981,0.0630085588050985,-101.93939286851479,-48.19091501972481,88.07274796067563
1760598807.9604416,-5.867027404600892,-0.14467730075349958,1.025620664799351,0.066289759390665,-107.02994569089051,-44.91291488802081,93.45460918410818
1760598807.9703438,-4.899248033674211,-0.1177498401669529,1.0719406434135805,0.06578070282761916,-110.65180583161154,-41.13791490625854,98.21466878454062
1760598807.9803321,-3.8840410040823614,-0.08180463525957316,1.1191125662066632,0.06420001881044596,-112.89838837531393,-37.0286804632377,102.33204945867784
1760598807.9903128,-2.8259285187496106,-0.039097652481595406,1.16046419098555,0.06396096336967655,-113.90561414781483,-32.74045182336343,105.77203398146688
1760598808.0000634,-1.7314383733572845,0.006494276618152321,1.190309924507789,0.06698979851337236,-113.81866776462533,-28.42959893082788,108.48214111583842
1760598808.0103228,-0.6094663479124522,0.05022881854037933,1.204654763284726,0.07459596816358255,-112.76045825640917,-24.26230755211907,110.39416316132026
1760598808.020397,0.5287744892044793,0.08743550689965243,1.2015414452013344,0.08737131815514194,-110.80729893439691,-20.41793816810484,111.43213513321531
1760598808.030596,1.670247908469543,0.1144449449691953,1.181022250749836,0.10512987378172912,-107.97683981515216,-17.082860994370694,111.52507266442059
1760598808.0404692,2.8009820210504754,0.12932469689555184,1.1448253573952183,0.12692737076601698,-104.23135186484147,-14.433121400398875,110.62243306872656
1760598808.0503674,3.9072273703901006,0.1322775636951738,1.095833236048985,0.15119237261859106,-99.49630645337956,-12.607524141262314,108.7097362125348
1760598808.0604224,4.976710281339714,0.12562541794513404,1.0375025880946978,0.17595892674040445,-93.69070368625802,-11.675811489572528,105.82162547218185
1760598808.0703702,5.999782901710619,0.11338372935942112,0.9733429954954333,0.19914540026636512,-86.76279502249814,-11.608848305160322,102.04980373132182
1760598808.0803306,6.970281538043873,0.10051316485621054,0.9065388170510511,0.21881071400573598,-78.72341895739306,-12.258668376229409,97.54372730222465
1760598808.090139,7.885946661060613,0.09199852970181069,0.8397525856099917,0.2333438932898157,-69.66945424320981,-13.35557769557528,92.50273341017838
1760598808.1003916,8.748324209845169,0.0919368245953077,0.7751010866136966,0.241581383902661,-59.7918820873505,-14.52701121970859,87.1594892085094
1760598808.110564,9.56214781099645,0.10280793552781134,0.7142590055529572,0.242872970003863,-49.36621587109102,-15.338569138239688,81.75623468469755
1760598808.1204302,10.334283382793974,0.12505834079810949,0.658625859438569,0.23712274209860654,-38.726834500791256,-15.352365061966358,76.51696548623691
1760598808.130774,11.072390116893187,0.15706424415698578,0.609490570690236,0.22482166487460098,-28.230141635752798,-14.19294514837828,71.61999182729478
1760598808.1406813,11.783503416230934,0.19546918970030125,0.5681394598157846,0.20707359880246,-18.21363011721321,-11.608224898472432,67.17571546756795
1760598808.1503313,12.472763158283856,0.23582122018501542,0.5358707747409279,0.18560580145789668,-8.958320403857579,-7.513242518181538,63.21368737369863
1760598808.1600604,13.142485723786535,0.2733772725927363,0.5139001640427536,0.16274826558142902,-0.6607011828312332,-2.008076936873229,59.68117261018617
1760598808.1704266,13.79171347349676,0.30391442769635607,0.5031690780073417,0.1413592805810836,6.582122971477348,4.633051504256016,56.45313886263987
1760598808.180364,14.416286705478532,0.3243985742610686,0.5040986482897515,0.12466858537816153,12.772969391237424,11.998423799527979,53.35155277650698
1760598808.1902459,15.00939276618044,0.3334043085589592,0.5163536378548974,0.11601233038618845,18.0018273020048,19.59333802174482,50.17064421084484
1760598808.2005908,15.5624746082484,0.331239217108917,0.5386863985435966,0.11845357528339136,22.422442620693044,26.901972497049943,46.70448355390019
1760598808.210313,16.066338404202362,0.31978510893968654,0.5689197467330459,0.13432249543411215,26.22210238230135,33.44562145213574,42.77357083890461
1760598808.2204003,16.512290259603365,0.3021157380563174,0.6041017601841278,0.16476308261032344,29.58927216138661,38.82787087737961,38.24782883604123
1760598808.2305565,16.893152883483673,0.2819783810562948,0.6408276926558161,0.20940381393620416,32.68370915089547,42.76057791137683,33.06419487523162
1760598808.240394,17.20405576144928,0.2632352108852474,0.6756846671847115,0.26624296448703855,35.61281669920477,45.06891796278151,27.237771561434375
1760598808.2503655,17.442943341743096,0.2493521540166677,0.7057426106772439,0.3317685161844466,38.41693775129591,45.678074339590275,20.866053587505128
1760598808.2603407,17.610791784369322,0.2430013663741774,0.7289907352625921,0.4012756107974195,41.065518788106104,44.587280683553985,14.12596533629327
1760598808.27041,17.711559490770465,0.24581584797379383,0.7446101707661594,0.46933154586223796,43.46521972005479,41.838589543107524,7.263473159518323
1760598808.280393,17.751920060126043,0.2583092718586678,0.753001282815471,0.5303407537847076,45.47927751273919,37.488206263222835,0.5758037136924384
1760598808.2901976,17.74083994610479,0.27995354611822815,0.7555545255858287,0.5791464445334708,46.95483269574438,31.58757623629564,-5.612920499291203
1760598808.3004994,17.689065739553396,0.309387516673114,0.7542357932536274,0.6115820493113021,47.75277064163286,24.179325791880764,-10.980746560966955
1760598808.3103423,17.608574172549623,0.34471011396543855,0.7511121666576589,0.6248838234185023,47.77418570921906,15.309575755267598,-15.23894258103747
1760598808.320589,17.51201111271273,0.3837970740408179,0.7479553690018073,0.6179028601564811,46.979045454953706,5.053887260891451,-18.16208635808304
1760598808.3303132,17.412113451662155,0.4245847414081924,0.74602723856541,0.5910978810918843,45.39522230164742,-6.449394204196192,-19.614526224823322
1760598808.3405354,17.321087118485917,0.4652874527992342,0.7460824278881328,0.546335035236181,43.11863175594501,-18.966134496559725,-19.570944909573143
1760598808.3502915,17.24991719579354,0.504538132083382,0.7485482782164836,0.48655243744422677,40.30683281103367,-32.14074179094137,-18.12895841126074
1760598808.360713,17.207610191272437,0.5414498398757461,0.753797191280087,0.4153566416813496,37.168756734261315,-45.48266921089208,-15.511799076469709
1760598808.3705769,17.2004030725831,0.5755936840969132,0.7624221493883975,0.33661271212731797,33.95253094580234,-58.36761531205357,-12.059524314262115
1760598808.380558,17.23100683808263,0.6068880773504649,0.77544359685072,0.25408143115502585,30.932224394566344,-70.05429421655245,-8.208063650637236
1760598808.3903913,17.29797498778033,0.6354026687451672,0.7943963928668054,0.1711498326613967,28.393207562964427,-79.71665756563668,-4.456696530007969
1760598808.4003212,17.395294767243254,0.6610984153878405,0.8212600696697545,0.09068901794928466,26.615041514200943,-86.49068801004816,-1.326056860595236
1760598808.4102316,17.512290522106408,0.6835460945882534,0.8582067149880677,0.015048999061063162,25.850781406209773,-89.53398573789754,0.689685855286822
1760598808.4204128,17.63390295484352,0.701674442833532,0.9071596144751848,-0.05383745477523797,26.302515619796466,-88.09525957185191,1.1714017344388743
1760598808.430225,17.74136521532317,0.7135887242281079,0.9691914298575504,-0.11431072128943541,28.09457814590926,-81.5895827806835,-0.18170703103435693
1760598808.440675,17.81324211958198,0.7164826151613489,1.0438425070382726,-0.16488796534734876,31.247566180519808,-69.67398364680666,-3.520196838212339
1760598808.450401,17.826745478059106,0.7066613597835458,1.1284991437710747,-0.20427856878828912,35.657594057241994,-52.31683737203112,-8.828710883439356
1760598808.4602025,17.759201804284622,0.6797093800116017,1.2180205653260991,-0.23151611493108673,41.08585381170477,-29.853867758908407,-15.928900297458524
1760598808.4704518,17.589538512304287,0.6308544920626805,1.304813591315481,-0.24615412837300626,47.16324973791604,-3.0233151872435537,-24.50015423635328
1760598808.480299,17.299672037785495,0.5555758594634466,1.3794977072491943,-0.24845025832833167,53.41334638513309,27.027278840154676,-34.11441899820372
1760598808.490363,16.8757189223029,0.4504580990961961,1.4321732224569972,-0.23947951384509822,59.29412350449165,58.770042605363855,-44.279316920239
1760598808.500316,16.30899578524236,0.3142174401740279,1.4541289389508045,-0.22114981917784102,64.25549156949708,90.36759572600852,-54.482893973137
1760598808.5103498,15.596809613924334,0.14873789669327755,1.4396609319762816,-0.1961197445557928,67.80587009125044,119.7885150547739,-64.2336845467772
1760598808.5204043,14.743048914098686,-0.04012573249720931,1.3875794152613672,-0.1676321011292726,69.57814291146266,144.96455138194474,-73.09134123598714
1760598808.5303705,13.758558639264782,-0.24227009298961039,1.30198903732283,-0.13928053652826725,69.38380301690543,163.97896529052662,-80.68574750005718
1760598808.5404017,12.661223486171577,-0.4438515251363823,1.192050385137291,-0.11471865168644214,67.2448262831237,175.26673185638808,-86.7259011514187
1760598808.550386,11.47562294345668,-0.6286867144682083,1.0706627332663572,-0.09730928799318356,63.396035837015006,177.80023686448962,-91.00284112181053
1760598808.5604262,10.232100058875545,-0.7803938873941887,0.9523042449978617,-0.08971823536362311,58.25585409091942,171.23140151014485,-93.391943890567
1760598808.5702896,8.965139716300639,-0.8848603450198627,0.8505235750103587,-0.09349596156399503,52.369121962509624,155.96468983157706,-93.85808894748332
1760598808.5803905,7.711083161157827,-0.9324824864565878,0.775686165596398,-0.10874209824487165,46.330749312906754,133.14478116562606,-92.46321362941991
1760598808.5904634,6.505373314465508,-0.9196779011773556,0.7334917145091684,-0.13396665937105245,40.70237540384481,104.55583204648637,-89.37186818204846
1760598808.600407,5.3796676335706675,-0.8493842728211594,0.7245339884624988,-0.16622470545581475,35.9355081932088,72.4434293988904,-84.84874064934327
1760598808.61027,4.359219638881843,-0.7305303624800588,0.7448686803455964,-0.20152533232369893,32.31376389142108,39.28267191099858,-79.24354708675789
1760598808.6203341,3.460897237424399,-0.576679829837164,0.7873028248766784,-0.2354406597222144,29.923937528077502,7.524072004426351,-72.96238740137481
1760598808.6306217,2.692092967528232,-0.4041561582973806,0.8429985317743424,-0.2637921411176526,28.66069558799542,-20.648191592011397,-66.42895979749028
1760598808.640417,2.0506281316579686,-0.229973166829088,0.903006527673858,-0.283276547684699,28.263077816967293,-43.51426257637461,-60.042222398603414
1760598808.650422,1.5255992693385503,-0.06986709438211372,0.9594659947428058,-0.29191173516915153,28.37421869369892,-59.94997538456619,-54.138217896678285
1760598808.6600695,1.0989882827824007,0.06331919562247819,1.0063586848470474,-0.28922860533340744,28.611047148807256,-69.48085179098113,-48.96274485532978
1760598808.6700642,0.7477725040659111,0.16071421234212127,1.0398312440789168,-0.27619655278055893,28.62984041333884,-72.26087971366144,-44.6588948280273
1760598808.6800892,0.44623804154217095,0.21786586960979126,1.0581737798085666,-0.2549248728866057,28.176275545470684,-68.98903529739846,-41.27006103057906
1760598808.6903923,0.16822244920927612,0.23458182703572616,1.0615657467303954,-0.22821990982121432,27.113539730431626,-60.78308857239896,-38.75586195454905
1760598808.7001638,-0.11091642190035356,0.21429238549408366,1.0516878285106084,-0.19909494367660713,25.42738881376377,-49.03194479899769,-37.01628434842602
1760598808.710401,-0.4127121558716773,0.1631343932905786,1.031272030475446,-0.1703252238798864,23.211476912595874,-35.2454760479921,-35.91855889001534
1760598808.72006,-0.7544006372946951,0.08896174059748176,1.0036406941836553,-0.1441150178835636,20.639071398223376,-20.91620052304412,-35.32177954153533
1760598808.7304504,-1.1480987941495508,0.0004375363364241673,0.972275698973575,-0.12190767817464944,17.928243088809168,-7.402089566189067,-35.09575613167304
1760598808.7400858,-1.6003185712239911,-0.09371621590457793,0.9404557143686046,-0.10433846611161772,15.307078100409983,4.164456626047058,-35.13254549663029
1760598808.7500985,-2.11181474163738,-0.18530533355882703,0.9109923891467011,-0.09131169115893134,12.983919811604103,12.939314141477906,-35.350935631269394
1760598808.7604506,-2.6777979208872558,-0.26711573428459834,0.8860815759629774,-0.08217654865900667,11.12567700006049,18.40059537961401,-35.69537603969749
1760598808.770151,-3.2885503357567836,-0.33326100414331117,0.8672655571429633,-0.07597180629035298,9.84530851525974,20.35455465136139,-36.13129397315057
1760598808.780145,-3.9304497067548456,-0.3794364376946452,0.8554826657448219,-0.07170364150755114,9.198018048343794,18.915246641364977,-36.638581091394556
1760598808.790386,-4.587342328057792,-0.40307019334879085,0.8511677507230809,-0.06861623260558654,9.184578504271311,14.461206988745941,-37.20460489635662
1760598808.8004107,-5.242130078295259,-0.403352204298495,0.8543642292097637,-0.06641494243982368,9.75957181916248,7.574186959753304,-37.81767016551201
1760598808.8104606,-5.878376021788263,-0.3811294971854149,0.8648154129083027,-0.06540659608409718,10.842169737750654,-1.0333105809254566,-38.46156137883829
1760598808.8204424,-6.481717190696646,-0.33868164285086366,0.8820155793832133,-0.06652874147798296,12.327356484276494,-10.5937961152927,-39.11164856086474
1760598808.8302457,-7.040913624240648,-0.2794195407807843,0.905216099544482,-0.0712507123863578,14.096097275238591,-20.355842408222305,-39.73296060146039
1760598808.840198,-7.548446837262488,-0.20756649973043473,0.9333965563672305,-0.08134530683698961,16.023697330813608,-29.6434646442939,-40.28049944242827
1760598808.850183,-8.000676263116606,-0.12787269347691366,0.9652229702124178,-0.09855026285444145,17.986265384369844,-37.89893686632409,-40.70179494601427
1760598808.8604004,-8.397636017463778,-0.045387729853794606,0.9990222957994347,-0.12416102002148931,19.865653841151197,-44.70682793161601,-40.94129463851558
1760598808.870358,-8.742588815888682,0.034714860041141785,1.0328032414040555,-0.1586190476313213,21.55343571852913,-49.79985538161698,-40.945749953517705
1760598808.8803227,-9.041449237146571,0.1072913501808006,1.064349379384889,-0.20118186325932505,22.9543845302725,-53.049596093124975,-40.66945220247313
1760598808.890075,-9.302156211422862,0.16740223822049732,1.091401983475118,-0.2497736283668868,23.989613808133967,-54.44678270587168,-40.07813454813402
1760598808.900364,-9.534029826890292,0.21054898784147966,1.1119354940284736,-0.3011037818360563,24.599188786622246,-54.07666152625322,-39.15066332077172
1760598808.910351,-9.747106116855653,0.23299677654624407,1.1245066611895107,-0.3510964919727092,24.74382580289788,-52.094608312464196,-37.87822478890863
1760598808.920569,-9.951420569235923,0.232168934922748,1.128627766010668,-0.39559767461180856,24.405238832571627,-48.705933145278664,-36.261369581613344
1760598808.9306624,-10.156216616013065,0.2070489660401925,1.1250726466263616,-0.43122051605380585,23.5846202248937,-44.151826194497104,-34.3057685072777
1760598808.9404347,-10.369088549800994,0.15848628400504305,1.1159851050135445,-0.4560764537410256,22.298658596583383,-38.701237366665886,-32.01772104452332
1760598808.950258,-10.595117504295038,0.08929705466917656,1.1046685341816203,-0.47010273281055526,20.57269534647086,-32.64674538738984,-29.40035706415663
1760598808.9601328,-10.836106434828771,0.004092459086606977,1.095031216371459,-0.4748300243346756,18.431338957385186,-26.301507036458712,-26.451188972491785
1760598808.9702053,-11.090047297078117,-0.09116332588956555,1.0908045684376226,-0.4726815107049139,15.887916832567385,-19.9941866847236,-23.16130987732871
1760598808.980391,-11.35094851617264,-0.1897987628618024,1.0947463385136034,-0.46608188533262374,12.935093389555133,-14.059207714706831,-19.516165423977917
1760598808.990311,-11.60911033418429,-0.2851820805220143,1.1080368832725258,-0.4566766656586832,9.539421280995853,-8.820687485751439,-15.497507594594273
1760598809.0003607,-11.851864190356109,-0.3714586022122522,1.1300043715720902,-0.4448650665509151,5.642256612367429,-4.5700553358301805,-11.085930080510938
1760598809.0103476,-12.064700014153434,-0.44417033274984297,1.1582279252175183,-0.4297233254068463,1.1682361461578612,-1.5395043405289184,-6.263351445670907
1760598809.0204413,-12.232612208394691,-0.5006605510534844,1.1889935912211376,-0.40928775888707924,-3.9594114666411073,0.12438792066397879,-1.014995917688769
1760598809.0301244,-12.341433521361376,-0.5401906205157991,1.2180169657110447,-0.38109241339124406,-9.799457461535724,0.3811109313631194,4.669189057611715
1760598809.040533,-12.378926584350346,-0.5637409564458667,1.2412940497158673,-0.3428197486563012,-16.373257833969948,-0.6949120388503293,10.793274868193834
1760598809.050379,-12.335470835265445,-0.5735295549523891,1.2559076729026826,-0.29292226194967097,-23.649610727650845,-2.9207575842442046,17.353572992355215
1760598809.0603473,-12.204290940140892,-0.5723471104863788,1.2606191037120964,-0.23109885970382527,-31.537110255597472,-6.027108735965292,24.335786188390287
1760598809.0703526,-11.981281469197189,-0.5628597554415153,1.2561196656470532,-0.15854968509935716,-39.885317768140204,-9.692780666685792,31.71104347211982
1760598809.080279,-11.66456106676867,-0.5470471723361732,1.244890306643955,-0.07797497422368202,-48.494036054680336,-13.585718566689701,39.43136133083496
1760598809.0903342,-11.25392480072505,-0.5259089207383643,1.2306965750671255,0.006680131584298371,-57.12845133368056,-17.40342333153318,47.42542452330386
1760598809.1002676,-10.750356156573144,-0.4994913729074359,1.217818317631201,0.09069968436378012,-65.53716485730862,-20.90624135032629,55.59555857998135
1760598809.1105838,-10.155718676004664,-0.4671934245498271,1.2101677546009606,0.16921770797509525,-73.47004906845126,-23.938676887206597,63.81650291318338
1760598809.1204116,-9.472684740826855,-0.42823876821180673,1.210474694335065,0.23787505302377546,-80.69320780222576,-26.436441031955066,71.93636229754382
1760598809.1303415,-8.704890661632987,-0.38217691494038236,1.2197036247580153,0.29338064308609463,-86.99905566999027,-28.419762148976513,79.78008341363046
1760598809.1405685,-7.857247855360515,-0.3292914493492592,1.2368129008737718,0.3338647471425729,-92.21078893063661,-29.975801821311908,87.15585738317861
1760598809.150591,-6.936300944484797,-0.2708318162093109,1.2588840353152804,0.3589738020204126,-96.18228150798554,-31.2342860329494,93.864703769691
1760598809.160222,-5.950509859335743,-0.2090226264777643,1.2815681101617915,0.36972957757962494,-98.79621367810101,-32.34062634795223,99.71299464477862
1760598809.1703966,-4.910343126832444,-0.1468378332206464,1.2997472701877975,0.368223600767275,-99.96408580542479,-33.43024990344175,104.52697226577074
1760598809.1803784,-3.8281004750713565,-0.08756808462155345,1.3082996714164108,0.35723223773605806,-99.6308885364928,-34.60699467594753,108.16772669387653
1760598809.190574,-2.7174316839815233,-0.03426203107510265,1.3028665559693686,0.3398298987772337,-97.78472660207066,-35.927437234336736,110.54486828483665
1760598809.2003622,-1.5925792191164572,0.01083205231216907,1.2805257886101007,0.31905572077845773,-94.46880091383036,-37.39196245298047,111.62721427646935
1760598809.2103844,-0.4674333721988875,0.046685159620132394,1.2402688299739444,0.29765772601038,-89.79129592552893,-38.94243357694237,111.4489970621404
1760598809.220161,0.6454636917034302,0.07365865408631553,1.1831749463833772,0.27790791224631045,-83.9287191031912,-40.46574733354588,110.11029271590343
1760598809.2304223,1.7358066001731696,0.09338425912706848,1.112215034362526,0.26146804639471344,-77.11991218742575,-41.802509762802984,107.7706932304691
1760598809.2403867,2.7961595924733467,0.10838696012700462,1.031716662638843,0.24929918075315993,-69.65040315816071,-42.76038441423239,104.63593813886493
1760598809.2503529,3.8222251749833145,0.12154905686954688,0.9466372794264961,0.24163357198259594,-61.82905979827756,-43.13185576584363,100.93837750019367
1760598809.2603128,4.812703095071264,0.13554404773848186,0.8618448923204455,0.23803474697947505,-53.96060922359799,-42.715704440810825,96.91354656547968
1760598809.2703352,5.768766299299323,0.15235917003402882,0.7815661414030753,0.2375489484691148,-46.31832067012625,-41.34038675238454,92.77630567607744
1760598809.2804592,6.693246022296379,0.17298636309856918,0.7090738974853963,0.23891960384066896,-39.12099493523252,-38.886352021602534,88.70041568342505
1760598809.2903616,7.589663112063481,0.19731405724246195,0.6466062384001319,0.2408195268714148,-32.51745490143406,-35.303840610709685,84.80481424021319
1760598809.300377,8.461259918483023,0.22421273675525003,0.5954599590730657,0.24205801075972389,-26.580212614693476,-30.62314883498142,81.14838576211947
1760598809.310389,9.310175930528704,0.251779640389545,0.5561839174350299,0.24173295447038967,-21.308283295355213,-24.9554867529325,77.73317475207647
1760598809.3203955,10.136875077091723,0.27768993310266393,0.5288026229319922,0.23931282994662156,-16.637655247480748,-18.484033752928614,74.51435310107436
1760598809.3304865,10.939881682705478,0.2995926561805641,0.5130187699463822,0.2346466077309756,-12.456980527578924,-11.44636188001947,71.41423191424664
1760598809.3404043,11.71582717067362,0.3154901405579344,0.5083642263608688,0.22791250993236098,-8.625705876193914,-4.110789996357071,68.33738097968356
1760598809.3504694,12.45976262263428,0.324047309991902,0.5142843245885189,0.21952833994282284,-4.992104199195094,3.249853228146452,65.18442514204936
1760598809.360311,13.165661770075774,0.32478985634820695,0.5301490890720789,0.2100534264613642,-1.4093757598705692,10.383301704448588,61.86306701489512
1760598809.3703928,13.827027724856602,0.3181671996204867,0.5551928665848874,0.20011109685606768,2.251113460953743,17.078283357805198,58.29595681185687
1760598809.3804514,14.437521917739089,0.3054771570759026,0.5883963909184209,0.19035149341526508,6.0896086700745755,23.177512896367837,54.42584197623197
1760598809.3901303,14.991549371739135,0.2886713433238981,0.6283419747009068,0.18146105063184043,10.170401917085071,28.58144310555842,50.21881441061732
1760598809.4004664,15.484754198396052,0.2700782313751585,0.6730874321062102,0.17420934650013134,14.516376701109547,33.242267226581596,45.66645053713323
1760598809.4100966,15.91439751960166,0.2520901543547964,0.7201114894481259,0.1695069066714553,19.10529334139729,37.14918934151935,40.78732317071205
1760598809.4201741,16.279603604463453,0.23686085539557467,0.7663783872609994,0.16843278691691776,23.86797839291801,40.30750193197565,35.627931206020214
1760598809.4303336,16.581469317858875,0.22605454684931833,0.808548369304149,0.1721888048780627,28.689180509123485,42.71521447501763,30.262755077871745
1760598809.4405644,16.823040277030078,0.2206795657502375,0.8433226525558266,0.18195779520268382,33.41211951454469,44.34161604734215,24.79302222438382
1760598809.4503827,17.009167011979677,0.2210315180468533,0.8678638153129539,0.1986807773448153,37.84757557706928,45.112060470189334,19.343793957697795
1760598809.460374,17.146264566853723,0.22675983812202288,0.8801958941373395,0.22280014016912256,41.787992440345135,44.90237199315436,14.05903360092875
1760598809.470404,17.2420042123498,0.2370520352074074,0.8794882074573603,0.254024292469437,45.02656426476349,43.54479796584309,9.094380846549408
1760598809.480166,17.30496219656691,0.2509010805466084,0.8661692954045735,0.2911583147509085,47.380255535711,40.84582810676696,4.60754523701611
1760598809.4900863,17.344240314973568,0.2673955639569669,0.8418747970567526,0.3320348642061614,48.71407920798341,36.614722628650746,0.7465658908199726
1760598809.5004327,17.369064408251074,0.285964867420635,0.8092687854807205,0.37357867632759073,48.96259229291793,30.700144698101724,-2.363471976982235
1760598809.510447,17.388364472867455,0.3065249713485756,0.7717854439012659,0.41203012487084706,48.14458910235444,23.030802851827108,-4.634468567015098
1760598809.5204072,17.410340929776602,0.3294944584581607,0.733338677486763,0.4433176751275229,46.36852873504975,13.654801641182626,-6.029192319008067
1760598809.5304062,17.442020356648854,0.35567652807022043,0.69805275663408,0.46351695496179757,43.82833355948458,2.772006629026847,-6.573897562665201
1760598809.540597,17.48880020102036,0.38602803127204566,0.6700609831585926,0.46930605751333426,40.79071494406352,-9.245570409801964,-6.368067267554757
1760598809.550065,17.553981248491116,0.42135553759864597,0.6533834780676393,0.4583440716223652,37.57572832738657,-21.84878539154286,-5.589081355707253
1760598809.560443,17.6382955998017,0.461986730007794,0.6518415583491933,0.42954020669302373,34.5321609244497,-34.323379107154075,-4.4893861442749765
1760598809.5703669,17.73945756819057,0.5074645887970302,0.6689300997848862,0.38320918822258676,32.00918239623003,-45.819228760663904,-3.384276049361264
1760598809.5804107,17.85178861517582,0.5563061029041177,0.7075730377108302,0.3211143519579343,30.325839147169688,-55.39634655191999,-2.62973160553364
1760598809.5902045,17.96598663984099,0.6058595437418653,0.7697241541501767,0.24639524918921743,29.74047320801575,-62.08666198012382,-2.5915685700158417
1760598809.6004217,18.069118904786404,0.6522861441027603,0.855827916961922,0.16337399467784094,30.422708070628033,-64.969765304681,-3.608961485764735
1760598809.6108525,18.144912192322774,0.6906823108076475,0.9642126219281523,0.07723685009181422,32.4309355482688,-63.259223395266666,-5.956773096015003
1760598809.620087,18.17438953515045,0.7153461054491939,1.0905441631990815,-0.0064056249658465845,35.69811801975018,-56.393958192723886,-9.811766397369796
1760598809.6304321,18.1368610375663,0.7201817787103237,1.2275119368906304,-0.08206019403427209,40.02823401398578,-44.12695688026359,-15.227587755910216
1760598809.6408033,18.011225343922987,0.6992358379909159,1.3649315670584234,-0.14494400399216203,45.1049605871578,-26.601741020922837,-22.12239328989931
1760598809.6501074,17.77749062390991,0.6473621225457975,1.4904163238052421,-0.19154442964767768,50.513296922988445,-4.405908275485283,-30.28122288530946
1760598809.66048,17.418391041517083,0.5610037350804792,1.5906796017867115,-0.22004693022633987,55.77378502259039,21.409109287019096,-39.37291869309646
1760598809.6702337,16.920963665989525,0.4390449453876687,1.6533844934794086,-0.23055071776599675,60.38768772385446,49.35195953089626,-48.97899828369579
1760598809.680431,16.277960288926867,0.2836307768244837,1.669275170583261,-0.22503376472608702,63.88986197817163,77.56637372049735,-58.630035493814326
1760598809.690418,15.48898699147463,0.10078743448407963,1.6341581435687382,-0.20707640317989673,65.90414007886227,103.96010013312643,-67.8442585281941
1760598809.7003717,14.561275560971415,-0.09937921932257933,1.5502173153529164,-0.18139261094660789,66.19407614630185,126.38347604706303,-76.16348988762644
1760598809.710233,13.509986529571483,-0.30313818435185574,1.4262119116343874,-0.15323827484028732,64.70059312701518,142.84396563178575,-83.18320053541773
1760598809.7204456,12.357932681900506,-0.49437799285938255,1.276352664109348,-0.12776339836397108,61.55833203477616,151.73290819430906,-88.57583626366021
1760598809.7301416,11.134620077377264,-0.656565964000499,1.1180258643948795,-0.109366934512294,57.085092911510955,152.03264942976662,-92.1086369678878
1760598809.740425,9.874558449263285,-0.7750865219839852,0.9688898779376732,-0.1011203090406563,51.74345676003549,143.46927346320436,-93.65771457383062
1760598809.7503834,8.614901935660384,-0.8394477200672196,0.844045330555596,-0.10434625127648677,46.0791707369794,126.58070535503506,-93.21872461855287
1760598809.760452,7.392620607830222,-0.844851650779574,0.7539140275166984,-0.11844646242164214,40.64554688683171,102.68254057693827,-90.91195343248222
1760598809.7704194,6.241526689724549,-0.7928086289641536,0.703206913055495,-0.14104304799211195,35.92598679330464,73.73219466534616,-86.97787268432064
1760598809.7805958,5.189540698409414,-0.6907447412215323,0.6910345567992953,-0.16843512979771974,32.26752758210158,42.11080737819271,-81.75967150625401
1760598809.7902436,4.256558180438612,-0.5507895788812447,0.7119311945939082,-0.19629198585670285,29.836940761764406,10.35654483953099,-75.67209265690852
1760598809.800124,3.4531754590391177,-0.3880561726230969,0.7574040132892432,-0.2204355924235588,28.607310794098524,-19.110323971280422,-69.1598040111075
1760598809.8101902,2.7803872640197542,-0.21873326715712638,0.8176041359019742,-0.23753735277274685,28.37734338431036,-44.23130611460352,-62.65169447623742
1760598809.8201466,2.230221481796683,-0.05825487678269995,0.8828090075306704,-0.2455799554329563,28.818849356803803,-63.49134253682263,-56.51864268472062
1760598809.8301113,1.7871543177418343,0.08024938461295317,0.9445431812879598,-0.24400608855465028,29.541801899037782,-76.02028117189828,-51.04141116837273
1760598809.8403986,1.430063907848674,0.1870700301729378,0.9962889535335058,-0.23356561049531596,30.163158277780962,-81.61133601343528,-46.39310359328156
1760598809.8503978,1.1344384624560573,0.25650351270025645,1.0338199710025333,-0.21595126170726459,30.366274440319167,-80.66700082137842,-42.63782107857906
1760598809.860308,0.8745653790432123,0.2868935098667777,1.0552263410604554,-0.19335300870270744,29.941541819256337,-74.0914729011017,-39.74422733572224
1760598809.870293,0.6254913285561676,0.2802073437620712,1.0607033712568728,-0.16805241750348962,28.804134857658504,-63.15150655858015,-37.61012960510668
1760598809.8804495,0.36464013779059673,0.24130037325786705,1.0521688377382075,-0.1421362312353638,26.989810009482838,-49.3256885654083,-36.092482232842855
1760598809.89025,0.07306858793413189,0.17704428755565751,1.0327704304930532,-0.1173585410071531,24.633444029566228,-34.157549946417916,-35.03689247811256
1760598809.900665,-0.26360478439027907,0.09546451287093458,1.0063476390739854,-0.09513836039312104,21.936956915206903,-19.122980465653185,-34.30179262770113
1760598809.9101932,-0.654560854474709,0.004969584195577787,0.9769134133033125,-0.07664698969259105,19.13350443500405,-5.518634535989183,-33.77447049294006
1760598809.92042,-1.1034321812121262,-0.08630436523524022,0.9482122993171265,-0.06292084637700937,16.453813455335656,5.624207289915976,-33.378356919894955
1760598809.9303854,-1.608291635297237,-0.1710414733125312,0.923391241248284,-0.05493563790286708,14.098860145604625,13.59708845839529,-33.072659501684555
1760598809.9405587,-2.162036181522943,-0.2431909459655674,0.9047926026506821,-0.05359691972389799,12.221252908136476,18.040979361805192,-32.84630343601851
1760598809.950458,-2.7531905146793427,-0.2982928840380356,0.8938560878511403,-0.05963419046632855,10.915983645875205,18.941373954020477,-32.70833819641717
1760598809.9602027,-3.3670855388424865,-0.33365469842316386,0.8911045504112763,-0.0734205664272488,10.219783836013097,16.5933631768267,-32.67684540298311
1760598809.9704332,-3.987292237273931,-0.34835497051010206,0.8961893697695953,-0.09476582522201553,10.117241856841625,11.540866764016794,-32.76819360812806
1760598809.9804707,-4.597140799697859,-0.3430791517838702,0.9079799826029032,-0.12274077618704926,10.551203770849455,4.497098336682999,-32.98826031343986
1760598809.9901302,-5.181140663786971,-0.3198234027939091,0.9246926691369776,-0.1555889206240311,11.434860379353802,-3.744203137064253,-33.32687918967955
1760598810.0002265,-5.726139864184179,-0.28152475157288914,0.9440600368999803,-0.19077182174007248,12.663294110401162,-12.395985323602266,-33.75619778917468
1760598810.0105271,-6.222118250984965,-0.23168452123656294,0.9635422120201524,-0.2251744611975928,14.122998720666137,-20.753230571217724,-34.232892698289
1760598810.0204444,-6.662588229365019,-0.17404831423240344,0.9805743987595604,-0.25546293514076546,15.69878987538794,-28.248345569284663,-34.70345006303687
1760598810.0303404,-7.044654986609652,-0.11238621971760948,0.9928355954691719,-0.2785455474362616,17.278363269087855,-34.48194795094146,-35.111197387067094
1760598810.0401337,-7.368838148330031,-0.05038110350245244,0.9985114120081334,-0.29204945534294235,18.7553611492929,-39.228396764371965,-35.40361430234744
1760598810.0502412,-7.638765443536461,0.00840646561049001,0.9965125335867027,-0.29469942918156977,20.03209492837836,-42.41921776922062,-35.53863802415747
1760598810.0604467,-7.860823516864127,0.06055089717042081,0.986607241327224,-0.28649637498803,21.022970436680506,-44.11053393430596,-35.489065235454504
1760598810.0703351,-8.043808688999471,0.10280182744893405,0.9694401469584286,-0.2686591939733826,21.65911274891948,-44.44228232371351,-35.24457522441611
1760598810.0801418,-8.198576024932626,0.1321792330633479,0.9464366349920057,-0.24338463217499492,21.89377680808537,-43.597219243338536,-34.811262647040756
1760598810.090152,-8.337647008336292,0.1461274190056907,0.9196193200788836,-0.2135317807358601,21.707199064458216,-41.766588504544366,-34.20884264234148
1760598810.1006296,-8.474710104986736,0.14271698550498094,0.8913799975993679,-0.18232039237651523,21.109085348363546,-39.12718240196318,-33.465889118094616
1760598810.1102817,-8.623941241220574,0.12087534248493904,0.8642568484249439,-0.15307381114343233,20.137284099782594,-35.83183713232965,-32.61361686926377
1760598810.1203315,-8.79909075707236,0.08061903731213112,0.8407570398118771,-0.12898732228140936,18.85223210613025,-32.012661953766944,-31.678835351052488
1760598810.1301296,-9.012334970487567,0.023250383390339885,0.8232346158715301,-0.1128904041115379,17.32786680306819,-27.793927236325302,-30.676791716944546
1760598810.1401947,-9.272968172329028,-0.04853249443491115,0.8137965991695701,-0.10699250906429435,15.640277381369593,-23.309895591423135,-29.604705973888287
1760598810.1508417,-9.586092746042615,-0.13066817592388338,0.8141938400586274,-0.1126313815439647,13.855382517971256,-18.722223127701007,-28.436905616894478
1760598810.1602113,-9.951521907779222,-0.21794876747386024,0.8256690972517791,-0.1300610214777286,12.016817031020315,-14.231893085232137,-27.12254830924896
1760598810.1704965,-10.363120047592716,-0.3044307091287236,0.8487694540117613,-0.15832114038092304,10.135347955990987,-10.08176125807255,-25.586848603504016
1760598810.180475,-10.808763680425375,-0.3840107966858226,0.8831623310116421,-0.19522445909309252,8.181481171379069,-6.547452891233086,-23.736354618290974
1760598810.1906767,-11.271017752815522,-0.4511038662392525,0.927510303960969,-0.2374802718080276,6.083102240977388,-3.916387879242064,-21.468112125485835
1760598810.200394,-11.728502006228558,-0.5013307672517545,0.9794553840457478,-0.2809438165479335,3.729637284482234,-2.456952215754878,-18.681643218239884
1760598810.2104106,-12.15779296315219,-0.5321058686182697,1.0357435391240952,-0.3209564489739473,0.9832268960233631,-2.3819874804513543,-15.291840529223103
1760598810.220459,-12.535599339582985,-0.5430101363604376,1.0924957185183246,-0.3527366281179554,-2.3039537521097553,-3.8124251275061325,-11.240450379473915
1760598810.2303805,-12.840891572035991,-0.5358601989295342,1.1456087246307844,-0.3717918797297792,-6.268413086841331,-6.7476597595637156,-6.503999331132549
1760598810.2403998,-13.056673917585234,-0.5144370307195529,1.1912459432782918,-0.37433179219424445,-11.013227338263617,-11.048920982792112,-1.0968201968982392
1760598810.2503557,-13.171155725343835,-0.4839050029775113,1.2263519411571082,-0.35766430526376664,-16.58856920052536,-16.44041723381059,4.930972168811238
1760598810.2603974,-13.178190317580182,-0.450012310001555,1.2491022646310106,-0.3205509467214665,-22.978014784218416,-22.530447078567526,11.499534501290816
1760598810.2703352,-13.076980568364974,-0.4182021593966974,1.2591931095134767,-0.263481104944296,-30.09279621772637,-28.851263323253207,18.507637629472548
1760598810.2801445,-12.871169710903834,-0.39277528816654633,1.2578938734436944,-0.18880978475851903,-37.77483728129583,-34.91278936511535,25.841483871847558
1760598810.2904506,-12.567519839568156,-0.3762339770795214,1.2478264489429334,-0.10070436780299455,-45.80804874624353,-40.262114393126396,33.38261341456889
1760598810.3007772,-12.174420383859756,-0.368915862394521,1.2324882587152481,-0.004870840699660046,-53.93622259807801,-44.53891212554605,41.01409976606232
1760598810.310252,-11.700468825885931,-0.36899251163407976,1.215591824551333,0.09193147747886395,-61.88503571713846,-47.517256004406576,48.62467449761248
1760598810.3204212,-11.15333355872804,-0.3728528855370024,1.2003432401139558,0.1825424120419411,-69.38513228467677,-49.1268917470183,56.110618245621076
1760598810.3315125,-10.539049911501731,-0.3758148731517192,1.1888127576656062,0.26015464370919084,-76.19303003940766,-49.45123612625792,63.37537143227701
1760598810.3403516,-9.86182129987565,-0.3730301508816902,1.181548749859597,0.31909250470564016,-82.10680648770163,-48.70403191644996,70.32712086267449
1760598810.3504405,-9.124308335531257,-0.3604005215382606,1.1775432182693957,0.3555295257857718,-86.97428865683992,-47.190459230798055,76.87517008011754
1760598810.3610363,-8.328304937959977,-0.3353274700727817,1.174573457456547,0.36803910384972444,-90.69288896377687,-45.260613622139694,82.92644163722345
1760598810.371603,-7.475639924117588,-0.2971646311652622,1.1698342156526702,0.3578545425151213,-93.20225645448976,-43.263234252896474,88.38360918666513
1760598810.380374,-6.569116943298578,-0.24731078922068425,1.1606759408086664,0.32873154839147767,-94.47305989398045,-41.505810826282584,93.14595066767058
1760598810.390271,-5.613313004116808,-0.18894656451180594,1.1452322221555864,0.28638552190667704,-94.49648924632275,-40.22470429041229,97.11326920769372
1760598810.4005005,-4.615085809884643,-0.12647177508600863,1.1227772541946608,0.2375973543627245,-93.27853979842075,-39.56666498168515,100.19254910009178
1760598810.4104207,-3.5836866110271006,-0.06474321896328251,1.093764622580779,0.18918158825664827,-90.84086938403087,-39.581565433733196,102.30660421976413
1760598810.4205732,-2.5304380791689463,-0.008245020892382769,1.0596005632716758,0.14703880455990542,-87.22717022941617,-40.22516795691816,103.40373618475938
1760598810.4302683,-1.468011582518644,0.03965996729323607,1.0222624639905293,0.11546819987971435,-82.5120204824448,-41.370082316403376,103.46718654511929
1760598810.4401977,-0.409412554730425,0.07725755808017117,0.9838816455036278,0.09682658528078768,-76.80873902172821,-42.82271662018837,102.52291673527353
1760598810.4504375,0.633159591355096,0.10468561942356294,0.9463807606748029,0.09152275280988281,-70.27347064058189,-44.34410041012762,100.64407878081293
1760598810.4601538,1.6493826948914616,0.12377389365120008,0.9112136317575545,0.0982675810314477,-63.10374642276636,-45.67292243139995,97.95059775905938
1760598810.4703608,2.6316293151792505,0.13755783956382903,0.8792220579691331,0.11448140309511226,-55.530661312798074,-46.549625538914235,94.60274601296562
1760598810.4801772,3.5753917030764764,0.14957595307386493,0.8506100355975674,0.13677736075032332,-47.80477847485982,-46.740461697847344,90.78854906396161
1760598810.4901373,4.479249762452966,0.16310672709860038,0.8250324131264067,0.16146103007182,-40.17715561017265,-46.05987209709051,86.70619400058133
1760598810.5004168,5.344404218047856,0.1805098867936654,0.8017836253782729,0.18499817368305213,-32.87822917632386,-44.38883274170584,82.54393891853357
1760598810.510183,6.173877176663494,0.2028041546497077,0.7800461543200664,0.20441033796380692,-26.09806286558048,-41.68658658412464,78.46089800047197
1760598810.5207908,6.971537282729843,0.22954999559329106,0.7591356959330887,0.21756699372729701,-19.97125332880651,-37.993863304805366,74.57215040666087
1760598810.53085,7.741125390567771,0.25903070886072266,0.7386836655355462,0.22335010928400612,-14.5687245922778,-33.42707681763544,70.9407697165724
1760598810.5403812,8.485438608444742,0.2886622513810936,0.7187264394172856,0.22167480947154217,-9.897241780806942,-28.1645223351865,67.57780420107694
1760598810.5506282,9.205785141079257,0.31552717018439247,0.6997020455081733,0.21336765962388093,-5.906167728632276,-22.426742070716166,64.44945062849173
1760598810.5601335,9.901763353159987,0.33692300002982595,0.6823728360211319,0.19993298737915155,-2.4999339691811255,-16.453776882275637,61.48921016514996
1760598810.5704207,10.571358398629124,0.3508315209122916,0.6676985922059052,0.18326360389578492,0.4460226561213147,-10.482082440443396,58.612089428304735
1760598810.5804179,11.2112981366301,0.3562414701796747,0.6566855072208985,0.16536059207872877,3.068376627552037,-4.723710513208575,55.72803489788929
1760598810.5903738,11.817574144242927,0.35328677289577254,0.6502351187900935,0.1481142284187168,5.500386900170692,0.6499290991368011,52.75259998156606
1760598810.6003716,12.386018164771647,0.3431920202071861,0.6490132837463859,0.13317144763071656,7.859446983192493,5.5178834378420225,49.61397969530439
1760598810.6104453,12.91283058855742,0.3280460849150376,0.6533532710031915,0.12188585575475014,10.238655029307688,9.811986897527856,46.25661974106601
1760598810.6204429,13.394983068139027,0.3104528230710354,0.6632010285103715,0.11532460513537417,12.702520276285478,13.511674501036063,42.642349420724656
1760598810.630213,13.830455546766434,0.29312958813278606,0.6781067731745422,0.11429680615399603,15.2861829622634,16.632311966678106,38.75029691332871
1760598810.6404276,14.218308759044978,0.27853043705039177,0.6972649351534,0.11936957015657149,17.997029531577844,19.208999835624816,34.57674073147069
1760598810.6508732,14.55862635735197,0.2685569169163738,0.7196007312017724,0.1308493211494148,20.817448022989335,21.27846795897392,30.135652514579597
1760598810.6602416,14.852379951941417,0.2643912442299297,0.7438934764433892,0.14872606611368838,23.70766111671873,22.861973223789995,25.460172612285323
1760598810.6703346,15.101274755939402,0.2664562974881067,0.7689157915181843,0.17260033469608071,26.607965597596746,23.951983014950773,20.60477044811436
1760598810.6802163,15.307625811176509,0.27448356902680304,0.793558749195195,0.20162752319166366,29.440259021161012,24.50484896123142,15.647413801512204
1760598810.6904724,15.474297730543286,0.28765740020820396,0.8169106960264633,0.23451491834178353,32.10949332113568,24.440706217052032,10.6907112986393
1760598810.7004237,15.604716949400393,0.3048000204848144,0.8382669586469396,0.26958746613526824,34.506424929439085,23.65069586872604,5.860794283540958
1760598810.7105231,15.702939559863967,0.32456476496985426,0.857070470462717,0.30490464245583315,36.51309977149531,22.01064782439376,1.3028362542328478
1760598810.7206216,15.773738123779017,0.345612510811988,0.8728119864943206,0.3383863516007833,38.01153836735553,19.3997677766819,-2.8273388581140497
1760598810.730348,15.822663140720627,0.3667557005864167,0.8849390806250391,0.36791456142658235,38.89462505371677,15.722488665231005,-6.375252136434425
1760598810.7402303,15.856036735018728,0.3870615085125903,0.8928249272518369,0.3914122090892617,39.07737404498502,10.93120702782289,-9.202214382766437
1760598810.750397,15.880841279189642,0.4059100868455174,0.8958292583935076,0.40692677664550264,38.50708775305532,5.047146929291011,-11.200547412343937
1760598810.7603858,15.904473200276106,0.4230082801548522,0.8934520358788378,0.41274084114375026,37.17190386388746,-1.823580624722731,-12.307822116469902
1760598810.7703347,15.934348058935276,0.4383656135184099,0.8855476428251968,0.40750964898383474,35.107901607105454,-9.48121827743576,-12.51855580485551
1760598810.7803285,15.977370381636918,0.45224521299846926,0.8725454701303864,0.3904109878103755,32.404840835688574,-17.632364942526735,-11.892101792170234
1760598810.7904232,16.03931369197139,0.46510291544501114,0.8556184987840675,0.3612901063127416,29.209927740706682,-25.898876268629742,-10.555737073806029
1760598810.800605,16.12418005343326,0.4775214272620033,0.8367547158007994,0.3207814864271585,25.728207597530385,-33.83455663770286,-8.702210211770023
1760598810.810217,16.233615545603122,0.49013626661112725,0.8187096156111155,0.2703839701067839,22.217725173670857,-40.94768103695037,-6.581310397513977
1760598810.8204315,16.366448382105787,0.5035427586885292,0.804840724653809,0.21246046325830537,18.977786979577733,-46.727114982294545,-4.485436212441277
1760598810.8304083,16.518396741766402,0.5181735974020169,0.7988385102177454,0.15013589407822617,16.3296114095933,-50.67012587512289,-2.7297277404729416
1760598810.840186,16.68197287368357,0.5341439263883403,0.8043709159684667,0.08708108567309371,14.590140953451286,-52.31062242473795,-1.6280438099034527
1760598810.8503826,16.8465950323622,0.5510710873569836,0.8246574028581871,0.02719293701740053,14.041281600592596,-51.247106993741916,-1.466771737192134
1760598810.8601968,16.998910889071322,0.5678862422351981,0.8619913228454632,-0.02579425708366619,14.897780663795325,-47.16983971995704,-2.4789631357501225
1760598810.8704429,17.123331768793797,0.5826651004576204,0.9172419489482814,-0.06871239568083613,17.27721181905917,-39.8866526859068,-4.821500192971461
1760598810.880414,17.20276844455773,0.5925161383993696,0.9893901462959417,-0.09931473010796708,21.175437133008376,-29.34676419207162,-8.557933403734472
1760598810.8901553,17.219538164388123,0.5935770186233149,1.075180747833113,-0.11652246977104877,26.450838034833,-15.66201425807819,-13.649308910424933
1760598810.900453,17.156379826014653,0.5811790515744123,1.1690002567332665,-0.12052096184844684,32.82054068567005,0.8749543768799227,-19.95464859207009
1760598810.9101377,16.997485668958564,0.5502358090461283,1.2630934387498138,-0.11269418225846323,39.8714440710917,19.7763592788897,-27.241667049352436
1760598810.92044,16.72945601123766,0.49588499414051623,1.348198953645009,-0.0954178069944852,47.087712175964434,40.35077148066142,-35.20682544312152
1760598810.930711,16.342116358103077,0.4143588939887314,1.4146069561326133,-0.07175125267659806,53.8943722067336,61.704538327120716,-43.50217246064214
1760598810.9406412,15.829186836463197,0.3039874834182172,1.453534928008896,-0.04507612119575421,59.71395343513786,82.75949418838259,-51.76505589585547
1760598810.9508336,15.188833973155251,0.1661675885106282,1.4586098413134618,-0.018732148198768724,64.0301982668554,102.2942850916695,-59.64616849002288
1760598810.9605598,14.424142952744885,0.0060768928901518025,1.4271649599562548,0.004290759470368614,66.45047407957823,119.01500195802714,-66.83182044619274
1760598810.970272,13.543517151502506,-0.16711202430593616,1.361036924125872,0.021548860788167708,66.75735067105583,131.65612775394382,-73.0579005135303
1760598810.980148,12.560947920346749,-0.34072776604479116,1.2666112437521808,0.031214095276000442,64.94046261750574,139.10565291550517,-78.11548121050076
1760598810.990338,11.496024082961563,-0.499895100719847,1.1540218748564133,0.032070395169429285,61.20239049227864,140.54026780607137,-81.85072999281213
1760598811.000425,10.373503522327667,-0.6295138687503216,1.0356269586231108,0.02352878091276579,55.93635482598899,135.55025903862511,-84.16352350833944
1760598811.0104854,9.222285263285775,-0.7165775555810725,0.924079184960603,0.0057165946011951355,49.678034930165516,124.23143362880896,-85.00881027118136
1760598811.0203924,8.07371601882346,-0.7523291531862037,0.8304101950627244,-0.0203887498204231,43.03790290367915,107.22417586511207,-84.40217064016912
1760598811.0303595,6.959320953513789,-0.7337528343163451,0.7625243258908927,-0.052876714739486415,36.62357531633798,85.68712652274745,-82.4274119957019
1760598811.0403798,5.908213868498326,-0.6640747946904433,0.7243677192360088,-0.08897102031162578,30.96347186245744,61.203304290756414,-79.2413672391253
1760598811.0503669,4.944557005242048,-0.5522174483298007,0.715854673644981,-0.12529842500896526,26.44321434211462,35.62764837982569,-75.0707485068443
1760598811.0604472,4.08546206631448,-0.4114005079758347,0.7334537164763685,-0.15833853034809378,23.264547702325274,10.894973991405834,-70.19802248921187
1760598811.0704641,3.3396464149322007,-0.25722780089180913,0.7712104137547613,-0.18496700323667095,21.433146850078554,-11.18538872783258,-64.93674394929585
1760598811.0801866,2.7070151003425496,-0.10562596031254265,0.8219370881344285,-0.20296331539746543,20.776731555470285,-29.118807696286744,-59.60013181228775
1760598811.0901575,2.179179344416655,0.029051437160546215,0.8783279977552046,-0.21135589076101796,20.989200873161167,-41.87107051661064,-54.468714451593975
1760598811.1001642,1.7407832360431785,0.13552283961004655,0.9338367227131441,-0.21052308162977454,21.691437242268776,-48.95111896794308,-49.76312392209993
1760598811.110444,1.3714113874602802,0.2065321026018561,0.98324565503244,-0.20203892089050693,22.49661691277609,-50.42331172727814,-45.62682278088716
1760598811.1206446,1.0477987393645614,0.23919045715832177,1.022935463505564,-0.18832003457856727,23.068182017958907,-46.85445759693364,-42.121302459230954
1760598811.1303468,0.7460627498752468,0.23473265702366075,1.0509088551580186,-0.1721695428951391,23.16170951814299,-39.21073501494281,-39.23369051448243
1760598811.1401474,0.44372502560434857,0.19780597853191176,1.066637062132604,-0.15631619523965207,22.64641442367886,-28.724634508351873,-36.89428200253663
1760598811.150416,0.12136963848735403,0.13547872911585743,1.07079062008342,-0.14302296955014773,21.506451673579217,-16.752140144286304,-34.99978957792774
1760598811.1604006,-0.23612711571073053,0.056170964800146564,1.0649042204389245,-0.13380758888901828,19.825513546118803,-4.636799103209833,-33.43745995900312
1760598811.1704495,-0.6387941784466378,-0.031329488665248977,1.051019483311623,-0.12929164596876636,17.760078407947095,6.407874105496416,-32.105698191826676
1760598811.1801865,-1.0911605478729496,-0.11867442323467958,1.0313494013057598,-0.12918051158913038,15.507168347287214,15.391075830381851,-30.928228807026482
1760598811.1901507,-1.5922247739268558,-0.19856430039604855,1.0080066845443902,-0.1323698831500457,13.271992023706854,21.609244621569726,-29.860637498903536
1760598811.2006354,-2.1357988832132038,-0.2651788508938853,0.9828286668371276,-0.13716803415928042,11.239796234618089,24.68103662333121,-28.889839239337743
1760598811.2104316,-2.7112365970706422,-0.3144560217641657,0.9573130537389016,-0.14160985172422966,9.55493645732758,24.552393931115184,-28.028185344768822
1760598811.2204487,-3.3045344024982786,-0.3442293222470972,0.9326567385095307,-0.14382335919203684,8.30878227687238,21.472516053182694,-27.304393079297768
1760598811.2302775,-3.899741225744291,-0.3542138713551,0.9098711457947848,-0.14239981601239876,7.536692855096913,15.943306104513598,-26.75337055158109
1760598811.2404428,-4.480545465637449,-0.3458272896039685,0.8899362143209089,-0.13671805951902616,7.223022662490691,8.647262346735133,-26.4065822455913
1760598811.2504518,-5.031852463130889,-0.3218496547225976,0.8739510500790468,-0.12717957573844088,7.312094532796848,0.36141071531874874,-26.284113539008793
1760598811.2602072,-5.541145212443274,-0.28595886314927194,0.8632404354233063,-0.11531860943676932,7.722475424766951,-8.133039304492131,-26.389180893518866
1760598811.2704453,-5.9994499926451645,-0.24220712784337775,0.8593818419521886,-0.10375984310645721,8.361807352488754,-16.13483938108527,-26.705494086683146
1760598811.2803967,-6.401802248042122,-0.1945171939769643,0.8641279074907692,-0.09600647346466333,9.139842790111198,-23.090991566034656,-27.197544440757078
1760598811.2904677,-6.747203463918673,-0.1462696592901553,0.8792147740561532,-0.09605710966331672,9.978058435828622,-28.641771974072775,-27.813542201079237
1760598811.3001733,-7.03814665431891,-0.10003117308159883,0.9060662222330058,-0.10787217095574708,10.81507998480534,-32.63830209316574,-28.490400298252457
1760598811.3102186,-7.279845100160566,-0.05744659037834575,0.9454254668344155,-0.13473705693251983,11.607967939893825,-35.132189328694274,-29.159936761482896
1760598811.3202817,-7.47932102827701,-0.019293743470587967,0.9969691612632274,-0.17859675158751814,12.330063919570772,-36.34045986240118,-29.755394808313145
1760598811.3304548,-7.644503783958311,0.01432036625723869,1.058979130087462,-0.23946169720405963,12.966522216548695,-36.59219262035484,-30.217454023789283
1760598811.3404696,-7.783459518769431,0.043659922666284136,1.1281612483187184,-0.31500227948583115,13.508863366004206,-36.265459673041875,-30.49908422912418
1760598811.3502834,-7.903834822956901,0.06900986743171048,1.199699745455141,-0.4004502936187367,13.949900052286857,-35.724064413589076,-30.568821443616418
1760598811.3602164,-8.012552669299435,0.09033738700332666,1.267612232842899,-0.4889025728836878,14.280163001584881,-35.26305307669586,-30.41227424470668
1760598811.370258,-8.11575668541583,0.10702878209036248,1.325422908859377,-0.5720691378780468,14.486459463840095,-35.0701935820795,-30.031866964372732
1760598811.381285,-8.218961495932684,0.11775561243094325,1.3670981167056253,-0.6414192376690644,14.552510482086259,-35.20789203610083,-29.444983983317208
1760598811.3902526,-8.327331342855292,0.12050704143987831,1.388093377064998,-0.6895514678479893,14.460972939970341,-35.616811156121564,-28.680796027245076
1760598811.4004288,-8.445978007633677,0.11280230280117837,1.3862686499365775,-0.7114799906179001,14.195854050485888,-36.13928554131454,-27.776118992112533
1760598811.4106197,-8.580152572954331,0.09206754785545394,1.362400262956489,-0.7054771684708124,13.74449590155616,-36.557959533693754,-26.770675537296427
1760598811.4204419,-8.7352175283076,0.056128844025172,1.3201139848683086,-0.673233236464263,13.09871548762632,-36.6431960997892,-25.702109906217856
1760598811.4302344,-8.916331348146318,0.00374582747615827,1.2652591326141611,-0.6193494903123626,12.254921321801524,-36.20183304299402,-24.601073696906706
1760598811.440341,-9.127848511609345,-0.06490674452267539,1.204921040703234,-0.5504016130417172,11.21298570982221,-35.11984719721163,-23.486696305136427
1760598811.4504592,-9.372516811642548,-0.14790811861938868,1.1463318184871092,-0.473861931149752,9.973672625644898,-33.39247491900685,-22.36280426629648
1760598811.4602892,-9.650621884038317,-0.24149945226003777,1.0958934135958385,-0.39708618540261426,8.534811419554524,-31.13725880943565,-21.21531661129036
1760598811.4706266,-9.959268993985575,-0.3402853321947641,1.0584376047854342,-0.32646612060475383,6.887023307413514,-28.58804479243103,-20.01121262705867
1760598811.480421,-10.29199046768702,-0.4377298396419311,1.0367647809327223,-0.26678500290741414,5.01026408347374,-26.0706857759445,-18.699263021810978
1760598811.4909573,-10.638817910684804,-0.5268866443211829,1.0314505034480161,-0.22078775159817993,2.87249971757899,-23.963710223929926,-17.212377429356984
1760598811.500162,-10.986868520023782,-0.6012491624790499,1.0408940126089032,-0.18898254999788014,0.4314458042177244,-22.64922957407255,-15.471120838783163
1760598811.5102043,-11.32138296295216,-0.6555748022774441,1.0615933964802264,-0.16971293929902267,-2.3604050040479976,-22.460742257894054,-13.387874859534222
1760598811.52028,-11.627043917197202,-0.6865375596770316,1.0886386023702026,-0.15953892008404788,-5.548004621814387,-23.635115708300983,-10.871325595755355
1760598811.5302613,-11.889330846246619,-0.6930972857791652,1.1163946432608798,-0.1539095573338077,-9.164329534250193,-26.27571769328754,-7.831330829021988
1760598811.5401387,-12.095658551267107,-0.6765302496810328,1.1393055712145124,-0.14801798973265504,-13.220785045493527,-30.33228061327273,-4.184535822137665
1760598811.5501378,-12.236112315976442,-0.6401293255321944,1.152705068123056,-0.13766136106357804,-17.69909221478659,-35.60070108382875,0.13883782934385555
1760598811.5601077,-12.303702995377934,-0.5886427142831572,1.1534967726012555,-0.1199241717529606,-22.546275865341915,-41.743003709363315,5.186917282501202
1760598811.5704615,-12.294176909274308,-0.5275653531883584,1.1405827219845688,-0.09355960233160687,-27.674012223255797,-48.32469493041239,10.977311151929259
1760598811.5804284,-12.205496802312068,-0.4624122553873904,1.1149685110061767,-0.05902865937992803,-32.962947874866494,-54.864190792621315,17.488597307453777
1760598811.5903087,-12.03715200581552,-0.3980841487476622,1.0795392275398332,-0.018239551593864707,-38.271763095449764,-60.88725530581718,24.653731522874313
1760598811.600452,-11.789462401917085,-0.33839745571663216,1.0385579053162426,0.02591527961328027,-43.4498420922046,-65.97869299944041,32.35697797496834
1760598811.6103756,-11.463020624314266,-0.28581263247255106,0.9969758762660337,0.07011117122108117,-48.351619988494086,-69.82413639202008,40.43562389280854
1760598811.620557,-11.05837815745014,-0.24136569544812597,0.9596644345379552,0.11113365042238875,-52.85020445761701,-72.23670136203219,48.68708688273275
1760598811.6304343,-10.576028728441699,-0.2047856921594018,0.9306874357577068,0.14633879748008072,-56.847833814013775,-73.16616265977432,56.88112033703639
1760598811.640385,-10.016679410824482,-0.1747639675886749,0.9127350902944374,0.17398462570792292,-60.28119801788174,-72.691346174403,64.77583602008824
1760598811.6502311,-9.381731537645205,-0.14932811312163535,0.9068170484349772,0.1934042990052291,-63.12065708698106,-70.99883470365681,72.13547493339024
1760598811.6604166,-8.673836974074504,-0.12626231250755893,0.9122529764536588,0.2049975553092778,-65.36377189259584,-68.35238019700522,78.74750099119518
1760598811.6702533,-7.897377168814846,-0.10350859177156797,0.9269186344037431,0.21002838207629151,-67.02481844088027,-65.05762626996024,84.43674476935152
1760598811.6818292,-7.0587451924655795,-0.07948791038860537,0.9476592298256354,0.21026749539832668,-68.12261827815976,-61.42623865557421,89.07493408603065
1760598811.6904974,-6.166376128617325,-0.05330010965753177,0.9707916783607641,0.20759134536416102,-68.66908022850117,-57.742796229241456,92.5848510854108
1760598811.7004185,-5.23053489020126,-0.02479056938762841,0.9926347730181106,0.20367080046735153,-68.66061063302912,-54.23716221176994,94.93932417117517
1760598811.7103333,-4.262910716104768,0.005504030802520403,1.0099916577235144,0.19981752914023398,-68.07409371763431,-51.064580582678374,96.15608355969717
1760598811.7206976,-3.276082588691236,0.036505864937756566,1.0204977219952176,0.19696468334497355,-66.86833001574146,-48.295187160431205,96.28999942107308
1760598811.7306123,-2.2829194479569765,0.06681360475058493,1.0227845859815334,0.195715800237144,-64.990741601019,-45.91374787379218,95.4242760270943
1760598811.7405303,-1.2959725165222613,0.09495776604059174,1.0164757376186677,0.19640766515377778,-62.38820873917991,-43.8292770264517,93.66186462967902
1760598811.750405,-0.32690764021593244,0.11966100819259466,1.0020666930702165,0.19915981662745844,-59.02035380486351,-41.89301942755449,91.1179060313698
1760598811.7604852,0.6139856967662692,0.14006645397987988,0.9807377999918712,0.20390183854255275,-54.87331603088863,-39.92235270632803,87.91363091768473
1760598811.770446,1.5181825407740381,0.15589470546542913,0.9541295523089359,0.21038134134488448,-49.97187234855645,-37.727574932801495,84.17189500400735
1760598811.7804582,2.3791886758310534,0.16749489077366517,0.924102487325129,0.21816432698378208,-44.38771102211334,-35.13830629804908,80.01432924796475
1760598811.7903273,3.1926694592182674,0.17577101143805113,0.8925062253508521,0.22664319373550876,-38.241958027167236,-32.026392406362476,75.55983983235457
1760598811.800454,3.956430400970795,0.18199135672551872,0.8609853759111792,0.2350650823733801,-31.70080369886822,-28.3227718308143,70.92389659675277
1760598811.8104649,4.670248880546745,0.18751969648601124,0.8308476695402167,0.24258682029027254,-24.964251820826455,-24.0266593114833,66.21783058264462
1760598811.820453,5.335573908519023,0.19353193505916766,0.8030105181593788,0.2483537198023183,-18.249419275398434,-19.20638019190149,61.54738126355463
1760598811.830448,5.955131628080786,0.20078935926457006,0.7780277980186239,0.2515891419502565,-11.771029344388865,-13.992082815421622,57.01004296579963
1760598811.8404484,6.5324911491612925,0.2095240924483086,0.7561821705925709,0.25167438588576185,-5.722294654692071,-8.561332924507665,52.691250217348966
1760598811.8502386,7.071651844900788,0.21945939955654203,0.7376144547502222,0.24819967600248316,-0.2590973053915968,-3.119363353270887,48.65992018866968
1760598811.8603816,7.576705971654021,0.22994961393712549,0.7224547557465473,0.2409782335907769,4.510549120826147,2.123482447863992,44.96416758006749
1760598811.8704495,8.051610027840393,0.24019397537589865,0.7109213618083813,0.23003127696689396,8.530937911130179,6.974042410281542,41.62805690538674
1760598811.8804414,8.500070216863472,0.2494642186537749,0.7033615446589995,0.21556294909582585,11.797253796347754,11.27528140296132,38.65011224324333
1760598811.8904257,8.925520818520603,0.25729007155763894,0.7002221707940749,0.19794426478774688,14.349326912362269,14.919406695237809,36.004058052780536
1760598811.900734,9.331156926610452,0.2635647475547369,0.7019557041524802,0.17771599800089494,16.262047103868586,17.85371109282739,33.64196560217213
1760598811.9101484,9.719977345193332,0.26855450690579913,0.7088842693156351,0.15560929169860602,17.634109261056437,20.078884637931676,31.499654864208992
1760598811.9204571,10.094797874387611,0.2728160326096899,0.7210553040344796,0.13257485093146515,18.57664554965897,21.640583749780408,29.50389560178651
1760598811.9304414,10.458208015121027,0.27704271218814175,0.7381244943493084,0.10980681395696501,19.20291036776834,22.615809925726047,27.58069537491013
1760598811.9404302,10.812464492911259,0.28187739037455306,0.7592964058273022,0.08874435200324911,19.619630553809188,23.096112921024314,25.663767561332932
1760598811.9505725,11.159340027238255,0.2877405109879691,0.7833417754787935,0.07103303128473303,19.92009553676204,23.169865310043587,23.702181720756016
1760598811.9620514,11.499967894867789,0.2947201805184443,0.808693927936296,0.058429618249626274,20.178702458237556,22.905935863856286,21.666271213665524
1760598811.9704792,11.8347328431206,0.3025517724503144,0.8336095048345071,0.05263995758053959,20.44659754211442,22.341010701855566,19.551084213165588
1760598811.9805055,12.163252284356464,0.3106874149990708,0.8563660843698317,0.05509441320622488,20.748324290514194,21.47245919943449,17.376903522251556
1760598811.9904213,12.484471243912454,0.3184322179597456,0.8754633018153626,0.06668964444227916,21.079927992065876,20.25793742806144,15.186582409692663
1760598812.0003803,12.796866494922382,0.32511080419586164,0.8897947839635424,0.08754795326032988,21.409450041011404,18.62197981412078,13.039736902557877
1760598812.0104327,13.098725282613763,0.3302236617108728,0.8987657422021351,0.11685219452915707,21.680741204205443,16.468883659176896,11.004287379324884
1760598812.0201693,13.38843901895123,0.3335562542114916,0.9023427400475462,0.15280189223086635,21.820912457003004,13.700364520387701,9.146402653462781
1760598812.030473,13.664743567051662,0.33521624182539195,0.9010327509282061,0.19271086189347533,21.75089218602209,10.235732747348345,7.520398808802439
1760598812.0404737,13.926854325972661,0.3355951878964364,0.8957963505886835,0.2332379358390677,21.397920380637647,6.031764223647538,6.160380617572409
1760598812.0504625,14.174481636406293,0.3352730755903834,0.8879072413001213,0.2707192530421589,20.708491543319397,1.099234263653249,5.075214937117082
1760598812.0605166,14.407750730739156,0.3348966197985901,0.878778322702747,0.30155639722811467,19.660123061355062,-4.486535303602547,4.24774361181818
1760598812.0705094,14.627071077925587,0.3350623406446982,0.8697802541276891,0.3226085018753523,18.27031299578478,-10.582803842680514,3.6381333820385557
1760598812.0808368,14.832998402071112,0.3362279432081414,0.8620785631677399,0.3315380213216408,16.601221915564665,-16.984605805705577,3.1902505875230696
1760598812.090485,15.026119971548333,0.3386674217679807,0.8565100516692659,0.3270689840548956,14.759029578943133,-23.437139447487354,2.8392955702541465
1760598812.1006138,15.206981310430095,0.34247722212080756,0.8535122445303516,0.3091307268486334,12.887584242943305,-29.65355724313469,2.518859785065783
1760598812.110473,15.376059795294099,0.347628826001172,0.8531144877082082,0.27887520907001995,11.156825875661461,-35.33589244565197,2.166065448406404
1760598812.1203718,15.533770943367832,0.3540472797000412,0.8549957774373814,0.23856795163035194,9.747394347475305,-40.196755337675505,1.7242582095799737
1760598812.1304343,15.680469131775471,0.3616838581324998,0.8586086587492805,0.19136075505032654,8.833598977545936,-43.979563939581446,1.1434801606041705
1760598812.140446,15.816391343783557,0.37055352069783765,0.8633573823119122,0.14096355107349992,8.567249478519567,-46.475330156278865,0.3793958454864951
1760598812.1502533,15.94150417490935,0.38072363273245535,0.8688033892564178,0.09124895181677584,9.064571701708607,-47.53435534702871,-0.608536929335516
1760598812.1604624,16.05524957498765,0.3922597186768942,0.8748575679685698,0.045843876812489054,10.39762288161097,-47.07163932668475,-1.8589214551529523
1760598812.170264,16.15622912731105,0.40514652471241197,0.8819122726752822,0.007774123071122929,12.590519619298739,-45.06548163408543,-3.409679674305392
1760598812.1804228,16.241901857493875,0.4192032573377321,0.890870756290419,-0.020783981244858113,15.61972180551698,-41.549685683986475,-5.298198802129261
1760598812.190372,16.308381859660116,0.43400203105013246,0.9030490820763643,-0.038622429003699055,19.416923144780192,-36.600830098727485,-7.559986049726786
1760598812.2004168,16.350403662677653,0.44878758294299,0.91995272241838,-0.04550058236697038,23.87299979111037,-30.323035125610215,-10.225656086423072
1760598812.210424,16.36148187874599,0.46239546328741066,0.9429591411207551,-0.04205067405694363,28.841896220371805,-22.83334908845381,-13.316362264180043
1760598812.2204306,16.334242630540786,0.4731776950595971,0.972960842930675,-0.029618437527290483,34.14401527511793,-14.251178440339658,-16.83810447627464
1760598812.2303905,16.260864238002586,0.47896184891401017,1.0100356528596222,-0.01006632150769316,39.56940399549102,-4.694947424352463,-20.775657006613287
1760598812.2404697,16.13354720572709,0.47708247065504683,1.0532087923101334,0.014433866572781595,44.88169453072992,5.711782577105778,-25.08713749163499
1760598812.2502086,15.944945357843507,0.4645265781475711,1.1003538171195568,0.041596065812753553,49.824279839018544,16.824307177624796,-29.70042488693881
1760598812.260421,15.688525788012107,0.4382230154801009,1.1482537612019805,0.06918965362191225,54.13039542065569,28.452957900245025,-34.51259351053018
1760598812.2701979,15.358868022696067,0.3954768070382919,1.1928238607662094,0.09518166998071732,57.53841857559107,40.33621272142018,-39.39314786989316
1760598812.2805145,14.951942687143593,0.33450828946034533,1.229490839157191,0.11785552357941309,59.81263288993269,52.11763766459142,-44.19115994831693
1760598812.2904274,14.465415726675705,0.2550133490700021,1.2537201726521139,0.13590461486109776,60.7679991037783,63.33455572791454,-48.745615975651766
1760598812.3004353,13.899006461702859,0.15862917777230912,1.261660376946524,0.14848097819799264,60.29554538358899,73.4257485167627,-52.89760180679635
1760598812.3104322,13.25489471765201,0.04918236424350375,1.2508248617317417,0.15516465020517084,58.383576406048505,81.76307782253556,-56.502567159744174
1760598812.3204293,12.538134215721016,-0.06737918560823393,1.2206787081655415,0.15583930480998287,55.12972653871646,87.70766908991348,-59.440904265251056
1760598812.3304126,11.75699455350059,-0.1834155705612481,1.172974885544751,0.15051792368553069,50.74024464392499,90.68574047100101,-61.6255148013879
1760598812.3402014,10.92312780747112,-0.29036403641291253,1.11171466762353,0.1392114192053853,45.51540040524589,90.27354414087431,-63.005894307775314
1760598812.3504398,10.05144447600738,-0.37976142307079036,1.0426893211259005,0.12191841482888705,39.82258146998941,86.27694177624407,-63.56924813091938
1760598812.3602917,9.159598835124186,-0.4443734889932366,0.9726709626582287,0.09874179417291803,34.060604187636216,78.79029551193643,-63.33972229973402
1760598812.3704045,8.267037807609332,-0.4792371343626662,0.9084197106980851,0.07006839096988009,28.619750929056753,68.22197098045865,-62.37657876842902
1760598812.380473,7.393658151223119,-0.48241077747786737,0.8557221810196376,0.036726735244881785,23.842373929830664,55.278993256199534,-60.771239908107574
