timestamp,angle,linear_acceleration_x,linear_acceleration_y,linear_acceleration_z,angular_velocity_x,angular_velocity_y,angular_velocity_z
1761284077.2689722,-0.7930399793615832,-0.005445829731890344,0.9740664133474346,-0.2572348383624997,4.4598318623710735,-10.138151461011008,4.861867402496505
1761284077.27897,-0.7419857939083885,-0.007309997542834464,0.9773218397112012,-0.26947144162326325,4.244039538018693,-9.41523552756028,3.9909162058805947
1761284077.2889652,-0.7004052075777989,-0.008432434986715863,0.9804244329515431,-0.2794464905649106,4.027380674735603,-8.646831782233019,3.3361695565574503
1761284077.2989624,-0.6635167060527298,-0.008612606106407052,0.9831276761546806,-0.2867135120207226,3.795149150619046,-7.860504661903253,2.926293072586478
1761284077.3089778,-0.6268672249774243,-0.007895887467217635,0.9852342636327103,-0.2909983071516913,3.5353175789330415,-7.074163353535084,2.769849723951357
1761284077.3189583,-0.5870111762525446,-0.006554339455668668,0.9866105813967202,-0.29223298500057315,3.239795536931532,-6.297041650165544,2.856194050688841
1761284077.3289716,-0.5419830847412552,-0.00502442453033803,0.987190047023355,-0.2905708783890586,2.9048659502339826,-5.5324757470418815,3.158338634919627
1761284077.338984,-0.4914942627417191,-0.003816843341164646,0.9869665038182701,-0.2863790187084959,2.5309067590642864,-4.7816072385819455,3.6372755106149994
1761284077.348974,-0.43683806291168437,-0.0034174606685128182,0.9859809922612177,-0.28020738601611844,2.121596840366736,-4.047018971574282,4.247056990670258
1761284077.3589625,-0.3805424304822827,-0.004198816346728857,0.9843060359809587,-0.27273767086914485,1.6828328716027483,-3.335406554113189,4.939886660997193
1761284077.3689582,-0.3258534003166237,-0.00635884149458671,0.9820311042481895,-0.2647178728007795,1.2215762987541419,-2.658655322992539,5.670539090715507
1761284077.3789916,-0.2761603720819888,-0.009897359538122269,0.9792518689060988,-0.2568915770835588,0.7448246657837052,-2.0330688871464253,6.39959434904453
1761284077.389019,-0.23447814042982137,-0.014632881305813953,0.9760646655782084,-0.24993125001775435,0.2588560606250068,-1.4769067565815273,7.095209394799034
1761284077.398979,-0.2030815130874597,-0.020253927878089703,0.9725662986832212,-0.24438328595188585,-0.23117800929366478,-1.0067608448183498,7.733414813451691
1761284077.4089665,-0.18335070728973032,-0.026392406539356986,0.968858063453004,-0.24062983944653504,-0.7213261403011533,-0.6335718511702225,8.297176425656362
1761284077.418972,-0.17583767832887762,-0.032702554083462135,0.9650516857297654,-0.2388698637905829,-1.2086674810451707,-0.35920947095899053,8.774651312485561
1761284077.4290328,-0.18051466024531837,-0.03892815247949675,0.961274082520066,-0.23911962480024432,-1.6910216164801797,-0.17448617371882605,9.15716677633645
1761284077.4390454,-0.1971256976435005,-0.04494306857417066,0.9576678661296198,-0.24123092735368293,-2.166644175449858,-0.05924509104963525,9.437451292057933
1761284077.4489758,-0.22553665221332878,-0.05075498220236316,0.954385660246905,-0.24492306588243956,-2.633974412617927,0.015206228250198647,9.60856022871261
1761284077.4589767,-0.265973543755515,-0.056468831168754355,0.9515784625217129,-0.24982244969956077,-3.0914705621724488,0.0814961033979013,9.663788980941817
1761284077.4689689,-0.3190576585615584,-0.06221531941098139,0.9493807839045236,-0.25550302890356263,-3.537563090541867,0.17006319022806474,9.597676165241046
1761284077.4789684,-0.38559179053923825,-0.06806043033237903,0.9478969712496231,-0.26152192655562856,-3.9707634844889412,0.3025211489200288,9.407988724822347
1761284077.4889655,-0.46611927669147335,-0.07392062366146857,0.9471930864753331,-0.2674476343823082,-4.389960773559262,0.48572950443454926,9.098367889709326
1761284077.498969,-0.5603467249659675,-0.07950975425339545,0.947297031457468,-0.27288103694445176,-4.7948979959554325,0.7077559038887673,8.681128661081384
1761284077.509043,-0.6665672707955186,-0.08433517639897326,0.9482068132478007,-0.2774707513865577,-5.186748878441137,0.9366533221930311,8.179588550601071
1761284077.5189784,-0.7812270218867666,-0.08774522705239997,0.9499033255331234,-0.2809236276232741,-5.568645318843872,1.1225329111492492,7.6292984115097635
1761284077.5289698,-0.898744340644596,-0.08901561852082222,0.9523609307317656,-0.2830100434189083,-5.945982407597155,1.2028781473467733,7.077679832775064
1761284077.538967,-1.0116361684890713,-0.0874543380053838,0.9555488372861833,-0.28356326819088185,-6.326366708037675,1.1105262794651714,6.581816980214756
1761284077.5489929,-1.1109460707824717,-0.08250403305262656,0.9594201252781186,-0.282472978598182,-6.71915612459122,0.7833251983026595,6.204448149210455
1761284077.5589793,-1.1869159821059865,-0.073824129861057,0.9638916662305527,-0.27967430983944536,-7.134633754642271,0.1741975053270385,6.008488425381451
1761284077.5689855,-1.2298029458654354,-0.061339462341776764,0.9688238605224407,-0.2751347359647711,-7.582938275353907,-0.7397796829694208,6.050641938189567
1761284077.578994,-1.2307183259831336,-0.04524788440500293,0.9740114815429882,-0.26884116068440905,-8.072919184919376,-1.9506233321112707,6.374807487663785
1761284077.588979,-1.1823660293487521,-0.02598699288157014,0.9791948305190344,-0.26078941875141604,-8.61108234677385,-3.4161171443648,7.006035812412711
1761284077.5989952,-1.0795821137704045,-0.004169352791304194,0.9840942926382,-0.25097894447955443,-9.200747166639534,-5.06053953294474,7.945754599167632
1761284077.608997,-0.9196273656802535,0.01949592464973808,0.9884634236134346,-0.23941635443232817,-9.841483188586599,-6.779451647407347,9.16884608324607
1761284077.6190019,-0.7022445645317275,0.04427312013586464,0.9921492213202284,-0.22613117126031265,-10.52886404703887,-8.447913781993138,10.622972873012914
1761284077.6290479,-0.42954503834357444,0.06944171697459303,0.9951455897748787,-0.21120346735634257,-11.254577764101377,-9.931043505997067,12.230337338663357
1761284077.6389961,-0.10581607204080336,0.0943006821310468,0.9976266928728356,-0.19479770293846588,-12.006940639508406,-11.095662702870246,13.891848853050382
1761284077.6489882,0.26267001943502966,0.11814165046718009,0.9999490619255811,-0.17719203032734587,-12.771843609720786,-11.821867811419853,15.493471069023565
1761284077.6590161,0.6678082735584848,0.14021200382744928,1.0026149077211624,-0.15879047383881836,-13.534095089556036,-12.013573386238253,16.91434282147535
1761284077.668995,1.0997925785752773,0.15969364213200032,1.006195737601446,-0.14010829694350838,-14.279014447129972,-11.607296451109676,18.036120311828025
1761284077.678995,1.547281598893691,0.17571543019052238,1.0112250454722296,-0.1217282094526954,-14.99399829632727,-10.578592041190094,18.75285627377495
1761284077.6889956,1.9976609071707079,0.18740282815861467,1.018078372954918,-0.10423403842087772,-15.669679649597764,-8.945619959170573,18.980582693926284
1761284077.6990874,2.4374431453808802,0.19395626536472582,1.0268646387098046,-0.08813527663141396,-16.300303797033674,-6.769393974380856,18.665607858814365
1761284077.7090006,2.8528156461301046,0.19474453643250172,1.037352537850781,-0.07379838887890072,-16.88310751539974,-4.15043530529099,17.790448543045517
1761284077.718959,3.230311215008635,0.1893984333018246,1.0489503258639723,-0.06139915285155812,-17.41678063722161,-1.2218661115501905,16.37638426073418
1761284077.7289767,3.557548109267729,0.17788942306587252,1.060747739013595,-0.05090580457249088,-17.899399920233318,1.8606077376051156,14.481901940176598
1761284077.7389758,3.823963439137083,0.16057837901740746,1.0716173130068614,-0.04209635530839147,-18.32642689013277,4.930947884523414,12.196805059540939
1761284077.748999,4.021455028435939,0.13822262236794733,1.0803615704848082,-0.03460634660928701,-18.689379704212424,7.826027864670233,9.632428505138973
1761284077.7589762,4.144853994562654,0.11193684194911112,1.085884273207396,-0.027997166386548485,-18.975631367975698,10.398412436425486,6.909083902604031
1761284077.7690058,4.192172882361081,0.08311232440647238,1.0873588619634849,-0.021831247600772315,-19.16951995797553,12.527236816347894,4.142384176626852
1761284077.7790189,4.1646050200824964,0.05330544102702663,1.084365918981383,-0.015739650875398283,-19.254662348312955,14.126048455162024,1.430341754548734
1761284077.788989,4.066280638910899,0.024108781452904075,1.076974610500703,-0.00946994984949871,-19.217107716293437,15.146972310124887,-1.156927242575848
1761284077.799003,3.903807950771914,-0.0029823672713179816,1.065750683917564,-0.002907688582966087,-19.048795803485824,15.581121691316179,-3.583409676880371
1761284077.8090248,3.6856410844031426,-0.026697742567671257,1.0516853686334329,0.003928669512193534,-18.75071967486207,15.45566496004253,-5.8484355747064924
1761284077.818976,3.421323729193964,-0.046105630561216866,1.0360543871896062,0.010913948333483756,-18.335234548781642,14.828278640091,-7.98287480491792
1761284077.8289778,3.120662933620557,-0.06070352876862638,1.0202313703833574,0.017855850603513447,-17.827087458534784,13.779840580646944,-10.041065721225818
1761284077.8393216,2.7928975828682696,-0.07047395140380026,1.0054909729690567,0.024540766519245704,-17.262932967069233,12.40618235842284,-12.089951768399596
1761284077.8492417,2.4459414135638906,-0.07588977759112729,0.992839777675032,0.03078040170274694,-16.689299550358363,10.8096041503585,-14.197276684094874
1761284077.8589873,2.085792809456559,-0.07785531722446422,0.9829054400392977,0.036454114176166,-16.159139249101077,9.090726536884684,-16.42066941241276
1761284077.8690238,1.716199110141354,-0.07758046012053776,0.9758982872711283,0.04153985882798313,-15.727216663398405,7.341150164752486,-18.79908746547723
1761284077.8790483,1.338632416512571,-0.07640336271336627,0.9716413157045689,0.046125183250434465,-15.444687415132067,5.637322884392726,-21.347511241970224
1761284077.8890967,0.9525807565755761,-0.07559377216312625,0.9696515904109388,0.05039236461730784,-15.35331205142618,4.035958134289293,-24.055138186496567
1761284077.8989873,0.5560984139810706,-0.07617658151096983,0.969251066856556,0.05457842912628605,-15.479864695159867,2.5712764990275354,-26.886756141714642
1761284077.9090042,0.14651026472605208,-0.07881105553558625,0.9696854354495918,0.058918221043097956,-15.83139437934896,1.2542278448070825,-29.78660377933913
1761284077.919015,-0.2788596490687534,-0.08374730715270368,0.9702326280409399,0.0635840530392564,-16.392017289095346,0.07369453585578929,-32.683898703323415
1761284077.9290142,-0.7220597830595046,-0.09086219639083228,0.9702870155208113,0.06863713991061039,-17.12181757611074,-1.0004990682671486,-35.499262591982536
1761284077.9389777,-1.1840748399141825,-0.09975715955176294,0.9694111846048479,0.07400297699175212,-17.95821925900702,-2.013115207692496,-38.15138537046706
1761284077.94923,-1.6646232947042476,-0.10988595074536155,0.9673542614004232,0.07947579010528011,-18.819904779912026,-3.018061206208547,-40.56338720272249
1761284077.958979,-2.162176922688768,-0.1206750973623951,0.9640426760031575,0.08474919504427048,-19.613048464786104,-4.072568015195177,-42.668456241166325
1761284077.9689827,-2.6741483725631245,-0.1316061075935161,0.9595536983859423,0.08946463021567505,-20.23934431162342,-5.231575988774717,-44.41446069666522
1761284077.9789655,-3.1971724394132313,-0.14224493974452398,0.954082133452999,0.09326727347642094,-20.605063166158132,-6.542762568415802,-45.767339685675395
1761284077.988971,-3.7274105610895236,-0.15222525904508827,0.9479068071353415,0.09585993449156739,-20.6301978670872,-8.04236848293798,-46.71315977968761
1761284077.9990013,-4.260829484211053,-0.16120857756773996,0.9413590165109381,0.0970470183478244,-20.256670695270262,-9.751703196888263,-47.2587850247677
1761284078.0090933,-4.793432005799199,-0.16884937229248165,0.9347927128174223,0.09676250666904782,-19.454607383488383,-11.674104557533918,-47.43115345627144
1761284078.0190284,-5.3214395359786915,-0.17478634572773535,0.9285558598334713,0.09507867655822615,-18.225837229927585,-13.792273613391568,-47.27519611774997
1761284078.0290012,-5.841437878203752,-0.17866759097198948,0.9229628943863236,0.09219591810958473,-16.604053854290232,-16.066221233343196,-46.85049083822982
1761284078.0390089,-6.350499088104414,-0.18020365478414285,0.9182690587597454,0.08841707587495658,-14.6514550019927,-18.432355498060545,-46.22682465814917
1761284078.0491745,-6.846286318978235,-0.17923242754326787,0.9146483724136467,0.08411137374972164,-12.452162675664026,-20.804336449688915,-45.47895392057266
1761284078.0589938,-7.32713989938292,-0.17577639224283573,0.912177665620854,0.07967376716377333,-10.103257415978225,-23.076170854105374,-44.68098822011814
1761284078.0689828,-7.792137207824158,-0.17007726437632084,0.9108292714314856,0.07548588898353023,-7.704709444120921,-25.12767741724548,-43.90093763266071
1761284078.0790045,-8.241119456518016,-0.1626023882498969,0.9104744824079246,0.071884056109995,-5.349684591126504,-26.83204526079318,-43.19599362983251
1761284078.0889866,-8.67468355389858,-0.15402549282984448,0.9108983221058665,0.06913773858698802,-3.116559261038961,-28.064844839152737,-42.60903547153118
1761284078.0989783,-9.094142407090391,-0.14518799173150854,0.9118240975400727,0.06743916917416595,-1.0635608254978837,-28.713602158613927,-42.16668370741588
1761284078.1089861,-9.501459324038368,-0.1370465749519694,0.9129447543466713,0.06690255823159998,0.7735773234703229,-28.686963769023127,-41.87900303024168
1761284078.1190662,-9.899161039459877,-0.13061055971552651,0.9139574106475591,0.0675702626182431,2.381030745844768,-27.922583440815895,-41.740732325062744
1761284078.1289902,-10.29023042493321,-0.12687033124618388,0.9145969444473218,0.06942296337869489,3.763789937225189,-26.393111193447933,-41.73372917605729
1761284078.1389916,-10.677976269000283,-0.12671789577335021,0.9146640116063469,0.07239082329779076,4.940683913791381,-24.10995783333404,-41.83018928744707
1761284078.149213,-11.06587587852265,-0.1308625124770438,0.9140428358184184,0.07636243142224239,5.938278748280773,-21.124737736763183,-41.99615207095918
1761284078.1590033,-11.457387974500518,-0.13974750781381085,0.9127050068480542,0.08118849272167475,6.784505191823636,-17.52841614145703,-42.19482686194373
1761284078.16898,-11.855738660963082,-0.15347759688530044,0.910697518179933,0.08667837696830155,7.502918281556115,-13.448223452977293,-42.389353621344775
1761284078.1790144,-12.263691381254063,-0.1717684992426327,0.9081159438239895,0.092589894232965,8.10844225589053,-9.04238441888411,-42.54472991562803
1761284078.1889794,-12.683320624400308,-0.19393100885610412,0.9050661572738379,0.09861542344411882,8.605271363700215,-4.492687888280895,-42.628774925642006
1761284078.199005,-13.11581558381201,-0.21889889893672684,0.9016198806407121,0.10437015073971334,8.987289241735112,0.005037085733416207,-42.61214252768702
1761284078.2090309,-13.561341446767809,-0.24530456311989388,0.8977707179402896,0.10938989983130583,9.240982089733764,4.252300739389544,-42.46752192068782
1761284078.2190244,-14.018981609416732,-0.2715995756020442,0.8933982134265589,0.11314564216620361,9.350426873193637,8.060643517544554,-42.16826256723379
1761284078.2290423,-14.48677419533731,-0.2962104187343547,0.8882475877243493,0.11507866254324281,9.30362066972244,11.264743491789893,-41.68672019779794
1761284078.2390585,-14.961841388275488,-0.31771258227373467,0.8819317468194564,0.1146556017395023,9.099243550965836,13.73476311386211,-40.992637547441234
1761284078.2489908,-15.440591207743745,-0.33499941986399007,0.8739598623543939,0.11143790069853805,8.75291765630394,15.386612558091205,-40.051854909872155
1761284078.2590113,-15.91895117113821,-0.3474176220296954,0.8637938816326549,0.10515615380759445,8.302088225730285,16.18884227525555,-38.82561324092962
1761284078.2689996,-16.392577668492955,-0.35484258442540273,0.850931446218924,0.09577639417627624,7.808749329275486,16.165149011552174,-37.27069177364392
1761284078.2790012,-16.85698265165107,-0.35767753604007607,0.8350105946938144,0.08354311513242636,7.359336057504611,15.391996342635133,-35.34061947772734
1761284078.2890027,-17.307538494324167,-0.35677936369743785,0.8159274391432721,0.06898484533638781,7.061215515799793,13.991508920498118,-32.98818624006922
1761284078.2989924,-17.739362461436873,-0.35333402758330873,0.793953079221518,0.0528740622527725,7.035400850715049,12.12042226189632,-30.16940993610437
1761284078.3089921,-18.147131356370092,-0.348714314086817,0.7698320745429936,0.03614373446296306,7.40550842844184,9.956307240156184,-26.848967858919035
1761284078.3190322,-18.524915606345502,-0.344348021466032,0.7448431255575565,0.019774371672515122,8.283660704830725,7.682475825032646,-23.006883471269724
1761284078.3290045,-18.866136276213346,-0.3416112549428513,0.7208034153249686,0.00467338828422815,9.754918318631274,5.472922113373567,-18.645989801723573
1761284078.3389919,-19.163733165415916,-0.3417472584603178,0.7000015914486369,-0.008429656266922284,11.862619528380494,3.4784147721771332,-13.799399924281015
1761284078.3489866,-19.41058872559325,-0.34579989038231695,0.6850512656033217,-0.019052350917764443,14.597362481161738,1.814527037785488,-8.536958881714888
1761284078.3590088,-19.60018829547809,-0.35454410341680787,0.6786672534015922,-0.026982590141042994,17.892054826056892,0.5520960379095585,-2.9694847786565646
1761284078.3690093,-19.72742628575983,-0.3683958733431598,0.6833792019617008,-0.032257927560429916,21.624463137146247,-0.28954552876227446,2.750449930873004
1761284078.379008,-19.7894105983635,-0.3872927715107693,0.7012092468131662,-0.03511600889948482,25.627214199578656,-0.746202919636794,8.432375050809304
1761284078.3889885,-19.786093484486678,-0.41055291006921435,0.7333499318828384,-0.035934948927724746,29.703590015221096,-0.9088324549472089,13.857327353499024
1761284078.3990262,-19.7205755238635,-0.4367396725163212,0.7798847765037714,-0.03517482355532836,33.64618458651411,-0.9193024408468821,18.79315762156524
1761284078.409026,-19.598984593591023,-0.463576132390572,0.8395949723393262,-0.03332036245159135,37.254973851907536,-0.9611671260425029,23.015220782777607
1761284078.4191058,-19.429908446203093,-0.4879611438603103,0.9098907971745918,-0.030822369294401582,40.35179151865188,-1.244749268870312,26.330812739450124
1761284078.429477,-19.223441383054336,-0.5061340933815466,0.9868973491034867,-0.028044402891561963,42.789531017154374,-1.9861206690063815,28.604545466179857
1761284078.4390345,-18.989977109447338,-0.514012634049686,1.0657126627932103,-0.025234628289906892,44.45627302453147,-3.380260630155744,29.780918350278213
1761284078.4490027,-18.738927267019662,-0.5076874582594296,1.140840102485591,-0.022549806517377986,45.27636904443633,-5.569870319032429,29.899983208080528
1761284078.4590008,-18.477558852196168,-0.48400946135126877,1.2067729436161792,-0.020149805675493588,45.211524369881005,-8.613049798704845,29.102481650797532
1761284078.4691532,-18.210122749789782,-0.44116379411261236,1.2586741207153334,-0.01835252970876273,44.26446461805962,-12.455042693446247,27.62219683422626
1761284078.479106,-17.93739895160768,-0.37911046345562366,1.2930474576248785,-0.01779649254900227,42.485719516175195,-16.910776260277643,25.765199047296996
1761284078.488985,-17.656726136488878,-0.2997948446986725,1.308253259238343,-0.01952110122784345,39.981156704862045,-21.66487206293924,23.877685992390557
1761284078.499023,-17.362524309273,-0.20708752005522768,1.3047177316431342,-0.024874312016379935,36.9155772699142,-26.293363117902327,22.305920151504804
1761284078.5090256,-17.047259507498406,-0.10647224773009495,1.284752681714708,-0.03521709879006166,33.50727817983242,-30.30680051869971,21.35331540432244
1761284078.5190318,-16.702736753520696,-0.0045360838675314145,1.2520234072464138,-0.05149883276840616,30.010440528867857,-33.20922140600536,21.2409186666329
1761284078.5289996,-16.3215487552911,0.09167185287758604,1.2108181250167118,-0.07386707945946443,26.68591467214321,-34.56338971306225,22.077896036293552
1761284078.5391717,-15.89847244676851,0.175338474754507,1.165323226241289,-0.10148506597966539,23.765148824201543,-34.05108878927592,23.84753526708941
1761284078.5490003,-15.431610509785381,0.24055977991543734,1.1190785297598733,-0.13264560356514635,21.415127225984207,-31.518428240840333,26.411531873654994
1761284078.5590003,-14.923119515770239,0.28291116697293084,1.0747012314328952,-0.16514091406948728,19.7130165065674,-26.9995313625351,29.531608438922223
1761284078.5690403,-14.379430875642132,0.2998568894497288,1.0338704701155814,-0.19674768414837188,18.63729604133297,-20.7162428214022,32.9040972476303
1761284078.5789957,-13.810935384001633,0.2909664998122377,0.9974947279201405,-0.2256609747144567,18.077973606559702,-13.055306573898763,36.20109439847091
1761284078.588995,-13.231161110323724,0.2579278019680053,0.9659593509522446,-0.2507548282540168,17.863400031274097,-4.527198359385835,39.111510132292956
1761284078.5990028,-12.655532282339568,0.20435919002802758,0.9393656651261475,-0.2716259875737514,17.796904821055822,4.287506293405264,41.376416524049226
1761284078.6090035,-12.09985419240835,0.13543396918055503,0.9177071084449444,-0.28845226901253185,17.69436522084307,12.79746785559379,42.81486022795728
1761284078.6190093,-11.578715113358335,0.05734500848047668,0.9009624004268769,-0.3017447572650194,17.414394049119228,20.45862678302165,43.338182332755665
1761284078.6290364,-11.104013566483749,-0.023336335047585192,0.8891111573230304,-0.312085672940635,16.875624955078663,26.824280059286856,42.95254650168475
1761284078.6395388,-10.683797807610834,-0.10032693327924937,0.8820930017226744,-0.3199268947447631,16.059496014848403,31.58144616503047,41.75074164906028
1761284078.6489923,-10.321549225693342,-0.16823176847497126,0.8797395258437105,-0.3254899267065351,15.000684915282546,34.569498492718594,39.895408644117126
1761284078.659004,-10.015968272261228,-0.22299307921677589,0.8817097960966493,-0.3287705265398897,13.769840226142165,35.77961483575464,37.596599756854296
1761284078.6690207,-9.761247080660441,-0.2621328992838983,0.8874540065868899,-0.32962172878846513,12.453984133849197,35.33663718729648,35.0869167652819
1761284078.6790664,-9.547750139901503,-0.28477361946451385,0.896218406466649,-0.327873587001594,11.139141582570126,33.46772321616763,32.597333963183765
1761284078.689339,-9.362982744599167,-0.291462851592105,0.9070917317431839,-0.3234470679318747,9.898024772684627,30.463970377349277,30.336249463653484
1761284078.699008,-9.192711087691897,-0.2838597161516714,0.9190825072711433,-0.3164302622391481,8.783666443486181,26.641636951124553,28.473467050020865
1761284078.709011,-9.022106278307627,-0.26435337942895326,0.9312097608201455,-0.30710270386333316,7.828285629915792,22.30871968200267,27.129874106049098
1761284078.7190166,-8.83681072319815,-0.23568229321310025,0.942588126922254,-0.29591210701760373,7.045704486841985,17.74082210340329,26.372729732291386
1761284078.7291887,-8.623860266659479,-0.20060905047751032,0.9524922609224545,-0.283421350370271,6.435396482536536,13.167967953230773,26.215860029650102
1761284078.7395082,-8.372430307244096,-0.1616861379394099,0.9603931768862956,-0.2702484566561535,5.986597007384687,8.771797102729266,26.623747993000702
1761284078.7490447,-8.074401800681162,-0.12112627145606403,0.9659671695070179,-0.2570184220743118,5.681576582334635,4.690828064966803,27.518470413669885
1761284078.759012,-7.724759806086349,-0.08077086860752196,0.969083449145626,-0.24433574458585997,5.497876463538019,1.0304198840525465,28.788566361784753
1761284078.7691104,-7.321842001586699,-0.04213395800213811,0.9697786408978613,-0.23277479022813038,5.409814089802487,-2.1262114692585694,30.299112159919137
1761284078.7790256,-6.86744772084146,-0.006487565618547062,0.9682257958785897,-0.2228764516697816,5.389766823044073,-4.709146181411174,31.902455406072797
1761284078.789018,-6.36680215374273,0.025050382729030034,0.9647038589356717,-0.21513737770658328,5.409644963290205,-6.657343545541639,33.449179955889974
1761284078.7990034,-5.828352826657227,0.05146106308893517,0.9595711941939857,-0.20998313597256127,5.442678809982035,-7.919596671378397,34.79889666781239
1761284078.8090253,-5.263366717650311,0.07182538804531102,0.953243783740462,-0.20772633028372828,5.465326972740653,-8.460364630127295,35.830371879602374
1761284078.8190103,-4.685303331343882,0.08538469868188225,0.9461758263417519,-0.208519847537698,5.458910150633434,-8.268727133759112,36.450370863897334
1761284078.8292072,-4.108962084556874,0.09164741097660006,0.9388393521091715,-0.21231957295169632,5.410569449846004,-7.367891090915405,36.60050287162871
1761284078.8390028,-3.549437676823741,0.09051266444762099,0.9317008939416559,-0.21886903852580275,5.313329713952907,-5.822449412731184,36.26137699419482
1761284078.8489807,-3.0209590891736875,0.08237352190255619,0.9251959104095341,-0.22771276167611149,5.165323126908746,-3.7409556045671093,35.45352835328217
1761284078.8590052,-2.535728161224718,0.06816264517993803,0.9197035848595162,-0.23823828524423413,4.968476256653337,-1.272258135105274,34.23484237812704
1761284078.8689895,-2.1029013100112097,0.049313873433888135,0.9155249415192451,-0.2497407080755963,4.727092888067637,1.4047132417867207,32.694571187899776
1761284078.879003,-1.7278615435789222,0.027632270085220973,0.9128662323900559,-0.26149852675617363,4.446736636754382,4.096651424824119,30.944451643831155
1761284078.889012,-1.4119000737517782,0.005088296378642263,0.9118281438381425,-0.2728468795453249,4.133648249276409,6.614827445640904,29.107825778449186
1761284078.8989973,-1.1523686160161526,-0.01642809779870789,0.912400248590646,-0.28323495539553495,3.794691091221659,8.794319404163515,27.30795652651285
1761284078.908996,-0.9432856404110381,-0.035346481026631814,0.9144593573788368,-0.2922585335074232,3.4376031295865093,10.510400185958737,25.65685909590327
1761284078.91901,-0.7762993047876338,-0.05060113295597528,0.9177700196925537,-0.29966490120748285,3.071228821991736,11.689474712591414,24.24588828818016
1761284078.9289982,-0.6418448605145504,-0.06172607147310733,0.9219859559534764,-0.30533372708410556,2.705440431756155,12.312986666021093,23.13904533694163
1761284078.938974,-0.5303005861213957,-0.06884212897915658,0.9266531092319685,-0.30924236776477015,2.350608088182929,12.414016974199084,22.369557368665593
1761284078.949019,-0.4329523290902752,-0.07254061476844464,0.9312177123368918,-0.311426746672168,2.016679061783453,12.067582554485991,21.93981494019981
1761284078.9590569,-0.3426211900307402,-0.07368879433105707,0.9350451262825377,-0.3119489646726204,1.7121062657725556,11.376660536624735,21.82429656866046
1761284078.969096,-0.2538814418309803,-0.07319696451441074,0.9374562134562878,-0.31088031811566225,1.4429582442784141,10.456532313500064,21.97473517484452
1761284078.9789994,-0.16288033584688025,-0.0717928503297137,0.9377867185163149,-0.308304158438596,1.2125111318595594,9.420094037987438,22.32656577919271
1761284078.9890242,-0.06685060229819309,-0.06984623250462342,0.9354708381453984,-0.30433803649487234,1.0214788738885408,8.366360190209942,22.80568120689502
1761284078.9989982,0.036534306402870226,-0.06727673675962975,0.9301433188706959,-0.29916944100883575,0.8688370653134494,7.373614407534328,23.33469140417081
1761284079.0090196,0.1497839311722717,-0.06356212765115692,0.9217468155877517,-0.2930943705133091,0.7530091125405759,6.497685092737311,23.838160248752835
1761284079.0190146,0.27602568317369647,-0.05784465851159209,0.9106250399201954,-0.2865440513931678,0.673066251543193,5.774799894458137,24.24660500215127
1761284079.0290601,0.4191319468034341,-0.04911290993363418,0.8975792691953701,-0.28008474368392056,0.6295695522476881,5.227579680084916,24.499326399543445
1761284079.0389972,0.5834952693704909,-0.036422030337780374,0.8838676639334864,-0.2743803988657705,0.6247497055584459,4.872162638586795,24.546337466564825
1761284079.049014,0.7734887396620274,-0.01910993168501843,0.8711345071942788,-0.27011699752676266,0.6618625678608463,4.724356529129067,24.349731093336455
1761284079.05911,0.9927182047122408,0.0030296947345808574,0.8612688797190389,-0.2678980960846661,0.7437513148186484,4.803133405870736,23.884750210642835
1761284079.0690062,1.2432176382194282,0.029646700091256986,0.8562061212610128,-0.2681307402633227,0.8708531500871634,5.130586139024593,23.140620181473764
1761284079.079027,1.5247509708497111,0.059820625908598365,0.8576970072582655,-0.2709269611821436,1.0390591408448557,5.7284399429309545,22.12093865436601
1761284079.0890052,1.834361813195847,0.09213148765561319,0.8670763383627201,-0.2760461179650812,1.2379235486271698,6.612116303760382,20.843197807705348
1761284079.0990207,2.1662623202129727,0.1247977073115408,0.8850634291331253,-0.28289561558095566,1.4497058364128874,7.783978079154222,19.336938516708155
1761284079.1091397,2.5120845571476385,0.15585305007792213,0.911622356316543,-0.29059315427224996,1.6496214927502912,9.22760447838623,17.640164781939063
1761284079.1191566,2.8614465545010113,0.18333124668441658,0.9459020083796651,-0.2980780067715463,1.807480722271576,10.904701969771423,15.79398483600488
1761284079.129026,3.2027274022207446,0.20543229567535964,0.9862666910067186,-0.3042479454198883,1.8906028857959898,12.75560893414055,13.83593729406107
1761284079.1390264,3.5239154418333065,0.22065535671698466,1.030416914539665,-0.3080951499646637,1.8675476477091386,14.703470673415564,11.792982574697035
1761284079.1490278,3.813397489522979,0.22789428586688532,1.0755878988305083,-0.3088184348216548,1.711921428337761,16.661306038387693,9.675518705019522
1761284079.1590059,4.060591042890308,0.22649872459682246,1.1188052173348049,-0.3058972914355912,1.405444488341372,18.540615476511793,7.473858334605728
1761284079.1690233,4.256371792685291,0.21630409006559562,1.1571748541763203,-0.2991211730221087,0.9396535214698158,20.260022213308233,5.158307962976516
1761284079.1790164,4.39329900455225,0.19762947960951155,1.1881811470122652,-0.2885745010275432,0.315975459396359,21.752619742644207,2.6833561436451285
1761284079.189187,4.4656803807751055,0.17124006078298246,1.2099544763197878,-0.2745845436167326,-0.4557442587779434,22.97102324169474,-0.004370364019058012
1761284079.1991632,4.469540293636274,0.1382759677367899,1.2214613516908432,-0.25764257179600275,-1.3599855094412263,23.889450673789103,-2.9555858874610466
1761284079.209174,4.4025563665492236,0.10015923591482101,1.222579587276876,-0.23830923333763196,-2.379249374227662,24.50249926505071,-6.207116574245507
1761284079.219134,4.264007904658469,0.0584937121410157,1.2140502620415727,-0.21711930604256108,-3.498352496569782,24.82070881384366,-9.772088608584792
1761284079.2290573,4.054744605215131,0.01496852746997863,1.197327376198418,-0.19450824957022336,-4.708862006414824,24.86351346043067,-13.633450345769946
1761284079.239032,3.777154227415619,-0.028727464713034445,1.1743610110242555,-0.17078361740413056,-6.013072866653367,24.650657398773696,-17.742054592343173
1761284079.2490184,3.435099152906525,-0.07097068999647406,1.1473527388118636,-0.14615327095368785,-7.426833570066137,24.193450652119427,-22.019524279179656
1761284079.2592945,3.0338036547062814,-0.11023759485338551,1.1185205743491,-0.12080446162129645,-8.980533743818599,23.487345761897778,-26.365133196139286
1761284079.2691429,2.579692026475143,-0.14510885569253298,1.0899049185785283,-0.09501151772346934,-10.717712693214422,22.507304941667822,-30.665269037442506
1761284079.2790194,2.080187987464224,-0.1742583279341778,1.0632338677437858,-0.06924023685120219,-12.691027825476779,21.20733132192803,-34.80384597260428
1761284079.2890365,1.543483584703441,-0.1964529787125071,1.039849248736341,-0.04421577964271287,-14.955678960458581,19.525235740805552,-38.67222191548184
1761284079.2990277,0.9782773712644884,-0.21058861153303315,1.0206815808057932,-0.020927996516395504,-17.560748104525615,17.393012879828316,-42.17756751434852
1761284079.309151,0.3934766077937986,-0.21577313988736285,1.0062579348367202,-0.0005622780269471178,-20.539253885082843,14.752064976288912,-45.249065844891625
1761284079.3190422,-0.20213836519011028,-0.21145154714639083,0.9967300596180799,0.015638394275159558,-23.89803619590328,11.571173722429057,-47.84169536437574
1761284079.3290298,-0.8002797573107725,-0.1975512219738492,0.9919154745676336,0.02655793130569478,-27.60886375675083,7.8640040034182315,-49.93762836525739
1761284079.3390117,-1.393529695274802,-0.17461660298899317,0.9913470075990956,0.03140380398086635,-31.60232784662818,3.7024169987926716,-51.54547363240822
1761284079.3490455,-1.9757035520865864,-0.14389999029663783,0.9943268798551872,0.029876089028057874,-35.766028694643424,-0.7778260967071955,-52.697711313731006
1761284079.359036,-2.5421689766630275,-0.1073815611800807,0.9999828098734992,0.022271566900358954,-39.94816008777195,-5.381304445326631,-53.446691290383086
1761284079.3690348,-3.0900877304275745,-0.06770330570724024,1.007326281675684,0.009497315378950422,-43.96683968855165,-9.86781140083429,-53.85950515188918
1761284079.3790278,-3.6185471721485505,-0.02801414921096099,1.015314664597172,-0.007011287179890994,-47.62455558983988,-13.976665455475894,-54.01197776483239
1761284079.3890417,-4.128552602648241,0.008265407180389735,1.0229175242142676,-0.025450672210321358,-50.72612957331967,-17.45746157778441,-53.982055957314095
1761284079.399025,-4.6228623996088185,0.037740943066442156,1.029184344407475,-0.043855329917212006,-53.09785261119624,-20.102859234016737,-53.843020101210094
1761284079.4090288,-5.10566406676565,0.05737743055819922,1.0333083380119037,-0.060316373636359985,-54.60510409382344,-21.778301398339075,-53.65712438438032
1761284079.4190192,-5.582107695617925,0.06483533226569604,1.0346798164846034,-0.07318508047107602,-55.16592720899467,-22.44378344665985,-53.47036479933099
1761284079.429197,-6.057730456833038,0.05877197849183857,1.0329217851996801,-0.08124188621283204,-54.75866177601044,-22.16391589913868,-53.30901814060303
1761284079.4390924,-6.537820152063627,0.039067156388639605,1.0279003575960355,-0.08381694901691826,-53.42264825609781,-21.10428733803034,-53.178408502295305
1761284079.4490297,-7.026777738217478,0.006932468235649576,1.01970583752398,-0.08085207834259237,-51.25198948259862,-19.514185722093302,-53.06410024779196
1761284079.459055,-7.527547517512752,-0.03512636886304615,1.0086081239465254,-0.07289700094662309,-48.38324445707768,-17.697741147095627,-52.93543313830587
1761284079.469257,-8.04118650506565,-0.08350617093858423,0.9949989804805653,-0.06103679523177206,-44.97868783948142,-15.977227434902641,-52.751008427985916
1761284079.4791808,-8.566637279406006,-0.13385058943792238,0.9793374982717372,-0.04675272271926213,-41.207387091300525,-14.653428654463077,-52.465402479685196
1761284079.4892113,-9.100748656351515,-0.18150764224547894,0.9621101974117198,-0.03172628109205874,-37.22675066258696,-13.968560518347514,-52.036083463857615
1761284079.4990692,-9.63855625460033,-0.2220441678877381,0.943806362313701,-0.017606140358298085,-33.167228110401496,-14.077143674260464,-51.42935965402816
1761284079.509125,-10.173794940869241,-0.2517444079067259,0.9249000118941215,-0.005768063919918294,-29.12235793372349,-15.02930442470941,-50.62431452229102
1761284079.5190632,-10.699575655682832,-0.2680177152897483,0.9058289723992103,0.002894895068561719,-25.1453836222369,-16.769143202862296,-49.61410478879211
1761284079.5299964,-11.209130358573272,-0.26965740355017476,0.8869687689667517,0.008115108743189962,-21.252434717650974,-19.148237180928575,-48.404599197833015
1761284079.5390434,-11.696518693992365,-0.25692334359864305,0.8686079502753005,0.010299142996632865,-17.431151617870107,-21.951536805178318,-47.01093916199051
1761284079.5490692,-12.157200873285497,-0.23145337524912274,0.8509349569547014,0.0104726311216866,-13.652878560865085,-24.930571764875552,-45.453064878314294
1761284079.559076,-12.588409630761717,-0.19603393154603238,0.8340428086228285,0.010129630405400764,-9.886211017559797,-27.83759784773904,-43.75150472970305
1761284079.5690722,-12.989292450622798,-0.15427569629940935,0.817950640334495,0.011009206012006974,-6.10968430763542,-30.45437696302957,-41.92474105875024
1761284079.5790312,-13.360834667271334,-0.11024533606129622,0.8026360710010402,0.014829708217380801,-2.3216444250170234,-32.61065750840447,-39.98919092867284
1761284079.5890126,-13.705605775594371,-0.0680974096610552,0.7880710599229123,0.023012806995625287,1.454197613186397,-34.18984492322416,-37.96222127096009
1761284079.5990317,-14.027388917205222,-0.0317325505107689,0.7742526481114835,0.03642779617994996,5.1683883731842934,-35.122318982058616,-35.867706616256676
1761284079.6091046,-14.330756568668987,-0.004490677459098113,0.76121642606973,0.05518580505762451,8.750630646223444,-35.36964847546899,-33.74267354790666
1761284079.6190195,-14.620650040958061,0.011113862373597395,0.7490188703217058,0.07851462521796404,12.119262303911745,-34.90485440450658,-31.642890860191024
1761284079.629154,-14.902013042642723,0.0135945929590703,0.7376807338239143,0.10474376545648625,15.193865060035792,-33.694456231299164,-29.645089985666978
1761284079.6390793,-15.179520499589824,0.002598525346837671,0.7270982869221075,0.1314198447607858,17.90889009392613,-31.687330322200744,-27.843883250823783
1761284079.64923,-15.457426883239513,-0.021117836804504738,0.716949602368403,0.15555306261230495,20.225733301113415,-28.813778831049003,-26.34231590936109
1761284079.6590323,-15.73952633870654,-0.05585645739359493,0.7066456441098241,0.17397071083316873,22.140695177554242,-24.996101613487678,-25.236229021606885
1761284079.6690354,-16.02917088790736,-0.09927370053069824,0.6953900039927581,0.1837298263215692,23.68699368535343,-20.169763866777437,-24.594076933204125
1761284079.6790245,-16.329251374821613,-0.14875520216640073,0.68239593878755,0.18252527045604758,24.930477707452205,-14.312226400717593,-24.43531765883616
1761284079.6891146,-16.642038991737497,-0.2017955467616018,0.6672547185393028,0.16902842329349213,25.960431709272704,-7.474816398607202,-24.71166181296509
1761284079.6990833,-16.96882953226534,-0.25630105925317453,0.6503775502492712,0.14310497537151226,26.878051305514298,0.1881986132840162,-25.295951724053193
1761284079.7090409,-17.309412349448213,-0.3107486340714979,0.6333808571995497,0.10588045876571033,27.785210925774738,8.399686989476098,-25.982918149553218
1761284079.719057,-17.661465789525074,-0.364165493489386,0.6192711983911183,0.05964481482527575,28.775098866038228,16.75475182138639,-26.504357385652867
1761284079.7290459,-18.020028744649807,-0.4159319858775293,0.612316687293686,0.007613576092030084,29.924769557771782,24.735057171756324,-26.558507741405986
1761284079.7390642,-18.37719925202883,-0.4654439314714695,0.6175620072793324,-0.04641120568788167,31.288442225577057,31.74386321351239,-25.850128822320382
1761284079.7490299,-18.72217063797928,-0.5117028751503724,0.6400310015683423,-0.09842469005858193,32.89015231144757,37.15998446977664,-24.13490636084359
1761284079.7590706,-19.04165107444501,-0.5529305886625019,0.683735667077829,-0.1445996926919128,34.715430987507546,40.40574420556152,-21.260198771798585
1761284079.7690167,-19.320642295864644,-0.5863197334014512,0.7506624765391523,-0.1816360556010416,36.70357635110393,41.021462234050816,-17.1942508178073
1761284079.7790053,-19.54349179443804,-0.6080268563687083,0.8399371598666099,-0.20706808304655758,38.7436773393017,38.73724537427845,-12.037765039994479
1761284079.7890408,-19.69509034720141,-0.6134826225426665,0.947371489542533,-0.2195211731732814,40.67787660225281,33.531882123715825,-6.0147784911260365
1761284079.7990303,-19.762069372667572,-0.5980361079967885,1.0655587149631114,-0.21889528438743167,42.314185765142234,25.668662102712577,0.5563997084470318
1761284079.809029,-19.733860995161145,-0.5578688839209512,1.1846014185401235,-0.20643642227785933,43.44894307719304,15.699408785977178,7.3075663587792095
1761284079.819091,-19.603513672996453,-0.4910249247415171,1.2934291377031844,-0.18465736239850286,43.896397804750876,4.431402313823157,13.872550621744368
1761284079.8290465,-19.36819984896689,-0.3983268323178446,1.3815072649605153,-0.15709339706991368,43.52051180234429,-7.142889439622642,19.937260342810866
1761284079.8390732,-19.02939804686922,-0.28391452474719997,1.4405887808715847,-0.12791273542564094,42.262394675814015,-17.9470985018288,25.278734749952978
1761284079.849335,-18.592769556628607,-0.15518328999755787,1.466081978816367,-0.10142383569728104,40.15642325261683,-26.94107506992862,29.786353907994766
1761284079.8590364,-18.06777448179422,-0.022038726525426527,1.4576730542665923,-0.08153449046246126,37.32972871682551,-33.24310855008378,33.46204202099172
1761284079.8690257,-17.467084312907897,0.10440348489089539,1.419062077760522,-0.07123548740516746,33.983594046506184,-36.23559021054509,36.400640987365826
1761284079.879018,-16.805851281154116,0.21336414528030453,1.356949760565584,-0.07220389712265875,30.360362935944547,-35.637094940176624,38.75570882253347
1761284079.8896062,-16.10089280445704,0.29583320212920566,1.2796143941510585,-0.08462237260799774,26.703650804529435,-31.529399671175415,40.698795268272974
1761284079.89907,-15.369848591216073,0.3456185356672909,1.1954700505467197,-0.10726967805701554,23.221275355714237,-24.33640410680815,42.380975388379674
1761284079.909041,-14.630371147453088,0.35989499026538324,1.1119165558327697,-0.13786112757513164,20.05910978389731,-14.760896932275319,43.903960335289106
1761284079.9190378,-13.89940866040224,0.3392683355054753,1.0346434680288212,-0.1735391417868971,17.290799162856583,-3.6919415592982303,45.30507323478527
1761284079.9290218,-13.192618356583107,0.2874408633862183,0.9674000647415388,-0.2113721074040583,14.924018342643569,7.901214562341388,46.556841505901495
1761284079.9390354,-12.5239093233868,0.21058928588167983,0.912135878863741,-0.24873483073331215,12.919724550024881,19.073324808189327,47.5789916525079
1761284079.949021,-11.905077828525492,0.11656406472870806,0.8693673353408318,-0.2835064480963806,11.217747869525795,28.99308298059463,48.258889184930894
1761284079.9590282,-11.345487003667595,0.014009645117475563,0.8386270881487032,-0.3140976367505077,9.760995108923192,37.01059519731249,48.475953725427814
1761284079.969003,-10.851759047174559,-0.0885036557370493,0.8188841227723552,-0.3393727962625222,8.511870430843912,42.69820454520171,48.12589240295674
1761284079.9790218,-10.427478402424393,-0.18325234839016025,0.8088655959957547,-0.3585479150796091,7.457731377170198,45.86391625286888,47.14134245651875
1761284079.9898045,-10.07293403546077,-0.26396438079817724,0.8072535051140056,-0.3711254299883517,6.606052779041602,46.539432576062836,45.5065038645403
1761284079.9990346,-9.784950630883333,-0.3262048726659368,0.8127650784770841,-0.3768892643237954,5.973011339148301,44.947034658314166,43.26446992568968
1761284080.0090492,-9.556869350993615,-0.36752454773150467,0.8241518770215998,-0.3759451737163934,5.570459498310336,41.45132486317349,40.51708008206899
1761284080.0190341,-9.378735211784472,-0.3873864655726744,0.8401645427467463,-0.3687688603350749,5.3956490428785155,36.50305884658309,37.41804035258212
1761284080.0292873,-9.237727522779556,-0.3869131579013687,0.8595252003032507,-0.35622274135478477,5.426269167553046,30.582673113297556,34.160647495617965
1761284080.039653,-9.118835468429138,-0.3685120848825763,0.8809314578870251,-0.33951681407146334,5.621294620631249,24.15043715564726,30.961698922265747
1761284080.0490763,-9.005741858669376,-0.33544311578091285,0.9030941766656545,-0.3201098388008729,5.926491785075535,17.60850151910183,28.043178979412936
1761284080.0592997,-8.881844372878332,-0.2913882284577544,0.9247949841217868,-0.2995657623889179,6.282530633650922,11.2778059027895,25.613232787432516
1761284080.0690703,-8.731322323419343,-0.2400723228310432,0.9449439067830477,-0.279392590828951,6.633514802741684,5.390284289318987,23.847875444673356
1761284080.0791092,-8.54015125174829,-0.18496842309433228,0.9626225191099478,-0.26089508608319506,6.934174183661862,0.09448419085903038,22.874874518810305
1761284080.0890203,-8.296977095028609,-0.12910399224439653,0.9771090013652477,-0.24506820483816733,7.154665260936862,-4.52903203774036,22.761258483890465
1761284080.0990229,-7.993782769261084,-0.07496914248969021,0.9878910103784833,-0.2325464768705244,7.282617814270773,-8.4470889286076,23.505840374133857
1761284080.1094306,-7.626307577271238,-0.024513070203598934,0.9946747005456059,-0.2236096061347049,7.322584753523892,-11.652787798466349,25.037868283772813
1761284080.1197214,-7.194208210632889,0.02079619363924855,0.9973936946697842,-0.21823164719034976,7.293349242575812,-14.147895596938708,27.22234708123673
1761284080.1293952,-6.700973976481566,0.05987968947552068,0.9962149245105798,-0.2161538115407639,7.223664634521842,-15.931477597343129,29.87177455690367
1761284080.1390762,-6.153623944043607,0.09195434405190694,0.991533735287723,-0.21696042461237827,7.147030989987469,-16.99593893878887,32.76317119263818
1761284080.149068,-5.562218469890668,0.11646516469142253,0.9839504151103458,-0.22014286502315392,7.09611689535245,-17.330068452874652,35.658552959712964
1761284080.160127,-4.9392155881548705,0.13305996708728512,0.9742239831174884,-0.22514498741449837,7.097445334758268,-16.92738135264228,38.32654558456108
1761284080.1693535,-4.298701486244128,0.14161014582455814,0.9632051792193117,-0.23139216803406157,7.166964287003632,-15.797193245592819,40.56274231501884
1761284080.179082,-3.6555294549027275,0.14226496092915006,0.9517568868809988,-0.2383117695626742,7.3070830004454566,-13.97550044533434,42.20666793084522
1761284080.1890614,-3.024413390537408,0.1355130503870182,0.9406740746205953,-0.24535410991837456,7.505648918993418,-11.53290661289148,43.15374238358933
1761284080.1990304,-2.4190365095716087,0.12221867810506248,0.9306151383405211,-0.2520201138601609,7.7371624470181315,-8.577485396912888,43.361296370824085
1761284080.2091396,-1.851248983953756,0.10360455659212543,0.9220527381636452,-0.25789598577204087,7.966271480131136,-5.251501762756287,42.84836387396461
1761284080.21902,-1.330433956595415,0.08116734981541102,0.9152471341339553,-0.26268875075680237,8.153238478251865,-1.7221462375915957,41.68961203573434
1761284080.2295742,-0.8631125743247607,0.0565323758883174,0.910241158443086,-0.2662525155731025,8.260641225094913,1.8323798919565688,40.00434406062352
1761284080.239869,-0.45283051713526307,0.0312745945006023,0.9068743522746191,-0.26859622879262135,8.260147965644322,5.239185855614969,37.94198400641719
1761284080.2490354,-0.10032360055338432,0.006746826258860353,0.9048136436980578,-0.2698690842670518,8.13796433737607,8.346718557942202,35.66576438346902
1761284080.259036,0.19609063422594047,-0.01604247653837497,0.9035980319288265,-0.27032648882753535,7.897635211484947,11.037868645236902,33.33646501882854
1761284080.269026,0.43998938548881017,-0.03647237682907474,0.9026948011191088,-0.2702850382006165,7.559346986505041,13.238100335085383,31.09801624777472
1761284080.2790504,0.6363016517397894,-0.054266044235222445,0.9015649278270124,-0.27007797787558946,7.1556265717347305,14.917464801673324,29.066575950957763
1761284080.2890537,0.7908500195844315,-0.0693758454579002,0.8997348495389613,-0.27002199923553377,6.724180513274452,16.086412816055198,27.324258490965217
1761284080.2990663,0.9100494389015957,-0.0818285132657711,0.8968698494416948,-0.2704012133634909,6.299338459313182,16.786347636514915,25.918004192537072
1761284080.3090553,1.000787789453287,-0.09157019947514224,0.892841799587286,-0.2714667322908362,5.903973095879354,17.076730514802104,24.86320821310257
1761284080.3190536,1.0704608108126548,-0.09835033412788582,0.8877827805156084,-0.27344479158953916,5.543755908456868,17.02116453712811,24.15085335105351
1761284080.3290322,1.1270888242426025,-0.10167374850723564,0.8821173216874576,-0.27654579660595235,5.205162634005642,16.67511744172816,23.756230156433126
1761284080.3390453,1.179413349416172,-0.10083588222048773,0.8765689003403824,-0.2809700000241874,4.857838943885817,16.0776833948528,23.64706148163144
1761284080.3490412,1.2368626651382304,-0.09504016367939833,0.8721378566597834,-0.2869083481968144,4.46092754946428,15.2490069051692,23.789055904023716
1761284080.359542,1.3092892512807066,-0.08358182567317851,0.8700457685776234,-0.2945358141066232,3.971982229103704,14.19384142667397,24.14756254819471
1761284080.369053,1.4064195914598634,-0.06606945779514034,0.8716389319815874,-0.303990826392882,3.3564451541770284,12.910436088472087,24.68496741553258
1761284080.3790383,1.537014950602082,-0.04264543277674576,0.8782477390518865,-0.315333608086267,2.5955615472725366,11.402776230284717,25.35455774140021
1761284080.38903,1.7078133803904514,-0.014159878547809522,0.8910111941081822,-0.32848118979123125,1.6910817277568038,9.693363258222634,26.09253983855678
1761284080.3990552,1.9223951385147773,0.017746980027371403,0.9106905008235242,-0.3431254037631775,0.6659855572965531,7.833421423372577,26.81050772194013
1761284080.409059,2.1801655669642144,0.050688116036948304,0.9375046083070646,-0.3586490040038852,-0.43855292820755876,5.907808936245591,27.390781432009565
1761284080.41904,2.4756616903337894,0.08171019753237045,0.9710197276725931,-0.3740618723428115,-1.569004252804952,4.032962824423607,27.686613753204195
1761284080.4290886,2.798353787951636,0.10759519922898561,1.0101152563086777,-0.3879816726886971,-2.6668845905713585,2.3477060317944476,27.528366198972748
1761284080.4390445,3.1330375166690363,0.12524166869356498,1.0530349045256007,-0.3986801162751082,-3.6766197180373017,0.998333514624352,26.73557505735824
1761284080.449069,3.460811179060865,0.132066332114953,1.0975192148702704,-0.4042083957207313,-4.553130230866675,0.12064565535223694,25.133635621388645
1761284080.4591599,3.7605277734117704,0.12636074514555615,1.141006364077743,-0.402603465256023,-5.2687261797566265,-0.17784332107523032,22.57286793316203
1761284080.469084,4.010528783887461,0.10754677429841615,1.1808799990392358,-0.39215790847524196,-5.819024730608199,0.16746139905030483,18.94715813664117
1761284080.4790747,4.190428767482964,0.07629605583879882,1.2147334195065602,-0.37171088171712846,-6.22746794101034,1.1688855382944727,14.209314021300692
1761284080.4890614,4.282731289393647,0.03450245566357679,1.240612645912077,-0.3408973159664443,-6.547730070548451,2.7834263577681226,8.380770244322358
1761284080.4990547,4.274102344751488,-0.014885761467318626,1.2572042618640014,-0.3002932012649923,-6.863136721381145,4.915920409127335,1.5542145222511548
1761284080.5090683,4.156187609201013,-0.06815546423920948,1.2639470402430877,-0.25142066795627405,-7.282428820180799,7.427505160195671,-6.1111402269697805
1761284080.5190575,3.9259247534019224,-0.12120911754164805,1.2610603932627453,-0.1966140606935742,-7.931789385573552,10.147799491238155,-14.400766253210419
1761284080.5290775,3.5853672966006807,-0.16999155726263313,1.249492024404775,-0.13877940956047471,-8.943723120424547,12.888849932279728,-23.060745848895927
1761284080.539062,3.1410941445896126,-0.21090916354753003,1.2307943107956407,-0.08109594181510642,-10.443848688808073,15.45887519661278,-31.816223302193066
1761284080.549068,2.60331974580505,-0.241188369235951,1.206947351092986,-0.02670821854308269,-12.53690290306003,17.674247975024798,-40.39026204874352
1761284080.5590825,1.9848401982903536,-0.259129678597918,1.180153419617564,0.02155492849345705,-15.293427845447098,19.36887902088456,-48.52130434800982
1761284080.5692391,1.2999516382956804,-0.26422614083229123,1.1526261008068548,0.061412391407611115,-18.738770318317957,20.400982365230515,-55.977809985375664
1761284080.5790482,0.5634590694949784,-0.25713155356250356,1.1263893670945144,0.09129841663957435,-22.845982386437264,20.657843831173235,-62.56909978909221
1761284080.5890932,-0.21014219456268493,-0.23948748819203178,1.1031004253439909,0.11045413608153425,-27.533770913405213,20.059506185047965,-68.15204209701864
1761284080.5990655,-1.0072765733814633,-0.21364753836636594,1.0839197897570518,0.11893854715774953,-32.66986962983447,18.562175537927825,-72.63395608245018
1761284080.6111274,-1.815697669444358,-0.1823590412738153,1.0694561633637252,0.11756498374538257,-38.07940028870952,16.1616995656774,-75.97269424480632
1761284080.6190987,-2.6247348877311385,-0.14846296192677325,1.0597970652008826,0.10777715668678395,-43.55720189627342,12.896788349597767,-78.17498209963246
1761284080.6291192,-3.4254265704373683,-0.11465218860615302,1.0546077073536333,0.0914815445587354,-48.882778466329945,8.850963325354128,-79.29368473694912
1761284080.6395736,-4.210585332380624,-0.08330215839761591,1.0532612324339519,0.07085278253261709,-53.83636780728124,4.151836602140764,-79.4240412792688
1761284080.6505089,-4.974826883848276,-0.05636855064479113,1.0549619939517982,0.04812964195793352,-58.21460693717581,-1.0335177118901977,-78.69844876130628
1761284080.6590607,-5.714572388166813,-0.03533603591128217,1.0588349171483813,0.025421353707025234,-61.844334022424306,-6.507637434213039,-77.2792795595895
1761284080.6690936,-6.428013383820107,-0.02119666799359835,1.0639701961646189,0.0045439617017249585,-64.59321041307375,-12.05574881074359,-75.34945043479172
1761284080.6790752,-7.115016271002986,-0.01443765796360802,1.0694283033071732,-0.013098738737339929,-66.37610186607927,-17.46149769211864,-73.1009004489584
1761284080.6895049,-7.776943292299176,-0.01502805748541927,1.0742216807083504,-0.026584542394433475,-67.1565726674718,-22.52340040885216,-70.72164112068339
1761284080.700328,-8.416375060482952,-0.022408212204845256,1.0772944431689297,-0.03549633727389348,-66.94341907547944,-27.069888449365845,-68.3824793360502
1761284080.7096972,-9.036732420619087,-0.03549660252166926,1.0775207389703307,-0.03990713157006856,-65.78283823603711,-30.970989758266754,-66.2247682590177
1761284080.7191598,-9.641812606361421,-0.052731217973963136,1.0737384871501885,-0.04033136464173877,-63.74748257280688,-34.145153114354436,-64.35054515083868
1761284080.7290711,-10.235275016891668,-0.07215749456030429,1.0648294519753194,-0.03764277045547305,-60.924132380015116,-36.56047692786159,-62.81614333569576
1761284080.7390876,-10.820129217833372,-0.09156527536838655,1.0498488680219749,-0.03295717219460146,-57.40189589306138,-38.230642144661424,-61.62985647064392
1761284080.7492235,-11.398283983868737,-0.10866721372028737,1.0281973667674866,-0.027481306670309933,-53.26269703657903,-39.206964420028825,-60.753618995000416
1761284080.7598705,-11.970208134881975,-0.12130235581243062,0.9998142575560046,-0.022335631236375587,-48.57543994057959,-39.568770732153624,-60.10813051447783
1761284080.769438,-12.534735168009071,-0.12764069927503077,0.9653556145407494,-0.018367926929552705,-43.394742060056615,-39.414413850430215,-59.58052993317263
1761284080.7790792,-13.089022297772885,-0.1263602880359472,0.9263089503649103,-0.01598283078964339,-37.76449161672158,-38.85454818544192,-59.03367371833269
1761284080.789413,-13.62865895720605,-0.1167743140035045,0.8849971100396532,-0.015017542514719668,-31.725694953109414,-38.00798292907722,-58.31629139588673
1761284080.799103,-14.147914065720014,-0.09890131365149453,0.8444412518153404,-0.014693134409721137,-25.327271465602223,-36.99895920282216,-57.27370259424815
1761284080.8093338,-14.640112378112663,-0.07348634338933033,0.8080808936119356,-0.01366362644563813,-18.637846939738534,-35.95364360781033,-55.75919693912391
1761284080.8190534,-15.098130643399118,-0.04198387407650208,0.7793769568314995,-0.0101735006565243,-11.756299410863955,-34.993427452764706,-53.64636625849417
1761284080.8290963,-15.514997983844705,-0.006502796952376186,0.761343205654537,-0.002319340945132677,-4.818779925640049,-34.22339004388637,-50.84249193819754
1761284080.8390586,-15.884571138386239,0.030298299893018948,0.7560625180196068,0.011608807606429057,1.9999053177872008,-33.7158248988415,-47.30255288941006
1761284080.8490598,-16.202238385315777,0.06537796430349971,0.7642525978084768,0.03275340881215164,8.492249993412809,-33.49061696495829,-43.042669878902856
1761284080.8590615,-16.465590439886448,0.09554147269148976,0.7849529264922128,0.061346255973452266,14.43221004420405,-33.49600652198286,-38.15098177537713
1761284080.8693779,-16.67498321343496,0.11772083652976219,0.8154056010203614,0.09646312574189647,19.59713921035657,-33.59445671646752,-32.793205095333946
1761284080.879076,-16.833906616185548,0.12928466408480757,0.851190746748174,0.1359345781863298,23.795448566130606,-33.55862554343691,-27.20973300829783
1761284080.8890855,-16.949071266736038,0.12834915301407,0.8866505088980512,0.17645409036448267,26.896298814304757,-33.0815974909653,-21.701499974158413
1761284080.8990924,-17.03014038316756,0.11404907625574853,0.9155954465268434,0.21389868996148184,28.85625939440323,-31.803533178778448,-16.60329086119779
1761284080.909077,-17.08907285459852,0.08671497194287346,0.9322339611656852,0.24383938023479299,29.73716044204887,-29.354040580106233,-12.245617144918294
1761284080.9190595,-17.139102365274045,0.047896544674226146,0.9321996330295979,0.26217104828827303,29.709896016286308,-25.406392842975922,-8.909170795357387
1761284080.9290607,-17.193445035131063,0.0001792034279976475,0.913485427982092,0.2657470511940121,29.041167589913208,-19.736806414407404,-6.778458121895321
1761284080.9390516,-17.263886463581812,-0.053225249198828414,0.8770664184076912,0.2528847002777085,28.063853867529946,-12.279864833515836,-5.902844897229761
1761284080.9490597,-17.359428394690806,-0.10905962727037817,0.827047029055534,0.22363363545032328,27.1356903487323,-3.170243065911816,-6.173387610708269
1761284080.959066,-17.485165424228747,-0.16463086315541847,0.77029292817136,0.17976543556456234,26.59368706119006,7.238461636714509,-7.322149926946782
1761284080.9706655,-17.64152268747129,-0.2182584528875909,0.7156268359383975,0.12451854528128657,26.712199653564863,18.38440375283438,-8.947242887524366
1761284080.9807897,-17.823936568868348,-0.26940713267151567,0.6727241255907732,0.062182725980509355,27.6708356478157,29.539772470323292,-10.562116385400735
1761284080.9891083,-18.023014733907573,-0.318445350749689,0.6508496065812065,-0.0023833735809155477,29.535337313370974,39.88115425480239,-11.662626933884905
1761284080.999089,-18.22516844930648,-0.36608087484785806,0.6575691456327386,-0.06423211145986732,32.251542649808364,48.57916683488448,-11.801267333252925
1761284081.0092363,-18.413664897208402,-0.4126159488630599,0.6975663058606185,-0.11877235721921142,35.650661463299926,54.8950282134341,-10.655705238392905
1761284081.0190845,-18.570002058301455,-0.4572245760547514,0.7716978474303153,-0.16217620742326194,39.463919437689576,58.27057804369912,-8.079068534466826
1761284081.029101,-18.675472188684,-0.49747273377843165,0.8764316901291819,-0.19174390036936154,43.34558351740208,58.39933585447466,-4.122318039126624
1761284081.03905,-18.71275969409235,-0.5292642396443707,1.0038143622958806,-0.20620150417283142,46.90418841902249,55.26890010030429,0.9758825247075635
1761284081.0500104,-18.667418364197093,-0.5472996653143137,1.1420879584977235,-0.20588162802563778,49.741376904662616,49.16882040840955,6.830073392531815
1761284081.0590866,-18.529091398768895,-0.5460067958620509,1.2769989782319122,-0.1927369583139031,51.49612072364844,40.66260835697582,12.971751407949771
1761284081.069072,-18.292372184753987,-0.5207730606371054,1.3937111612194217,-0.1701663037986941,51.88999103019947,30.527338468867,18.923509368863456
1761284081.079622,-17.957245809827327,-0.4692100277784267,1.4790700510635117,-0.14267248546180022,50.76743257957417,19.668665748356908,24.26945653681893
1761284081.0891879,-17.529089681819745,-0.3921290898493196,1.5238059966086603,-0.11539129580943389,48.12416798063644,9.0223143937508,28.709352129341934
1761284081.0990615,-17.018239657054345,-0.293932981986573,1.5241665373768492,-0.09352262580903077,44.11723659154016,-0.5453038589710855,32.087999849687705
1761284081.1090846,-16.439148250604507,-0.18225335438170506,1.482519997019686,-0.08168648643629468,39.052124526098375,-8.324768255090547,34.39702999856011
1761284081.1190772,-15.809185704737867,-0.06687656810971547,1.4067170469657002,-0.08325687361795692,33.3462174700509,-13.828656273235325,35.75192946072765
1761284081.1292171,-15.147178326035853,0.04177822379084347,1.3083704356453043,-0.09979410373848856,27.472972697484785,-16.825953947690603,36.35177075077191
1761284081.1390738,-14.47184389013643,0.13424078034231524,1.2005422317900052,-0.13074369623826296,21.896323574994074,-17.342433968924624,36.43154285713107
1761284081.1492724,-13.800342292847866,0.20327516049426042,1.0954570724992887,-0.17353446746774004,17.00795337637363,-15.629140262141284,36.21692900685082
1761284081.159045,-13.147162253995097,0.24465982854878227,1.002759374946372,-0.22408739938369002,13.079795405877492,-12.106596692765681,35.88918300981614
1761284081.1691818,-12.523489154265189,0.25742059158516645,0.9285871166016909,-0.27760193261376526,10.240353309210766,-7.29606034063994,35.56436882733496
1761284081.1790686,-11.937077078603844,0.24359006809035355,0.8754669953503106,-0.32939411361321336,8.47742960255761,-1.7498783356009993,35.287758234718396
1761284081.1891363,-11.392537743045777,0.20761743038661862,0.842842089461161,-0.37556378558732534,7.663513111456405,4.009156284350458,35.041442659719834
1761284081.1990502,-10.891896993872301,0.15556085316451093,0.8279602895209469,-0.413356728629656,7.595279802999059,9.533426470942153,34.76149687842394
1761284081.2092686,-10.435259066018226,0.0941914093585693,0.8268605700930528,-0.44121279439062716,8.036707521101434,14.479060635533395,34.36026632192322
1761284081.219149,-10.021444393020698,0.030132747826249712,0.8352554124481251,-0.458591670742174,8.756504205121043,18.618337652069854,33.74939509875312
1761284081.2290585,-9.648509174001873,-0.030851788679619418,0.8491898170742193,-0.46570560643058145,9.554096137315842,21.838311404843207,32.85992038786934
1761284081.2390761,-9.31409885198224,-0.08434477050173915,0.8654381633397533,-0.46326528055748234,10.272770848755037,24.128524471063788,31.656892928990253
1761284081.2490602,-9.015626267727292,-0.127501951135322,0.881662871173818,-0.4522927929019041,10.80212923078406,25.560796746380074,30.147234336386482
1761284081.25908,-8.750297777877494,-0.15904035313452705,0.8963941921029729,-0.4340083783700972,11.073790078611136,26.264200661065317,28.38066418652247
1761284081.2690523,-8.515035646705487,-0.179041899207501,0.9088996217231285,-0.4097709091833981,11.054237816973421,26.398471703417187,26.44442026630675
1761284081.2790895,-8.306358460279297,-0.18864219510352728,0.9190031613233831,-0.3810449811928384,10.73748826928802,26.12904433479699,24.453149207322483
1761284081.2890887,-8.120280767250987,-0.18967223800684105,0.9268985885514547,-0.34937159038861887,10.138777522622561,25.60646034310595,22.53576869471267
1761284081.2990727,-7.952280934930356,-0.18430961322243983,0.9329834641347382,-0.3163284323629508,9.28939579582009,24.952043824751925,20.82128335665285
1761284081.3090687,-7.79736762324809,-0.1747807214960861,0.9377261249408462,-0.2834752007670394,8.232288381770005,24.25061558736395,19.425468844520942
1761284081.3190641,-7.650255026360951,-0.16313954764113023,0.9415691721155982,-0.2522863075117345,7.018016241602287,23.54984600301763,18.4400469981122
1761284081.329062,-7.505636972247596,-0.15113224997170271,0.9448694049843969,-0.22407751674935714,5.700891667113745,22.864832671316844,17.925505915539787
1761284081.3390534,-7.358529880921146,-0.14014096432227066,0.9478722314237302,-0.1999347802721349,4.3353708078118,22.18582488538859,17.90813078946156
1761284081.3490639,-7.204635317705203,-0.13118678185927715,0.9507152401293945,-0.18065401564253514,2.9729442084201914,21.486841416870945,18.381176325440585
1761284081.3590577,-7.040658856591344,-0.1249644191297036,0.9534508401854892,-0.16669993282655055,1.6597618596604606,20.73328127614734,19.30951719642446
1761284081.3690407,-6.864520073992226,-0.12188225160149693,0.9560741384627941,-0.1581900942005697,0.43509513245846676,19.887401249852207,20.636653700409283
1761284081.379061,-6.67540348895873,-0.12209027927970337,0.9585422795973099,-0.1549073582945537,-0.6694427602402288,18.911491737733726,22.292700565618148
1761284081.3890536,-6.473630376150371,-0.1254908911416465,0.9607763949235867,-0.1563402726478725,-1.6301344823286017,17.76942916589367,24.201982503769457
1761284081.399056,-6.260368021329705,-0.13173778405083877,0.9626457291709688,-0.1617473010356517,-2.4311059141747138,16.427758598702617,26.28909545230065
1761284081.4090679,-6.037224797707578,-0.140233768406717,0.9639422458798278,-0.1702374340897891,-3.064160070553459,14.857436187229487,28.482721908594286
1761284081.4190843,-5.805797595654516,-0.15013816592803192,0.9643596881919144,-0.18085751588860907,-3.5285415697220697,13.036905989775951,30.717022808147515
1761284081.4290721,-5.5672400116219904,-0.16039129028349014,0.9634917264541731,-0.19267626827137418,-3.8305596613948767,10.956520261262918,32.93095580776452
1761284081.4390886,-5.32190892966591,-0.16976000339483988,0.9608595657181402,-0.20485641396404697,-3.9829538573066707,8.623684124144424,35.06629007169368
1761284081.449048,-5.069130345710858,-0.17690599604387872,0.9559720694053119,-0.2167085727412047,-4.0039180381893535,6.06769213639392,37.06531944346618
1761284081.4590554,-4.807107975763084,-0.18047645323742872,0.9484133771386027,-0.22772306404144443,-3.915770318798766,3.343107518679651,38.86926687298075
1761284081.4690697,-4.532982502669108,-0.17921348591025993,0.9379455581280106,-0.23757869930834502,-3.7433283477783315,0.5307041407958674,40.41813165104723
1761284081.479072,-4.243035302135056,-0.1720740814977597,0.9246080159749875,-0.2461316308710772,-3.512102791508757,-2.264642510619577,41.6523375504939
1761284081.4890544,-3.933018859127323,-0.15834848666675755,0.9087930078705473,-0.25339146307319854,-3.2464506078576596,-4.9192870868330045,42.51610321733113
1761284081.4990487,-3.5985883458911605,-0.13776363174503675,0.8912795990714093,-0.25949345868517815,-2.967841307346771,-7.2991150404419365,42.96206195972372
1761284081.5090652,-3.2358045284038877,-0.110558583486463,0.8732161040577748,-0.26467294091668847,-2.6934003100363064,-9.270194377703852,42.95636501642172
1761284081.5190587,-2.8416739778396485,-0.07751941500140605,0.8560506839502082,-0.26924257534297563,-2.4349164951972835,-10.710862942062993,42.48335555720873
1761284081.529124,-2.414685347852255,-0.039961934504586835,0.8414183721735409,-0.2735687408858298,-2.198526602730928,-11.524082214576715,41.54891850775033
1761284081.539072,-1.955290358138871,0.000345157564523995,0.8309987163733031,-0.27804156039107786,-1.9852823053040953,-11.6486804403499,40.18178010137824
1761284081.5490677,-1.4662681172679606,0.04131621509746866,0.8263606575878891,-0.28303404710688784,-1.7927254002247346,-11.068008588464018,38.432326826331284
1761284081.559551,-0.952905739425957,0.08073389071057022,0.8288104410146113,-0.28884858859952545,-1.6174250551140752,-9.814624896637056,36.36889936599175
1761284081.5690806,-0.4229324546692664,0.11646523629984926,0.8392560473632188,-0.29565329379359945,-1.4581933308185682,-7.969948819675976,34.071918758412494
1761284081.5790722,0.11383461436977431,0.14668216885189325,0.8580999721173403,-0.30341608594299735,-1.3194548514087112,-5.65837910105212,31.626526408359354
1761284081.5890894,0.6461336125651291,0.1700536015711915,0.8851711605780394,-0.31184964893409833,-1.2140852402911995,-3.0361084151043762,29.114611833252773
1761284081.5990658,1.1621346565348747,0.1858770103297905,0.9197043975912683,-0.32038300908802236,-1.1650237318044336,-0.2756849712960887,26.60716294543787
1761284081.6093028,1.6504386143402585,0.1941274156156671,0.9603705048052975,-0.3281729827651721,-1.2051413392663421,2.4518900439173783,24.157822891845328
1761284081.619119,2.1010487179973754,0.1954184228959088,1.005355221392436,-0.3341607038632425,-1.3751763819479477,4.995252867772428,21.79837984509876
1761284081.6290724,2.5061609474271407,0.19088671481754665,1.052480590443614,-0.3371684138819777,-1.719942711848089,7.238558700090981,19.53665331378179
1761284081.6390653,2.8606509858872227,0.18202338333350182,1.0993595906160418,-0.336024328720505,-2.283357931334913,9.113028463133485,17.356900131124174
1761284081.6490664,3.1621935026964985,0.17047993686718838,1.1435714378557718,-0.32970065244507857,-3.103040139464098,10.602659051192799,15.22249869683804
1761284081.6590698,3.411013653489836,0.15787303873400405,1.1828416783375986,-0.3174497511840139,-4.205247376426797,11.743492689663064,13.08034595379623
1761284081.669103,3.6093235803295394,0.14560368336759572,1.2152090436128777,-0.2989229807124674,-5.600806767593284,12.616842153794826,10.866196131748667
1761284081.679363,3.7605329299384422,0.13470141044122266,1.2391612332938664,-0.2742547533162768,-7.282469935903996,13.337714216613763,8.510164901389363
1761284081.689146,3.868346570647455,0.12570717809436746,1.2537258262555726,-0.24409361286336798,-9.223920862614154,14.040141019069463,5.941852979046333
1761284081.6991189,3.935878285902479,0.1186146192914462,1.2585101916202257,-0.20956658547415916,-11.380505561223286,14.86117472640977,3.094942520500351
1761284081.709085,3.9649119468322196,0.11288794222364798,1.253691508171232,-0.17217515942385894,-13.691656440932688,15.925076432742935,-0.08848715640282917
1761284081.7190995,3.9554240566690586,0.10756128350999888,1.2399616893924068,-0.13363812993822077,-16.08491492743881,17.328949891810396,-3.6534860641591504
1761284081.729224,3.9054417247376487,0.10140500607571125,1.218435365632794,-0.09571121005269159,-18.481356965402895,19.130848062564354,-7.627264441425308
1761284081.7390714,3.811254531322474,0.09312846047774721,1.1905358362346588,-0.060019160405507754,-20.802056195830332,21.34119164564006,-12.013736226282637
1761284081.74909,3.667939166789751,0.08158153484292754,1.1578798320551773,-0.02793069030080955,-22.974998004368707,23.918116570010536,-16.788054201150747
1761284081.7590866,3.4701065302742125,0.06592192396194135,1.1221788481730743,-0.0004910467725891763,-24.94166798326686,26.76709011664394,-21.892064405010768
1761284081.7690675,3.212755091555819,0.04573056032004895,1.0851623376509407,0.021592651438268974,-26.662470647471466,29.74483436831436,-27.231858634046002
1761284081.7790818,2.8921147966030794,0.02107384872544032,1.0485158271651662,0.03793375356809845,-28.1202068061605,32.66731765663802,-32.67852442627333
1761284081.7890773,2.506382930147964,-0.007483073531576284,1.0138233036564503,0.04844013184056939,-29.321000667202394,35.32134420401701,-38.072812463560865
1761284081.7991405,2.056274770355403,-0.03891097125919584,0.9825063850486101,0.05329623274316141,-30.292291387611606,37.479077369631455,-43.233919159774565
1761284081.8090913,1.5453328205958214,-0.07179963510375552,0.9557577278787013,0.052956904959899964,-31.077823937697584,38.9146465810032,-47.97201539433565
1761284081.8190708,0.9799605948214789,-0.10448633154233966,0.9344727399629609,0.048144595678881644,-31.730022508829034,39.421804905757675,-52.10354366990841
1761284081.8290777,0.36917264964281116,-0.13521976524412743,0.919191978046675,0.03983151995072847,-32.30063902851071,38.831425450363554,-55.46770336647152
1761284081.8390875,-0.27591779985199283,-0.1623421695186266,0.9100700811333179,0.029184945507570843,-32.83097422679048,37.02744124023666,-57.942093875180895
1761284081.8490696,-0.9428213257491503,-0.1844658415769127,0.9068803314493102,0.0174633877935907,-33.34312145350158,33.959675865154495,-59.45536852531222
1761284081.8590944,-1.618526724638721,-0.20061988446435886,0.9090521931062818,0.005873602326871017,-33.83356378973125,29.65199673423311,-59.99509360157018
1761284081.8690865,-2.290396562042195,-0.21034939804412334,0.9157320297890161,-0.004579303174212001,-34.27015107036797,24.204468206365934,-59.60975219301227
1761284081.8790758,-2.9470149437299753,-0.21375752977483722,0.9258573174085327,-0.013207300739786772,-34.59308191541492,17.788711639651424,-58.404725760646336
1761284081.8890738,-3.57891057182303,-0.21148591862727673,0.9382378918362103,-0.01968790714463039,-34.72004324340893,10.636433085768356,-56.53286527922855
1761284081.8990812,-4.179094515660101,-0.20463340810039882,0.9516400203722345,-0.024034519543671966,-34.5551250230438,3.021954275622599,-54.18083405710763
1761284081.9090712,-4.74337140141089,-0.19462044282526014,0.9648695473287888,-0.026501696948733347,-34.000582162013856,-4.759554356323511,-51.55278812388275
1761284081.919123,-5.270405379200105,-0.1830159978056404,0.9768498583513451,-0.027456224050758496,-32.970052090499706,-12.415738562749384,-48.853173715823274
1761284081.9290733,-5.761547117866981,-0.17135080154100932,0.9866893985922832,-0.027250844092057237,-31.401547771536666,-19.679839316896636,-46.27044221760162
1761284081.9391112,-6.2204520006714965,-0.16094279619454638,0.9937323250892497,-0.02613242164178003,-29.268484066531094,-26.329856059158935,-43.963289450069205
1761284081.9492192,-6.652538929557729,-0.15275820198464946,0.9975854717971451,-0.024203841243802357,-26.587169814188957,-32.201870246889996,-42.05063717831313
1761284081.9591024,-7.064350428710261,-0.1473241181685548,0.9981162511086871,-0.02144315047799364,-23.419587507134704,-37.19617866100589,-40.60604521826829
1761284081.969055,-7.462876327657503,-0.1446977340356532,0.9954203145763372,-0.01776795875118848,-19.870843756828855,-41.27598293611947,-39.65664908629353
1761284081.9790697,-7.85489649678794,-0.1444876831120956,0.989764521959525,-0.013121700276994008,-16.081345944501226,-44.4594942749277,-39.18616011251784
1761284081.989069,-8.246386816312022,-0.1459190448163383,0.9815175699325565,-0.007553951448400314,-12.214461092283596,-46.807220348296006,-39.14103761847328
1761284081.9990811,-8.642020566340673,-0.14793396652697902,0.9710840617808111,-0.001270109513420962,-8.441036345629303,-48.40677559265077,-39.438690865777744
1761284082.0090902,-9.044786378834557,-0.14932004007621485,0.9588560071931463,0.005365142318660993,-4.9226051526937775,-49.357752873432524,-39.97649080703377
1761284082.0190847,-9.455733743807281,-0.14885497066118222,0.9451897840597614,0.01187343822572438,-1.7953013053646274,-49.75898890555762,-40.6404626224557
1761284082.029082,-9.873847861855415,-0.14545000943738537,0.93040995282115,0.017746810569242523,0.8435820811883199,-49.69994296438821,-41.31279076271473
1761284082.039091,-10.296048842619392,-0.13827141862268072,0.9148372900346478,0.022549093216262875,2.9448180250508615,-49.25695167761483,-41.87767752547239
1761284082.0491354,-10.717308162805178,-0.1268238282376339,0.8988368673446205,0.02600936727198758,4.5112544102625325,-48.49398388389828,-42.225578802711496
1761284082.0590932,-11.130878863773491,-0.11099135563660387,0.8828795732610086,0.028085729093240273,5.596230727154325,-47.46644349490468,-42.25627700156723
1761284082.0690887,-11.528643072656312,-0.09104553376116314,0.8676047504325829,0.028986448074407985,6.296597562768913,-46.225818716891844,-41.8815332005575
1761284082.0790482,-11.901586353776642,-0.06763613247913218,0.8538645422850161,0.02914521193800352,6.741044747991823,-44.822757135420765,-41.02813684161998
1761284082.0890927,-12.240407957619773,-0.04177909012036657,0.8427270911401424,0.02915459970594364,7.074935001179579,-43.30655020090825,-39.64203755597649
1761284082.0990865,-12.536265461079408,-0.014846864384628419,0.8354193195484367,0.029666915341643216,7.443287079829104,-41.719995766426166,-37.69390912093819
1761284082.109097,-12.781629888735443,0.01144677137970726,0.8331996811429755,0.031275549930521236,7.973874269998501,-40.08998533707104,-35.185977559602215
1761284082.1191013,-12.97119455919207,0.03508901787198464,0.8371641269508899,0.034394291029002606,8.762522626170606,-38.41559262996809,-32.15930746520751
1761284082.1293302,-13.102744187550357,0.053863972251094044,0.8480038053767351,0.03915561485277856,9.86254702950525,-36.65649260422656,-28.70012634775415
1761284082.1390827,-13.177862074727944,0.065517365648477,0.8657502163171572,0.04534919723415747,11.279794721682185,-34.72488373238139,-24.943368917789194
1761284082.1495507,-13.2023453564099,0.06798096976601001,0.8895581029860187,0.052415950884143456,12.973967336657438,-32.48366947935318,-21.07159020496839
1761284082.1590726,-13.18621882273777,0.05962348782137715,0.9175818290345319,0.05950078897004593,14.865877700971861,-29.752699138258706,-17.307763837256523
1761284082.1690662,-13.143285561255759,0.03948264544919961,0.9469948333633464,0.06555294546190826,16.84930494469341,-26.323693930123966,-13.90118530279486
1761284082.1790748,-13.090218493943004,0.007435862356349227,0.9741854399186042,0.06945194074098127,18.80540620034023,-21.98333802387179,-11.106629126096202
1761284082.189086,-13.045266981953166,-0.03572048028951393,0.9951373898039507,0.07013404891873418,20.61739071127066,-16.542986528596316,-9.157957325765102
1761284082.1990778,-13.026712918640563,-0.0882980260717768,1.0059703230631978,0.0666986444937259,22.183375453713975,-9.872486470810417,-8.23846613064746
1761284082.2090836,-13.051251067519352,-0.14785258287184014,1.0035742567230053,0.05848357064069903,23.425957641361354,-1.9346468683858724,-8.45130906847015
1761284082.2190766,-13.13248389254212,-0.21142440659277983,0.9862271661190803,0.045109360738057776,24.29800919812343,7.184012287475814,-9.79421213435632
1761284082.229091,-13.279708351541132,-0.2758678472740496,0.9540556383925989,0.026499474997012915,24.78538761714548,17.251189025173232,-12.143168724246882
1761284082.2391152,-13.497127725528976,-0.3382348935154608,0.9092201395833048,0.002885993095887071,24.908202850161555,27.880281718132043,-15.249518285488493
1761284082.2491302,-13.7835490229161,-0.39614603644217844,0.8557892950215864,-0.025191093787543722,24.72220619656773,38.53931161389484,-18.75342470116657
1761284082.2613251,-14.13254390014898,-0.4480581881310498,0.7993603165329907,-0.05688458858847015,24.320308368032396,48.5792451302595,-22.214261144612443
1761284082.2691033,-14.532986118267024,-0.49334459594982744,0.7465176433162025,-0.09103477442910807,23.831824831139002,57.2810556967266,-25.155327340054495
1761284082.2791343,-14.969851521664756,-0.5321409964081689,0.7041957648896978,-0.1261543932205179,23.415492035092182,63.91808160629407,-27.117559664026352
1761284082.2890952,-15.425177147277358,-0.5649741437895798,0.6789777523311052,-0.16041165674761368,23.243152405447848,67.82786649826646,-27.71512141570429
1761284082.2990837,-15.879106960402043,-0.5922551211271133,0.6763547147546716,-0.19164072058349158,23.474271001130926,68.48605497354339,-26.685145575354223
1761284082.3091092,-16.310982195728982,-0.6137695460938272,0.6999907112833038,-0.21742803137327288,24.22546127075092,65.57414788749954,-23.92430899513216
1761284082.3191066,-16.70045117009148,-0.6283112327723682,0.7510685442844168,-0.23531894426507788,25.54193532028404,59.0329868277433,-19.506270226155394
1761284082.3291333,-17.028572795449385,-0.6335784695724709,0.8278226966148697,-0.24315237549489868,27.37816344746345,49.09469999644206,-13.676338577139868
1761284082.3390849,-17.278872239091292,-0.6263923596716189,0.9253814165036068,-0.23947479864635773,29.593157052822324,36.28745880498758,-6.822944372163904
1761284082.349339,-17.4382821958841,-0.6032239483934435,1.0360245502623924,-0.2239374966482606,31.962593796776524,21.409731852545406,0.5709078367041216
1761284082.359088,-17.497878138237535,-0.5609493672353045,1.1499111871012846,-0.1975681263163312,34.206582996940824,5.473777224392889,7.9896782722088355
1761284082.3691103,-17.45330478418464,-0.4976996411047332,1.2562468800563935,-0.16283533133889025,36.02899380927157,-10.378175319631685,14.951857573734557
1761284082.3791459,-17.304810582885217,-0.41363588854601463,1.3447536540206488,-0.12347753544679693,37.16220086881336,-24.977597631556577,21.071009025866182
1761284082.3891282,-17.05686436327376,-0.31146461405609355,1.4071942331666978,-0.08411669366485831,37.4098067458113,-37.242203971197604,26.101745496129762
1761284082.3991814,-16.71740949673886,-0.19652719751915876,1.438623907986688,-0.049705448813058106,36.679449236663224,-46.284154612171186,29.96319695879373
1761284082.4091244,-16.29688616971745,-0.07637416014706784,1.4380560747736322,-0.0248685577634761,34.998668189915705,-51.50032483780742,32.73604029228207
1761284082.4191055,-15.807194074247422,0.04013369987338378,1.4083625891544453,-0.013220344989821478,32.50959182806306,-52.632529353385,34.63375710740492
1761284082.4290934,-15.260764705828981,0.14401483849067734,1.3554492276087498,-0.01677633072802467,29.442758663443527,-49.78882762550254,35.95369046113595
1761284082.439177,-14.669871518240917,0.2273812345687142,1.286954359821561,-0.03560180421055066,26.075416729865488,-43.42197114237832,37.01740760156852
1761284082.4490907,-14.046245922502484,0.28442100447088087,1.2108289339079787,-0.06781381929375202,22.683450192486585,-34.26745469963715,38.1116056172348
1761284082.4591541,-13.401006005743081,0.31198109679021496,1.134137765115657,-0.10996364695331323,19.497551715323084,-23.250441788614715,39.439869715399354
1761284082.469093,-12.744850994940439,0.3097036072122619,1.0623005321740129,-0.15770693463651878,16.673012380718614,-11.376185979161974,41.092520808995545
1761284082.4791265,-12.088426034967753,0.2797783704181639,0.9988255458415548,-0.2065777444702828,14.278812879265669,0.3792350682214846,43.03765141731524
1761284082.4891815,-11.44271954872782,0.22643948067062122,0.9454497039055915,-0.2526647611137234,12.306544189373952,11.162614457466612,45.132416235981566
1761284082.4990885,-10.81933226607096,0.1553444162275397,0.9025282858546633,-0.29304480944093464,10.69456667237693,20.311073334546165,47.15058259369936
1761284082.509084,-10.230470770464754,0.07294291294382495,0.8695171166400691,-0.32592489296732025,9.359260564660245,27.388596506328618,48.82058203788361
1761284082.5191224,-9.688575282383994,-0.014106261880362948,0.8454264122641532,-0.35053553848680147,8.224266837796407,32.192510481965535,49.867706020521254
1761284082.5290933,-9.205577946362054,-0.09945145693906941,0.8291710912138136,-0.36687620599402976,7.240445125075135,34.734649508090904,50.05437886013453
1761284082.539082,-8.791877804225486,-0.17749039717747528,0.8197837886901282,-0.37542764575950743,6.3930643054933975,35.20387248038403,49.21340861893003
1761284082.5490868,-8.455186989082367,-0.2437220677816054,0.8164928125877252,-0.3769210946985901,5.696975713804011,33.91700804538961,47.270610901307556
1761284082.559133,-8.199436331159538,-0.2949804312965121,0.8186962189411454,-0.37220646782869865,5.1837012733858705,31.2649740703865,44.25502414327447
1761284082.569099,-8.023926451203192,-0.329526372964701,0.8258792233209756,-0.36221305989098623,4.885679930750688,27.660282937432058,40.296771627818764
1761284082.579098,-7.9228779375062475,-0.34699489120625704,0.8375212874496456,-0.3479641477337353,4.822405535504601,23.491469200439465,35.614111031327454
1761284082.5891175,-7.885479221101748,-0.34822037376086284,0.8530250650279441,-0.3305975252186,4.991520396758933,19.08890820582865,30.492120945241886
1761284082.599099,-7.896461947273505,-0.3349812657365257,0.8716804492724423,-0.31135386878491883,5.365947673426692,14.704837276363355,25.255840323111077
1761284082.6091185,-7.9371595107569926,-0.30970998184756643,0.8926606589491568,-0.29151643413633216,5.896504412050017,10.508238179493345,20.2407242646989
1761284082.6191044,-7.986934315049272,-0.27520637146882265,0.915038238695628,-0.27231076558260014,6.518420769939827,6.592959679233506,15.763220203336013
1761284082.629107,-8.024805587592795,-0.2343811613129313,0.937809034473982,-0.25479291934121767,7.159801197258869,2.9955373308963713,12.094149815067405
1761284082.6391711,-8.031085870646336,-0.19004656602469358,0.9599197814927283,-0.2397610104762934,7.750187072187253,-0.28199075863262224,9.43730281660248
1761284082.6492465,-7.9888480739330925,-0.14476557942434648,0.9803038703675615,-0.22771525906976617,8.227859433598695,-3.249190173553008,7.915107738112008
1761284082.6591074,-7.885090400056429,-0.10076532826691087,0.9979333066012872,-0.2188722276600685,8.545151720589127,-5.908520711808778,7.56244603075335
1761284082.6691,-7.711524982219587,-0.05990982604483522,1.0118902303008115,-0.21322001805069715,8.671615106727074,-8.24377122903321,8.32872635213453
1761284082.679105,-7.464966377608091,-0.023714856184522827,1.021451783632888,-0.21059030225246897,8.595244796019267,-10.216932629928221,10.08740440976265
1761284082.6891065,-7.147326997000579,0.006621597381250433,1.026173259277142,-0.21072210753163187,8.322093360072746,-11.773075676638355,12.651390475075639
1761284082.6991162,-6.765241655023849,0.030200366840457817,1.0259504970059459,-0.21329973985191017,7.874533355685294,-12.85131299438286,15.792326096096572
1761284082.7092893,-6.329353982092803,0.046431127605774294,1.0210448402284078,-0.21795993222230406,7.288317785080423,-13.398919603887276,19.261538531483886
1761284082.7192478,-5.8533135265033085,0.055073152129557976,1.012061697428471,-0.22427672953389657,6.608548281442486,-13.385303418482513,22.810566436364756
1761284082.729209,-5.352558184662997,0.056291648762869885,0.9998841532034605,-0.23174192031381924,5.884751822323983,-12.812779645825294,26.209454231151668
1761284082.7391675,-4.842988704123238,0.05070252436450458,0.9855727104667684,-0.23976079687895663,5.165456934883374,-11.721911655672452,29.261462444123524
1761284082.7491739,-4.339670452019024,0.039375655824345296,0.970248474810061,-0.24767754604311057,4.492867439935579,-10.190342181404395,31.813339730290433
1761284082.7591305,-3.855710041818652,0.023774482480487306,0.9549788554722213,-0.25483421289863695,3.898362789441606,-8.325321665633462,33.76078485717092
1761284082.769495,-3.401440848156853,0.00562582693228281,0.940682527248613,-0.26065553949717013,3.3995328138940617,-6.251313360239362,35.049188617600734
1761284082.779122,-2.984008828459735,-0.013266381831236912,0.9280651483367106,-0.26474238097234515,2.999249985332376,-4.094917158208399,35.670194336195145
1761284082.789454,-2.6073845513968226,-0.031232406235793216,0.9175904375919496,-0.2669513694582117,2.686931699372126,-1.96977386903932,35.655011921940684
1761284082.7991054,-2.272752802821751,-0.04693218185517438,0.9094839297382732,-0.2674393193078548,2.441740274712843,0.03597164999713432,35.065684655407516
1761284082.80922,-1.9791652109536257,-0.05949509717332422,0.9037607711302357,-0.2666573738944947,2.237108998153018,1.8676432345764307,33.985582466854154
1761284082.8191538,-1.7243009040106911,-0.06857623826247213,0.9002662098802294,-0.26529077983408406,2.045746322224131,3.5063807329048675,32.51027806153126
1761284082.829698,-1.5051762611411748,-0.0743213402676202,0.8987186548145578,-0.26415301807223834,1.8442085199532907,4.965897496024642,30.739694383475637
1761284082.8391335,-1.3186775550927037,-0.07725443511446435,0.8987491421055609,-0.26405422715649485,1.6162604655395407,6.284687637653601,28.77206552914177
1761284082.8491108,-1.1618484975477916,-0.07811861344283012,0.8999356647618637,-0.2656700364906318,1.3545330016507158,7.515426464031869,26.699910908837897
1761284082.8591232,-1.0319302508671742,-0.07770674835185162,0.9018342224832316,-0.26943671580027106,1.0603585003344196,8.713584054115135,24.607936551195483
1761284082.8691452,-0.926206655212091,-0.07671482701329817,0.90400964701284,-0.27549261071801884,0.7420331050236338,9.927110972324218,22.57255205890595
1761284082.8791254,-0.8417413831500205,-0.07563928550143409,0.9060684300494161,-0.28367582990238494,0.4120348735222137,11.188567321952155,20.66251240066863
1761284082.8891535,-0.7751035729266904,-0.07472648658739119,0.9076938067582969,-0.29357622015277535,0.08386515329260441,12.510432056212382,18.94006017744659
1761284082.8993666,-0.7221655509718049,-0.0739702272097453,0.9086810530816034,-0.3046283716077897,-0.23084697361126452,13.883723147216838,17.461873843564117
1761284082.9091246,-0.6780246178073426,-0.07314339041005564,0.9089689349884255,-0.3162244707648201,-0.5245081255375467,15.279602811084372,16.279144700149132
1761284082.9191139,-0.6370603639376603,-0.07184525743545062,0.9086617987193105,-0.32782340181197006,-0.7947690936975428,16.65339208711726,15.436230243780548
1761284082.9291253,-0.59310521690118,-0.06954948953128569,0.9080361615114394,-0.3390358120403999,-1.0447871343849875,17.950360421038134,14.9675728645621
1761284082.9391139,-0.5396929221750778,-0.06564869376710038,0.9075270853257271,-0.3496717353194965,-1.2826973581471206,19.11270349568538,14.892923966322124
1761284082.9491024,-0.4703610431117537,-0.05950440093798179,0.9076943861757749,-0.3597447995481417,-1.5204922257464446,20.087155907032372,15.211343698437512
1761284082.959655,-0.37900897486657936,-0.05051846207380656,0.9091747241496058,-0.36943324710590497,-1.7724834226628166,20.832616364640813,15.894889902205326
1761284082.9691038,-0.26033207095395794,-0.03823729540208054,0.9126277146270453,-0.37900275281383866,-2.053481205006003,21.326998043858588,16.883260195366347
1761284082.9791017,-0.11034701325699564,-0.0224846782867609,0.9186807575125947,-0.3887000046047052,-2.376811100695179,21.57235394306576,18.080789331919146
1761284082.98909,0.07300922681550523,-0.0035002883631579957,0.927873029318276,-0.398630472469224,-2.752306625899934,21.597298276127677,19.357052442438494
1761284082.9992225,0.2892698631032098,0.017950071370345978,0.9405985552811996,-0.4086392333701272,-3.1844646343643226,21.455955041109554,20.5518793209011
1761284083.0092177,0.5349186811696295,0.04052671021555883,0.9570499084119252,-0.4182179195206041,-3.671019239868893,21.223136806040333,21.48491425957157
1761284083.0190978,0.8030764188451887,0.06235615728495925,0.9771648703753882,-0.4264603893594253,-4.20225613088202,20.986087435315888,21.969088285998602
1761284083.0290956,1.0834985740769598,0.08117051743456023,1.0005800298901693,-0.4320840360116432,-4.761398732065766,20.83371971642231,21.82666433610053
1761284083.0391173,1.3629547660439987,0.09454006851108981,1.026600031581308,-0.4335252580992664,-5.326299076848347,20.84467931006373,20.906012004129128
1761284083.0491104,1.6260045815664335,0.10017395053672337,1.0541961508303643,-0.42910844324417335,-5.872452955783778,21.07572162800263,19.09705424489608
1761284083.0591252,1.8561171047148637,0.09624539254470207,1.0820486803236016,-0.41727726698873935,-6.377082264646977,21.55184315112939,16.34343186540766
1761284083.0708349,2.0370122167948375,0.08168437165964791,1.10864293689051,-0.396862798857103,-6.82377272274225,22.259423432523153,12.649829067617592
1761284083.0791657,2.154047879084466,0.05637848021242399,1.1324183964019843,-0.3673438677385098,-7.207010185695805,23.143336312245584,8.08351639184963
1761284083.0891817,2.1954574095526564,0.021238442176716308,1.151954459490711,-0.32903886764008383,-7.535980152486626,24.10858148027309,2.7698767049789565
1761284083.0990977,2.1532644141517823,-0.021882434242826678,1.1661583865406702,-0.2831714585474392,-7.837157987930005,25.026482437194563,-3.1176239911965444
1761284083.109134,2.023764971184857,-0.07038726051262534,1.1744112928929766,-0.23178347947172212,-8.15540285557671,25.74495338935621,-9.371941235879964
1761284083.1191282,1.807548018517552,-0.12119938062482136,1.1766371975727212,-0.177509907090378,-8.553358919206786,26.10186885282477,-15.76985986290859
1761284083.129108,1.5091023723019088,-0.17103526299761102,1.1732855323790232,-0.12325900374924685,-9.108965865262087,25.940274267547338,-22.09042559288212
1761284083.1391218,1.1361134470031813,-0.21665007313695847,1.1652428917031268,-0.07185293295101094,-9.910890180840415,25.124047902119585,-28.132448836013303
1761284083.1491075,0.6985759269124296,-0.25504637870712393,1.1537018904432874,-0.02568986563618191,-11.051792696643078,23.55257170281877,-33.729275435065816
1761284083.159219,0.20784382904568804,-0.28365533058933656,1.1400147644543386,0.013512212799421115,-12.619566418199263,21.172940747777364,-38.7593203010988
1761284083.1690984,-0.32428207516830443,-0.30050258362325927,1.1255540149436432,0.044844410327555755,-14.687008276710591,17.988307385343486,-43.15129111582969
1761284083.1791096,-0.8863561422662258,-0.3043607972476849,1.111595491036477,0.0681917490823765,-17.3008102938933,14.061237933017301,-46.88363053269428
1761284083.1893299,-1.4679312869549173,-0.2948763795837509,1.0992310308404252,0.08409160361794649,-20.471192844131583,9.511495304826845,-49.978492063858546
1761284083.1991072,-2.060019701615837,-0.2726494784653881,1.08930934918933,0.09351208093673706,-24.163812893691546,4.508354866695888,-52.491425621285934
1761284083.2091959,-2.6553682371744487,-0.23924655071074272,1.0823980916309008,0.09761028463646194,-28.29561646536293,-0.7417590178499887,-54.49864150938268
1761284083.2191164,-3.2485642451179144,-0.19713211202787467,1.0787588356409938,0.09752572684482225,-32.73598602408055,-6.011028382677952,-56.0840016650227
1761284083.2291956,-3.8360004367971623,-0.14951682615922923,1.0783304130410922,0.09424442110755235,-37.31386124374717,-11.067870673013385,-57.32766398657467
1761284083.239096,-4.4157325474206495,-0.10012988313511116,1.0807229798430342,0.08854357149970686,-41.83055865972696,-15.694932613688756,-58.29768652255065
1761284083.2491415,-4.98726132013903,-0.05293221270363972,1.0852324092105865,0.08100571483775001,-46.07694531751611,-19.70608572751264,-59.04511288099556
1761284083.2591958,-5.551262664902487,-0.011792083467397862,1.0908864602076045,0.07207909047334843,-49.85268697967888,-22.961233390217835,-59.60235003695057
1761284083.2691188,-6.109280187314836,0.019853437320391236,1.096527403411752,0.06215568498532399,-52.98476138272273,-25.377862425048594,-59.98416831203566
1761284083.2791739,-6.663386186602469,0.03932657874247987,1.1009233693231495,0.051638117067955305,-55.34248850017218,-26.938333055754015,-60.190434929154435
1761284083.2891085,-7.215813712126404,0.04499905991744234,1.1028900722077521,0.04097318842066131,-56.84699805865069,-27.691975989811144,-60.20969961279876
1761284083.2991445,-7.768565286547529,0.03651161393799045,1.1014007446191392,0.030643263699103394,-57.47411145072158,-27.75127226888213,-60.02292546734202
1761284083.3091784,-8.32301346270913,0.014885780529931005,1.0956647999499631,0.02112106663154754,-57.25069323596927,-27.281803533619126,-59.606935444683174
1761284083.3191268,-8.879521805907629,-0.017505495423652324,1.0851626564976617,0.01280415631563479,-56.24534360723294,-26.486250713099516,-58.93744477552094
1761284083.329125,-9.437127377489515,-0.05712615936131162,1.0696336413680025,0.005951961945757808,-54.55482582311182,-25.583397708179017,-57.991777965415224
1761284083.3391695,-9.99333229146344,-0.09961724790183825,1.049024277739126,0.0006501526715001238,-52.288005864709994,-24.783827982462736,-56.75143959659577
1761284083.3491416,-10.544048704710061,-0.1402557118786681,1.023413596944095,-0.003178661876884992,-49.54944337190552,-24.26481029013151,-55.20459648227548
1761284083.359119,-11.083727134488095,-0.1744766372980656,0.9929384798703511,-0.005712290878510042,-46.425044660283255,-24.147643980954403,-53.348302560369795
1761284083.3691175,-11.605674069440587,-0.19839115326939374,0.9577432175132842,-0.007124626057523475,-42.97217905010665,-24.481124087794605,-51.19008863668594
1761284083.3791215,-12.102537181320969,-0.20923412871405725,0.917972171375784,-0.007462866707752987,-39.21621764191901,-25.23441140348053,-48.74847313825727
1761284083.3891158,-12.566912324914444,-0.20569117338460594,0.8738143070761685,-0.006537859262264303,-35.15454279118306,-26.301332255993255,-46.052090085113754
1761284083.399133,-12.99201022055023,-0.18807355998749908,0.8255966902992246,-0.0038619895828388346,-30.767775464735163,-27.516200437548864,-43.137452428672084
1761284083.4091363,-13.372311734514579,-0.15832121190077175,0.7739119185674956,0.001336284469077202,-26.0364788132548,-28.679082408125865,-40.04577350961174
1761284083.419311,-13.704137325739774,-0.11981898885419227,0.7197523436729331,0.010008350563938272,-20.96023326924641,-29.58651009935646,-36.81962225225816
1761284083.429175,-13.986060295384407,-0.07702404588097364,0.664615554654332,0.023102396310842262,-15.575095333773929,-30.06240048117583,-33.500371207222614
1761284083.4391117,-14.219109491184383,-0.03493161159398661,0.6105458777710886,0.04133361949538464,-9.96533556115564,-29.9836204986102,-30.12733896487986
1761284083.4491358,-14.406737030705457,0.0015541269524768126,0.5600859280898451,0.06495243688697314,-4.2661244871888355,-29.29531036839056,-26.739206420148122
1761284083.4593115,-14.554565832398564,0.028245838279516808,0.516125538217822,0.09355762297430995,1.3445705103145682,-28.012667473164342,-23.377725461472668
1761284083.4691844,-14.669969889393599,0.04218780314812722,0.4816472333958847,0.12599493412488755,6.664447148572376,-26.208211394980104,-20.093015746030318
1761284083.479167,-14.761565413386522,0.0419679056420293,0.45937744108246337,0.1603688981928365,11.492929165753738,-23.986313495862884,-16.949002205139713
1761284083.489137,-14.838694458605781,0.02777199376083967,0.45136744033685816,0.19417843214159605,15.660103692824588,-21.449556455102364,-14.027002990250907
1761284083.4991426,-14.910960684390343,0.0011758366290190833,0.45855681400844556,0.22456688999528382,19.052781473917122,-18.663732359921013,-11.425380586070103
1761284083.5091443,-14.98783174732826,-0.03527509553291401,0.4804168657051741,0.24865317288392605,21.63227369926969,-15.629446167206881,-9.253678389605087
1761284083.5191834,-15.078268480643375,-0.07860122661719714,0.5148121914251724,0.2638865113381774,23.440287427987272,-12.267991037608908,-7.620766170338967
1761284083.5291271,-15.190309868504206,-0.12592371277940267,0.5582079619469292,0.2683579202880593,24.5921436682194,-8.42724231751873,-6.617981423616999
1761284083.539179,-15.33056849633942,-0.17489970959500123,0.6062536855495356,0.2610186350713459,25.259389937140515,-3.909865877458182,-6.299691598152803
1761284083.549188,-15.50366633721187,-0.22399652997119673,0.6546291489927509,0.2417903802644669,25.645841710459514,1.4783772661125019,-6.664730474342695
1761284083.55922,-15.711707927621623,-0.27257220772735846,0.6999343375063757,0.2115782274597688,25.961646510858436,7.867151456050973,-7.6425336052329405
1761284083.5691986,-15.95389703169528,-0.3207461962072954,0.7403905424093904,0.17220068672916275,26.399274642971093,15.257659856815868,-9.087411035940754
1761284083.5791447,-16.226361127226486,-0.3690662852675519,0.7761741851419619,0.12624422137462504,27.113937674685975,23.469201666755467,-10.78327339676408
1761284083.58915,-16.52219508810665,-0.4180140168238087,0.8092952668492911,0.07684833941729764,28.209389502324676,32.10879636966707,-12.459431377988654
1761284083.5991256,-16.831695726086878,-0.4674283130268348,0.8430397411441164,0.027437447000137324,29.72885170809189,40.573892936338,-13.8161164539651
1761284083.6091328,-17.142739013909345,-0.5159562202222083,0.8810943521157372,-0.018573693655547882,31.650305249828104,48.09358494109626,-14.556509190087052
1761284083.61914,-17.44125608872331,-0.5606600024548193,0.9265365499855802,-0.05807371339770257,33.885792697520955,53.807791126505926,-14.420694661975523
1761284083.629268,-17.711788681037746,-0.5969140605954052,0.9808956660698022,-0.08852964316130014,36.285451142222236,56.877237577162155,-13.216370421889083
1761284083.6410513,-17.938131344218597,-0.6186995545067938,1.0434846578358175,-0.10823430572462688,38.647994829603824,56.610665633704336,-10.841444251624567
1761284083.649866,-18.104077985115694,-0.619342298906921,1.111167144732927,-0.11651689022995086,40.739353500157605,52.59061173525034,-7.29489039952887
1761284083.6593814,-18.19427768965656,-0.5926437197546672,1.1786562755450045,-0.11389533774889958,42.31969455665459,44.77651114553771,-2.674258256388947
1761284083.6692746,-18.195175334806656,-0.5342379364829051,1.2393383802481421,-0.10213133671473247,43.17649747654839,33.56465778638234,2.839296066672842
1761284083.681242,-18.095977384858163,-0.44289798572877176,1.2864842854270668,-0.08413738419011955,43.158620209150186,19.789200937917645,9.005212017681206
1761284083.6892142,-17.88955565585964,-0.3214555070709181,1.314580846032465,-0.06369393841483119,42.20435516126771,4.65681023252949,15.55207251588372
1761284083.699806,-17.57319147604672,-0.17703828216479064,1.3204375230393153,-0.04497310910673016,40.35616270019145,-10.38100900951176,22.205174901265735
1761284083.7091935,-17.14907201892793,-0.020485640963672624,1.3037613600256437,-0.03192999400694124,37.756737183704715,-23.801683721928388,28.708706731695315
1761284083.7191527,-16.624475716148464,0.1349723169707167,1.267064086184877,-0.027687104776679263,34.6252917740134,-34.204870284869855,34.84002188027685
1761284083.729185,-16.011617681226653,0.27548432258472166,1.2149918764307968,-0.03406351866392989,31.218352884462472,-40.493561153069436,40.4157782000645
1761284083.739115,-15.327160531805138,0.38841622943246035,1.1533335004590854,-0.051368126167290244,27.78404351263638,-42.013196373565506,45.291610532428656
1761284083.7491264,-14.591421925229163,0.4639147772212443,1.0880010658859345,-0.07849745297864147,24.521000265607604,-38.62764243683897,49.358073122890424
1761284083.759119,-13.82732230783795,0.4959777150814717,1.0242093114615507,-0.11328651804821246,21.551846613110317,-30.723667330095008,52.53565382476778
1761284083.7691278,-13.05911807171267,0.48295470344753144,0.9659666308014809,-0.1529920004982089,18.916966925716856,-19.14855971127966,54.770959973730484
1761284083.779135,-12.310967267152988,0.42751311517536156,0.9158881023530204,-0.1947644562813731,16.588613414995233,-5.095446245230298,56.035130949626016
1761284083.7891328,-11.605388415349914,0.3361590405086145,0.8752736774930933,-0.2359948083409972,14.499871101379918,10.043919617910593,56.324550224947906
1761284083.79912,-10.96170163864718,0.218417386172818,0.8443641864531832,-0.2744844625168639,12.579249084800479,24.838189381519005,55.663213939863034
1761284083.809138,-10.394578008664533,0.08577152352681845,0.8226830353571692,-0.3084598121544708,10.780725425486805,37.968437805263555,54.105675004238456
1761284083.8191404,-9.912852086214022,-0.04953656968959743,0.80938079961499,-0.33650190625195164,9.101215981528055,48.357563085964095,51.73929519846099
1761284083.8292418,-9.518758421440216,-0.17573523681247355,0.8035166020767374,-0.35747481915078544,7.581871255574185,55.26517899344158,48.6846275009655
1761284083.8391576,-9.207726991156285,-0.282660103517065,0.804233042721363,-0.37051396383583657,6.294681465557159,58.34009625155229,45.09313144308947
1761284083.8491495,-8.968815916256554,-0.36267785062570485,0.8108109019580694,-0.3750932696065839,5.319836275265495,57.6269304788957,41.14201145834545
1761284083.859219,-8.785780269186521,-0.4112938495017772,0.8226219461673644,-0.3711464820064738,4.721070639391579,53.52834311777863,37.026577146662916
1761284083.8691235,-8.638685713041333,-0.42737778924615544,0.8390234379813564,-0.35918869852269497,4.525717298367947,46.7295700483356,32.95095562119377
1761284083.8791454,-8.50588857538092,-0.4129902648839805,0.8592469106193982,-0.3403787687608084,4.713992949228438,38.096495927242266,29.118123717093862
1761284083.8891318,-8.366133197118888,-0.3728456181218517,0.8823241804479846,-0.3164806471651964,5.219123782003548,28.561711058846146,25.720076940662782
1761284083.8991363,-8.200479161547229,-0.3134965544771706,0.9070723571654337,-0.28971233973248856,5.937195331621536,19.014030523572345,22.9286236404331
1761284083.9108934,-7.993784873554412,-0.24236779410285372,0.9321377914513768,-0.262502434706247,6.7437104941510135,10.205640661492007,20.88696491262342
1761284083.920814,-7.735553704042756,-0.16678949627148099,0.9560846624874337,-0.23719845969518918,7.512984140852551,2.6876405797535967,19.70205390382238
1761284083.9291296,-7.420086051858524,-0.09317777247637793,0.9775091876455826,-0.21578511631024186,8.136617377612623,-3.2201616267767457,19.437776730192994
1761284083.9391198,-7.046036621532583,-0.02647659623415671,0.9951621163448002,-0.19967076143532556,8.538113836153345,-7.424942311908742,20.109211911610753
1761284083.9491117,-6.615597146068855,0.030081923723955194,1.0080654546201995,-0.18958443519413462,8.681861889961153,-10.027072983140974,21.678518870911486
1761284083.9591258,-6.133571623966601,0.07490936088457922,1.0156108674495339,-0.18559579511083457,8.575864629925539,-11.265878899797572,24.05327975902626
1761284083.969121,-5.606578701668585,0.10775349814839244,1.0176265520375658,-0.18723680012152358,8.26852665170526,-11.456077651045396,27.088256398846955
1761284083.979178,-5.042527017809652,0.12925491685166846,1.0143988563656974,-0.19367971152090344,7.840426697002479,-10.926032550411922,30.591416961458084
1761284083.9892042,-4.45039737086979,0.1404793814745042,1.0066376324141775,-0.20391875173346607,7.392363287073345,-9.967069992907478,34.33468291025909
1761284083.9991689,-3.84026154149828,0.1425244571256723,0.9953820700104689,-0.21691229755472824,7.031164900357617,-8.799900435042694,38.06918178441636
1761284084.009374,-3.223394978826392,0.13627003563591666,0.9818556235199921,-0.23166262105198773,6.8549003523553855,-7.560409703725234,41.54399022602463
1761284084.0191722,-2.6123124433300173,0.12230408293769696,0.967291150552884,-0.2472333152620841,6.939219262486423,-6.303490986705046,44.52660015790193
1761284084.0291817,-2.0205735614566356,0.10101372987653828,0.9527566533621424,-0.2627244783569874,7.326517305719343,-5.020751311067376,46.82283106920105
1761284084.039143,-1.4622599349629546,0.07279640229489734,0.9390156360345377,-0.2772378140416273,8.019352185997773,-3.6662261878818887,48.2937637323226
1761284084.0491788,-0.951101370885996,0.03832394310760536,0.9264527097974621,-0.2898644841474836,8.978989611701419,-2.1838156201217336,48.867495713118245
1761284084.0591235,-0.49931067902732257,-0.0012130310561256226,0.9150833907681897,-0.29971691730290423,10.129198773626463,-0.5309247990365166,48.54406873842004
1761284084.069114,-0.1162631853334802,-0.043946573126303796,0.9046474061212182,-0.30600610568305064,11.364614084936056,1.3055257306525454,47.39274452134615
1761284084.0791435,0.19278167972748714,-0.08730864504054496,0.8947627002398292,-0.3081476198906215,12.56234663034106,3.302385806318043,45.541831127207516
1761284084.0891979,0.4276874447400826,-0.1281680642095814,0.885102515491923,-0.30587159975993156,13.595216175689785,5.402374760844325,43.162337401891314
1761284084.0991428,0.5939582437476028,-0.16311635052473236,0.8755573037656803,-0.2993151269527427,14.344996111852462,7.522856021770401,40.44767134861926
1761284084.1091409,0.702608672607649,-0.1888569819115954,0.8663543064449293,-0.2890820283932026,14.714304090042104,9.568259985059393,37.59221768717212
1761284084.1191344,0.7693279335831836,-0.20262897007930272,0.8581210635680456,-0.2762582984086064,14.636076726370305,11.443031903256191,34.77176703016746
1761284084.1291318,0.8130015569610428,-0.20258919189214938,0.8518876360678884,-0.26237139599728015,14.079846277708205,13.06252599385043,32.12833475079601
1761284084.139128,0.853769097694755,-0.18808766175154373,0.8490260260538921,-0.2492833734634503,13.0542899405207,14.360203840893977,29.760973192334436
1761284084.1491466,0.910881088146726,-0.15979020468794017,0.8511281965650416,-0.23901393787120162,11.605790444826809,15.29056976138182,27.722983288773737
1761284084.1591442,1.000658101383757,-0.11962793317288883,0.8598287077241706,-0.23350044525405306,9.813065855913267,15.82830782411904,26.02477855415598
1761284084.1692207,1.134841103696415,-0.07058029031116067,0.8765848420154724,-0.23431728440723198,7.778317226552706,15.964961258562402,24.640814035082688
1761284084.1791658,1.31955445025974,-0.01632625057879466,0.9024364799105189,-0.24239444540890884,5.615801583074484,15.70507293609206,23.518610082456387
1761284084.189253,1.5549933715939612,0.03917965919183991,0.9377777089528992,-0.257786333598513,3.4392017958944248,15.063767418370672,22.58796151552196
1761284084.1991417,1.8358222436087557,0.09213993523170723,0.9821759477731786,-0.27953831654799455,1.3494939872026628,14.067142904198858,21.768801421765843
1761284084.2091308,2.1521555950206928,0.13929139057335438,1.0342687411782867,-0.3056800069663835,-0.5749524294809563,12.755692005665482,20.976745573141937
1761284084.219348,2.4909104153092354,0.17817565865581136,1.0917587075587583,-0.33335166447634257,-2.284659374785919,11.189740328075484,20.125973643860643
1761284084.229141,2.8372788845744323,0.20727198778038244,1.1515193229591727,-0.3590542164352275,-3.761050001687593,9.45505772730521,19.12971871552771
1761284084.2391472,3.176083148316911,0.22598868990311013,1.2098149175934723,-0.3790040087485757,-5.014467706717655,7.666545508101675,17.899157046805346
1761284084.2491305,3.49283622653727,0.2345383555192442,1.262622323340981,-0.38956231657630314,-6.079353997690285,5.968134291081394,16.341867067238944
1761284084.2591372,3.774428097234538,0.23374445012227998,1.3060232051594676,-0.3876930215116103,-7.008195813656699,4.527580149170744,14.361224700900538
1761284084.269122,4.009453794975163,0.2248358530655053,1.3366234929580676,-0.3713863046802283,-7.865744855696594,3.525645118845215,11.858052840819813
1761284084.2793605,4.188270667197768,0.20927517377731888,1.3519515490215486,-0.33998392535952815,-8.72440558244726,3.140162156072854,8.73546175908495
1761284084.2891352,4.302896792842331,0.1886365254022226,1.3507855815686245,-0.29435764774560336,-9.660833387866631,3.526606696824321,4.9070968328949744
1761284084.2991369,4.346846420512392,0.16451463127269572,1.3333593011624933,-0.23691573084965584,-10.753050674351297,4.797778130303495,0.3081012899862967
1761284084.3091414,4.3149654663103965,0.1384343839892535,1.301395666591358,-0.17142831476506318,-12.077142375132834,7.005695440825489,-5.092703892990372
1761284084.3191497,4.2033053549823896,0.11174683513798267,1.2579338063072494,-0.10267273703200067,-13.702933900471097,10.128572496744843,-11.281340466818028
1761284084.3291254,4.009063563774583,0.08552627058906298,1.206954049910391,-0.03591894938160519,-15.688706775290248,14.064802919378511,-18.189766872848825
1761284084.3391302,3.730614659518792,0.060499024995509326,1.1528618881368946,0.02369140651369747,-18.075568459249606,18.634652074164336,-25.691089728696664
1761284084.349109,3.367643887284069,0.03702867546180112,1.0999364953483786,0.07178299875838766,-20.882339374292542,23.58930732879513,-33.600066886654986
1761284084.3591435,2.9213707235944955,0.015162924265633796,1.0518565930337436,0.10529330673468787,-24.10174574622173,28.62629374315143,-41.67972746553297
1761284084.369144,2.394818029123036,-0.005269360570642354,1.0113806513214871,0.12282905995597475,-27.698417395621547,33.409936762470714,-49.654449520985814
1761284084.379167,1.7930581223028326,-0.024529044815521924,0.980202962730066,0.12477168734089816,-31.608828685287968,37.59538466865881,-57.22900585334347
1761284084.389134,1.1233617900187391,-0.04282608350494098,0.9589643994235699,0.11312103473404399,-35.74301446474387,40.85458146428303,-64.1119151647619
1761284084.3991349,0.3951892686771585,-0.06019401108943853,0.9473786669601514,0.09111442249569125,-39.9877147363898,42.90242186523375,-70.04031288508922
1761284084.4091501,-0.38001551254752813,-0.07641312845443526,0.944431814016558,0.062696793188951,-44.210575178302044,43.52107945870315,-74.80304439073478
1761284084.4191527,-1.1892422012101458,-0.09101409836411128,0.9486150712382055,0.03194198364995971,-48.265134590625614,42.58024339487187,-78.25900293186753
1761284084.4291487,-2.018533483954198,-0.10337773319063319,0.958156854181478,0.0025277688109816773,-51.99650619701926,40.05089640057035,-80.3486137769196
1761284084.4391448,-2.853771260810147,-0.11291901664150121,0.9712274605902534,-0.022653837081258676,-55.24782517696533,36.01048035611077,-81.09739551163564
1761284084.449138,-3.681565526453582,-0.1193130291265137,0.9860979471926641,-0.04170738967026946,-57.8676004116446,30.637903753995356,-80.61148319017522
1761284084.4591887,-4.49015506798257,-0.12269986979995394,1.0012437340189484,-0.053764626132404465,-59.71800903369133,24.197846911441225,-79.06582827373293
1761284084.469149,-5.270210883633252,-0.12380329286807969,1.0153940691284857,-0.058868440021513535,-60.68390521797992,17.015154888319586,-76.68649181876454
1761284084.4791422,-6.015430649070858,-0.12391387764601405,1.0275379441687122,-0.0577636099997476,-60.68195283763213,9.441646683790923,-73.72899930057315
1761284084.4891827,-6.7228299641455,-0.12471711782518453,1.0369021471317146,-0.05165104081435841,-59.66894912024143,1.8192149533713164,-70.4551090964163
1761284084.4991806,-7.392673777811338,-0.12798394654999615,1.0429174183700876,-0.04195266895320601,-57.64818081145375,-5.55564887813362,-67.11054095984238
1761284084.5091884,-8.02804473826244,-0.13517953692714507,1.045185976935724,-0.030117437490652328,-54.67261838412296,-12.460226190053953,-63.9061479894861
1761284084.5191689,-8.634104979390665,-0.14707651582461329,1.0434592624055077,-0.017480738842787988,-50.84397946514234,-18.761787690820153,-61.004597457743046
1761284084.5291996,-9.217161310317932,-0.16346943948914866,1.037628752916503,-0.0051748537210662,-46.30720603775728,-24.4185616868688,-58.51382023329362
1761284084.5391424,-9.783677439314845,-0.18307035634009042,1.0277261706900376,0.005921141630307852,-41.240597846379664,-29.46534864595173,-56.48739000027658
1761284084.5491786,-10.339380915849388,-0.2036223951570731,1.013924812858157,0.0152054323182143,-35.84251823515848,-33.98699395378528,-54.93081289004032
1761284084.559162,-10.888585415231809,-0.22221302487016606,0.996533881361346,0.022360520338141836,-30.316058862303326,-38.08565551531711,-53.81173453395815
1761284084.5692925,-11.43379912124753,-0.2357206211399679,0.9759834478883487,0.027345697916767452,-24.853259370638785,-41.84907932566125,-53.07157869016781
1761284084.5791605,-11.975631798249129,-0.24130329112767412,0.9528064822161105,0.030373463890057375,-19.62047179438724,-45.32651367829887,-52.636242340110755
1761284084.5891433,-12.51296110687066,-0.23684131999772903,0.9276304458732098,0.03186868266863491,-14.746310544775989,-48.51668009983002,-52.42410554867704
1761284084.5991776,-13.043282507240479,-0.22126529761899583,0.9011890832875921,0.032411766664197254,-10.313392620460242,-51.3690928624075,-52.350562197613066
1761284084.6091475,-13.563151120252511,-0.19472922216663138,0.8743549989346154,0.03267023763579754,-6.354773096888386,-53.796850488836796,-52.32931290098868
1761284084.6191185,-14.068628821665618,-0.15861573736066156,0.84818055078537,0.03332602838061999,-2.855606232905474,-55.696578916455074,-52.271582745759375
1761284084.6291325,-14.555672484584143,-0.11538652383300174,0.8239245577561155,0.035007268806361326,0.23990882368998517,-56.97000722216501,-52.085052158187864
1761284084.6391742,-15.020432070741009,-0.06831028441635863,0.8030382993787376,0.03823158815576512,3.016798899706785,-57.54186737545194,-51.67447200900023
1761284084.6491299,-15.459460376447396,-0.021110666719971895,0.7870868494119124,0.043363884777154305,5.573927087124078,-57.37021574248165,-50.94560142862639
1761284084.659155,-15.869861414993526,0.022421071815133666,0.7775914229065867,0.05058715269053765,8.006714411985934,-56.44741708982886,-49.81327684308057
1761284084.6691291,-16.249416539412916,0.05880524773370909,0.7757955638471523,0.059882036886530904,10.390332544581318,-54.79238447201797,-48.21320659959383
1761284084.679126,-16.596724188477214,0.08520546404549514,0.7823806035585705,0.07101097576153727,12.766077174996518,-52.4367464834372,-46.115712710033286
1761284084.6891415,-16.911371446779043,0.09968030996740171,0.7971775213409222,0.08350723547003863,15.13353094833469,-49.40901579334678,-43.5384469388882
1761284084.6991534,-17.194128225150322,0.1013312982830798,0.8189351234701623,0.09667577593697087,17.450430152286373,-45.721259740061086,-40.55448512291298
1761284084.7097516,-17.447125864552298,0.09033350592824595,0.8452048976698819,0.1096164369031786,19.64089101952155,-41.362115621574915,-37.29246352372975
1761284084.7191498,-17.673960305175143,0.06784734692341159,0.8723942455837911,0.12127677994685877,21.611062774944543,-36.298458920103165,-33.92662235357379
1761284084.7291808,-17.879652526489224,0.035823879007034876,0.8960256856158965,0.130533415333685,23.269706749633357,-30.48610387172894,-30.656511324081087
1761284084.7392013,-18.070408617496003,-0.0032693115719327785,0.9112178743392767,0.13629118806784657,24.54999575774171,-23.8880919828276,-27.67826666989624
1761284084.7491956,-18.253147193088214,-0.04676252639280814,0.9133695947284356,0.1375837129362508,25.428266280787245,-16.49769796521315,-25.15136665660601
1761284084.7591867,-18.43479852391071,-0.0920936956827694,0.8989784128788362,0.13365970186213103,25.935773932265107,-8.36232293082638,-23.166240414142827
1761284084.7691388,-18.621422722024086,-0.13707171908535143,0.8664672111636859,0.12404824502867913,26.160822027372667,0.39605434177663723,-21.718733664711788
1761284084.779204,-18.81724009894539,-0.18006526655678426,0.8168427990904549,0.108609134578542,26.240757099531496,9.568167981127695,-20.697033641859388
1761284084.7891717,-19.023710355896817,-0.22010772712326565,0.7540051458242684,0.08758187631667048,26.345600831165793,18.856097988778608,-19.885169787507785
1761284084.7994316,-19.23882577288127,-0.2569205854150294,0.6845900929170243,0.06163976294849407,26.65662279020092,27.885380571841992,-18.984735358078904
1761284084.8091927,-19.456778833139065,-0.2908548939604745,0.617344038325685,0.03193624180724612,27.34340831663417,36.23060086468652,-17.653356447194547
1761284084.8191626,-19.66811682615291,-0.3227423758729704,0.5621359965243887,0.00011487739217963853,28.542181033003377,43.45208689893303,-15.555248563384662
1761284084.829209,-19.86041318665965,-0.3536484054159346,0.5287633012368288,-0.0317478522755942,30.337071996747227,49.139274802985675,-12.416583113919119
1761284084.8392332,-20.019390420179715,-0.3845355121787023,0.5257019067772937,-0.0612876922110792,32.74533949363722,52.955042231807,-8.076851159555321
1761284084.8492093,-20.1303477417789,-0.4158754129185508,0.5589227682321342,-0.0860889517949388,35.707434654037726,54.67491407118933,-2.527302855248051
1761284084.859316,-20.17969462069269,-0.4472790397882924,0.6308776623599279,-0.10399134945223323,39.08312047717579,54.21546468058137,4.0710036348881475
1761284084.8692503,-20.156374063439017,-0.4772330798567261,0.7397674825083087,-0.11342061272063679,42.65521555535288,51.64746645240676,11.394123743146649
1761284084.8792577,-20.05297548097215,-0.503029313870457,0.8792292189127022,-0.11367929579864296,46.14248300144352,47.191398343694715,18.987780980606185
1761284084.8892915,-19.86638470073991,-0.52094975446725,1.0385819521017314,-0.10513679616145855,49.22239351235856,41.19565626059468,26.32186790647909
1761284084.899623,-19.59789407256611,-0.5267296190990189,1.203731181377503,-0.08928017574443284,51.563001444608524,34.10068931033312,32.8591866864484
1761284084.9092267,-19.252787706590432,-0.5162638138167676,1.358736635709875,-0.06862108317663287,52.861349587195136,26.394671036175186,38.12783141259151
1761284084.9191916,-18.83950760857235,-0.48645507228457197,1.487909022668197,-0.046483063918742754,52.884093620764965,18.567640674126807,41.78548245114167
1761284084.9292734,-18.36857529800032,-0.4360356913636985,1.5781382353952282,-0.026702108988690045,51.50473675205718,11.070874737674346,43.66485343009991
1761284084.9392357,-17.851473697382303,-0.36615544638319414,1.621013049638866,-0.013257721016221021,48.73121098438218,4.286401326905636,43.79261297279004
1761284084.9491744,-17.29967832489434,-0.2805496914111754,1.6142384424478942,-0.00983059989787579,44.71775356330104,-1.4914436335181758,42.37883150939
1761284084.9591591,-16.7239696427387,-0.18520180452645704,1.5619564626095852,-0.019289824430630636,39.756442955736695,-6.063432406332861,39.77941106027232
1761284084.9693077,-16.134074871231626,-0.0875622765719224,1.4738364295222823,-0.043163989575425436,34.246713702667215,-9.324401925029402,36.43884888295556
1761284084.9792533,-15.538599771235317,0.00449068872915226,1.3631399484441722,-0.08122053981333763,28.645509329388492,-11.256276648268868,32.82402379324955
1761284084.98924,-14.945144159871637,0.08372223095485337,1.2442545983126143,-0.1313113687537078,23.405487483819826,-11.916925928786883,29.36081439341573
1761284085.0002506,-14.360471473012097,0.14444726435408914,1.1303105046688187,-0.18960067545027073,18.91236880321274,-11.42616654567723,26.384030197196168
1761284085.009586,-13.79062913512253,0.18313918322500106,1.0314018999208914,-0.2511742087800088,15.43370331907343,-9.950340348827158,24.107623383709424
