timestamp,angle,linear_acceleration_x,linear_acceleration_y,linear_acceleration_z,angular_velocity_x,angular_velocity_y,angular_velocity_z
1760682162.7055228,-25.22302825501752,-0.4126788720400393,1.0365832618290967,-0.2003676790600963,12.54096997399867,13.63802987677176,33.24278720527007
1760682162.7154067,-24.736083029736225,-0.36939204276842935,0.9956071526704589,-0.2191430403575238,13.48215103520282,12.573045876235271,36.535567152956894
1760682162.7255554,-24.229330765954103,-0.3328986853835537,0.9581455081449496,-0.23472200358542486,14.178494951237075,11.493210976448058,39.89486824249933
1760682162.7354305,-23.707865020164846,-0.30487981480974713,0.9262848557880023,-0.24770499995796472,14.62666586339932,10.423373788433748,43.073992657736596
1760682162.745385,-23.176834147434775,-0.2855718639856516,0.9014059218144695,-0.25855474433848796,14.860837693692831,9.362690097981265,45.84451866938509
1760682162.7554054,-22.640873450256997,-0.27387624107483866,0.88425354770278,-0.2674479708462306,14.94278437415891,8.287247826726952,48.027150792809266
1760682162.7654335,-22.103601688943407,-0.2676640721364054,0.8750055443514468,-0.27422783608902757,14.946134377231173,7.157373324368434,49.513376841717076
1760682162.775395,-21.567259917972407,-0.2642097412902689,0.8733135656566706,-0.2784612146284763,14.938507677351266,5.928993623852367,50.275756303067894
1760682162.7854147,-21.032553705536987,-0.260680784893408,0.8783261035438451,-0.27958109232065437,14.965808924130846,4.567726283591838,50.366459923626984
1760682162.795676,-20.498727674433976,-0.25460741317554714,0.8887273154336524,-0.27707630177750714,15.042286497276876,3.0635355841199736,49.90529720660869
1760682162.8055487,-19.963858788887247,-0.24425917154603707,0.9028259267907773,-0.2706819641931155,15.148350644954098,1.4431472434051362,49.05978801286365
1760682162.8154907,-19.425314858366292,-0.2288759640798284,0.9187082801308172,-0.26052607333261907,15.236136780530499,-0.22267676142621484,48.02070569334789
1760682162.8254523,-18.880300031709,-0.20873283964551242,0.9344407769871756,-0.2472002772240666,15.240998550377315,-1.8192542411417534,46.97681700207455
1760682162.8356142,-18.32640482902985,-0.18505104609873446,0.9482843323391361,-0.23174208641815885,15.095943071293824,-3.1964740915940193,46.09226181617679
1760682162.8454285,-17.762091338175612,-0.15979090079555977,0.9588767737380341,-0.21553525337222926,14.745667735800426,-4.185099070558118,45.489267897314946
1760682162.8552601,-17.187066615968643,-0.1353709082406269,0.965348829716711,-0.20014999803335462,14.157302405891627,-4.618851874214865,45.23785080723767
1760682162.865232,-16.602519685075116,-0.11435418165968275,0.9673583495564134,-0.18715304071120206,13.326001954342367,-4.35913493350583,45.35298754651201
1760682162.8753326,-16.01121246896146,-0.09913336833103314,0.9650469949013996,-0.17791884621912016,12.27485358908394,-3.3186065403642546,45.79865617327476
1760682162.8854308,-15.417422375926993,-0.09163802714459686,0.9589388022481853,-0.17346901509932014,11.049820838273767,-1.479791137630867,46.497261838184144
1760682162.895233,-14.82674082416402,-0.09308986507743267,0.949809250769614,-0.17435871337182543,9.711362770624165,1.0945237593513377,47.34243532359405
1760682162.9055107,-14.24574265322431,-0.1038361171971806,0.9385557138408068,-0.18062028963816112,8.32478508758668,4.261201344913526,48.21304665203569
1760682162.9151993,-13.68155329776241,-0.12328792643922197,0.9260942234624817,-0.19176623301333312,6.951294003533923,7.807509134690964,48.986506694996955
1760682162.925303,-13.14134861255858,-0.1499745710594568,0.9132943146374515,-0.20684629521332323,5.641252125035936,11.471534036228107,49.549947058516345
1760682162.9354794,-12.63182523838853,-0.18170264756247775,0.9009478755413955,-0.22454743026552318,4.430447128646467,14.96956619621589,49.8085304671947
1760682162.9453087,-12.158679733994074,-0.21579184945656574,0.8897561514104403,-0.24332206968330866,3.339449781279755,18.02671720734952,49.690780093382756
1760682162.955394,-11.726134496561487,-0.24935123797382133,0.8803166595882511,-0.26153133493235875,2.3755068378682296,20.40664081336868,49.151280714744374
1760682162.9654174,-11.336548304458573,-0.27956096717208784,0.8730990001479652,-0.2775933939229361,1.535995103401749,21.936510944247118,48.1713323154878
1760682162.975282,-10.990148480807756,-0.3039299943458976,0.8684103184632505,-0.2901295026159939,0.8123120061047853,22.524261399132804,46.75815600258869
1760682162.9853153,-10.684918652884459,-0.32050700253414427,0.8663609078801768,-0.2980987440457051,0.1931963810672536,22.166271692468673,44.94314224559206
1760682162.9952755,-10.41666928012086,-0.3280291613104165,0.8668441279159419,-0.3009080791895865,-0.33319146945256983,20.944981891624092,42.779465532249716
1760682163.0056376,-10.179306728352973,-0.32600191711217413,0.8695420752999192,-0.2984809003037923,-0.7786421308953495,19.017204486450563,40.339206634667484
1760682163.0154579,-9.965299814350226,-0.31471100147048436,0.8739611632198931,-0.291268695401989,-1.155466966675435,16.595068833620033,37.70995057208619
1760682163.025254,-9.766319077564743,-0.29517263037322544,0.8794930010908668,-0.2801981211764218,-1.477659867247066,13.922432067430726,34.99071275651133
1760682163.0352755,-9.573993994632291,-0.26902924432389225,0.885489365561393,-0.26655806223182443,-1.761914785273927,11.250027091927896,32.28704753764719
1760682163.045299,-9.380701788431743,-0.2383980488470334,0.8913382402796178,-0.2518441747251552,-2.0278958139867305,8.812467984908288,29.705342842566036
1760682163.0552924,-9.18027803363133,-0.20568047418052543,0.8965308952288337,-0.23758721364301366,-2.297494236791161,6.8095511105806565,27.34656380132497
1760682163.0655713,-8.968535526656682,-0.17334460230533213,0.9007154500841021,-0.2251925538721182,-2.593204393576551,5.3932962922210965,25.29995874780066
1760682163.0752938,-8.743501394270284,-0.14369938118083203,0.9037372275156877,-0.21581152093131353,-2.936051094126396,4.661128749828386,23.637341900092075
1760682163.085409,-8.505331727668205,-0.11868579026317432,0.9056682013177711,-0.21025412646660946,-3.3436137932538874,4.6547189163713085,22.408459024030734
1760682163.0953147,-8.25592789066053,-0.0997122848158457,0.9068265254734829,-0.2089427639681048,-3.8286143614355237,5.363399122458451,21.637686162391486
1760682163.1056426,-7.998342289789703,-0.08755714921250518,0.9077836054010213,-0.2119005466869606,-4.398335913431341,6.730797983105616,21.322035581789613
1760682163.1155138,-7.736104534705291,-0.0823481247612021,0.9093522986270942,-0.21876598164723318,-5.054922462539927,8.663335287530446,21.430274096129
1760682163.1251607,-7.472608855584908,-0.08361375846214571,0.9125477857891244,-0.22882559640137465,-5.796452541421503,11.039425123298304,21.902965666154124
1760682163.1353621,-7.210681332605719,-0.09038850158521682,0.9185143024671558,-0.24105704923484353,-6.618600309845208,13.71856074938935,22.653410556075805
1760682163.145348,-6.952400374313678,-0.10134798327525303,0.9284164658750155,-0.254178002939103,-7.516661611642213,16.549827094279273,23.56967253278145
1760682163.1553519,-6.69918480751642,-0.11494973832382968,0.9433014738229879,-0.26670130399390574,-8.487692119816458,19.379731387243687,24.51805278718722
1760682163.165296,-6.452100561867743,-0.12955682184332362,0.9639457380875583,-0.2770031913334794,-9.532461590535155,22.059479938158205,25.348406658043324
1760682163.175444,-6.212285273436498,-0.14353016151497267,0.9907055300672698,-0.2834148747171011,-10.656871253917194,24.451900771123423,25.901582346361014
1760682163.185315,-5.981367221301458,-0.15529062251650735,1.023395179105616,-0.28434604523243107,-11.87242752099888,26.438115224169678,26.01901306705821
1760682163.195186,-5.7617665010874966,-0.1633668442603287,1.0612161357276817,-0.2784415952659867,-13.195355964624119,27.923852466377113,25.55416533900622
1760682163.2053158,-5.556803269878584,-0.16645129429349925,1.1027537224417943,-0.26476220987353793,-14.644029793089773,28.84505784482344,24.38518942433261
1760682163.215433,-5.370585211431646,-0.1634815072920641,1.1460466206577355,-0.24296795114083805,-16.234614312056205,29.172236914040276,22.42777676206369
1760682163.2258618,-5.207691841407817,-0.15374929130391835,1.188721436937666,-0.2134731141033086,-17.975188975387756,28.912859360411804,19.646936202062214
1760682163.2354836,-5.072709973680198,-0.13702386327757746,1.2281758395104618,-0.1775328695383991,-19.859043937698544,28.111177448746425,16.06618053180518
1760682163.2453768,-4.969699739084234,-0.11366205668857707,1.261790642515573,-0.1372224647988408,-21.85824850643947,26.845028639855904,11.772485916591162
1760682163.2553256,-4.901683912719477,-0.0846753617968128,1.287151932610713,-0.09528317239460248,-23.918825854597955,25.219577582301408,6.915380782099162
1760682163.26544,-4.870256100623893,-0.05173083450763642,1.3022653934209898,-0.05483531130296037,-25.958845615181612,23.35842394500544,1.6987300366713896
1760682163.2754002,-4.875395399882862,-0.017076437535295946,1.3057443871186551,-0.01898982393082385,-27.870427899292284,21.392901860895467,-3.635622564216245
1760682163.2854111,-4.915553817358575,0.016605624576136697,1.2969517726524045,0.009583461307525859,-29.526078599166844,19.45055368959853,-8.832055294773667
1760682163.2954502,-4.9880450482946985,0.04640578194246454,1.2760756760630116,0.02905676543416055,-30.78907748168672,17.643621278991915,-13.65128791011416
1760682163.3056405,-5.0897101005936785,0.06943835044608845,1.2441248441685833,0.03873760344192581,-31.5269998553061,16.058120574651372,-17.902721285746335
1760682163.3153937,-5.217774287203388,0.083117465132982,1.202840728800156,0.03918855966365033,-31.626978443202784,14.743961567566894,-21.473912861414387
1760682163.3252707,-5.3707547191661655,0.08543160062351389,1.1545376045105682,0.0321332643278662,-31.01096710978371,13.70685711438229,-24.351618201960594
1760682163.3354354,-5.549242959435842,0.07518441548067445,1.1018936459132782,0.02014811300881681,-29.64899221105005,12.90327880812627,-26.629557134459784
1760682163.3456562,-5.756386233336198,0.05216975799067427,1.0477223007688783,0.006188256202751675,-27.568258718789032,12.240015528965975,-28.49999353759188
1760682163.355416,-5.997927648192895,0.017257080264888505,0.9947541940438792,-0.006959541122970947,-24.856202336744182,11.579641803557264,-30.228952302100335
1760682163.3654635,-6.281737592045143,-0.027625255547759717,0.9454544826613216,-0.01718114771993242,-21.656227487540793,10.752482929148345,-32.11778062805938
1760682163.3754458,-6.616863672992165,-0.07961502745993818,0.901888732067059,-0.02338548411323046,-18.155861219112936,9.574775647669515,-34.45619562536887
1760682163.3857021,-7.012228454997878,-0.13515541033080392,0.8656357101917418,-0.025622718220120754,-14.56824182077434,7.8718645055928125,-37.473618500259555
1760682163.3954387,-7.475190987823,-0.19035077235964815,0.837735238950117,-0.02494525624022966,-11.109110961382948,5.504411355143556,-41.29636173116001
1760682163.4054034,-8.010232928421038,-0.24142234734876747,0.8186585506505946,-0.02304906775332173,-7.972588748871073,2.3945887746610257,-45.91800222835908
1760682163.4152212,-8.618008683828073,-0.2852086384828344,0.8082961233131079,-0.02178768484773318,-5.309636283872562,-1.4518929102489668,-51.18884329353077
1760682163.4256666,-9.294910946133813,-0.3196132445295388,0.8059674937444082,-0.022681141687939145,-3.212873480797413,-5.932873009773375,-56.827632860325494
1760682163.4354908,-10.033185552935942,-0.3438881976767714,0.8104638365748551,-0.026537638464198415,-1.7102175156189514,-10.85063342441116,-62.45498219018874
1760682163.4452486,-10.821533592048151,-0.35867227460114276,0.8201357572255035,-0.0332694348201775,-0.7679661065739579,-15.929446004381743,-67.64401771925434
1760682163.4554718,-11.64608583582942,-0.36576681306795783,0.8330349875895287,-0.04192897500478015,-0.3020476733960581,-20.849297570030483,-71.98057924083058
1760682163.4654756,-12.491611224335704,-0.36769636937571004,0.8471079455608769,-0.05093399852759714,-0.19474077547167518,-25.291285770672857,-75.1233302086247
1760682163.475311,-13.342808290391305,-0.36714837711418663,0.860423122529327,-0.05840901031109182,-0.31356008725907025,-28.986619672725993,-76.85378648875334
1760682163.485513,-14.185523327043256,-0.36640898621913237,0.8713990117916478,-0.06255676771314388,-0.5292342264934877,-31.759220134476216,-77.10768077809763
1760682163.4953587,-15.007750580147398,-0.3669116978370343,0.8789909620973508,-0.061986947099779005,-0.7304723768721417,-33.552361870826076,-75.98220393320965
1760682163.5054007,-15.80030519013749,-0.36899303850387083,0.882797412788554,-0.05595623496281168,-0.8341340895117734,-34.43281307696657,-73.71804166392197
1760682163.5152104,-16.557116897336773,-0.3719073896505125,0.8830593827047515,-0.04449755184682095,-0.7902240800829144,-34.5709333622467,-70.65988033474348
1760682163.525666,-17.275159462421676,-0.3740967194036095,0.8805502614507665,-0.02842934897838097,-0.5817835941273055,-34.20082401440813,-67.20307584911006
1760682163.5354123,-17.954090500022065,-0.37365336872856936,0.87638009681653,-0.00924543953677965,-0.22030010011576429,-33.56921808568905,-63.7364841920136
1760682163.5454059,-18.595714898936208,-0.3688713987547174,0.8717593317022507,0.011100453769364523,0.262239267638221,-32.88413223613914,-60.5915496604703
1760682163.555354,-19.203395359456398,-0.3587646488517366,0.8677721500256589,0.030483298922853688,0.8230920565809432,-32.2739816622213,-58.00572533445653
1760682163.565525,-19.78151661270311,-0.3434392917252327,0.8651992567371753,0.04692004140690331,1.4185091133495278,-31.765209965508163,-56.104739814725505
1760682163.575384,-20.335072388951733,-0.3242409553658921,0.8644125062891324,0.05885133953632604,2.011807414740154,-31.282314564625416,-54.904071640652674
1760682163.5853815,-20.869396775068306,-0.30364348194882396,0.8653469621646315,0.06534159195213594,2.5785791147306845,-30.669477789204237,-54.32630613349703
1760682163.5955107,-21.390015892419633,-0.28489833456115954,0.8675420225454044,0.06616759299256893,3.1085794365366235,-29.72880836744392,-54.2286243899912
1760682163.6051903,-21.90256134278087,-0.27151012177451095,0.8702336891536172,0.061794252368594746,3.6045829652718684,-28.267211092273886,-54.433819425691354
1760682163.6153603,-22.41266935695965,-0.26663574771078324,0.8724779574347036,0.05325972326268066,4.079067027577138,-26.142640408692458,-54.75883048483278
1760682163.6256013,-22.925791787535346,-0.2725177324486346,0.8732900646950176,0.04200287027588308,4.549855212912793,-23.30112758388576,-55.03646684070857
1760682163.635519,-23.44686734310611,-0.290055345752624,0.8717892162178069,0.029663701434075818,5.035807713637946,-19.79821561850659,-55.12826874578748
1760682163.645419,-23.979840480206718,-0.3185902844534399,0.867337105672795,0.01788042400418384,5.553354136424604,-15.80160927935055,-54.9287851420734
1760682163.6554043,-24.527063118975178,-0.3559392864814834,0.8596516545579986,0.00810211968680941,6.114283559082163,-11.575147151671157,-54.363411677109085
1760682163.6653252,-25.08865938157701,-0.39865470681466025,0.8488710915147661,0.0014341714081618569,6.724884951502796,-7.447006123812565,-53.382911746221765
1760682163.6752725,-25.661965176707625,-0.44245340292967145,0.8355446972569568,-0.001467901850337761,7.386319478077714,-3.7670813693533547,-51.95767281249027
1760682163.6854408,-26.24116659292698,-0.4827382895773747,0.8205396633191566,-0.0004430566917009615,8.095946257171821,-0.8597746699556373,-50.073841846603415
1760682163.6953022,-26.81725184849713,-0.5151435436262276,0.8048772033498289,0.004200344675103346,8.849144485277252,1.0209504001604623,-47.73222438277809
1760682163.7052455,-27.378360296197894,-0.5360478709152556,0.7895360519074581,0.011777950290399526,9.64101524189938,1.7275423491481574,-44.94967008738009
1760682163.7155623,-27.910558965086945,-0.5430075656357947,0.7752752865316513,0.02137665377386324,10.467352626438108,1.2403540681409053,-41.761812511380356
1760682163.72554,-28.39900689588235,-0.5350634717372589,0.7625242908316298,0.032028859722629234,11.32454585836938,-0.3285678566628437,-38.225531350596825
1760682163.735482,-28.829391803349186,-0.5128829336750813,0.7513682588011005,0.04288060045968252,12.208518873035693,-2.7496373485294225,-34.419405191645005
1760682163.7452245,-29.189459638849765,-0.47871470628503154,0.7416313331758979,0.053321105610953955,13.113196215550161,-5.7051127747588275,-30.440765762221865
1760682163.7554085,-29.47042093691465,-0.4361576486650489,0.7330355969076829,0.06304812917398409,14.02910848716004,-8.828717350017353,-26.398714320631413
1760682163.765413,-29.668015388305804,-0.3897656978858602,0.7253991048959187,0.07205590365029164,14.94258448203796,-11.749259615754912,-22.40345828455199
1760682163.7756555,-29.78304920064072,-0.3445305475354855,0.7188307862693492,0.08055095674340754,15.835650517002023,-14.131911825716596,-18.553329169588643
1760682163.7852607,-29.821289724175394,-0.3053020603279756,0.7138807311894815,0.0888201564880826,16.686474791360165,-15.711732296240106,-14.921622042822277
1760682163.7954555,-29.7927036097163,-0.2762210937544384,0.7116083630835442,0.0970864670894792,17.470088865682982,-16.31570612595078,-11.545800812629459
1760682163.8053205,-29.710138575781233,-0.2602408557329435,0.7135396446558498,0.10538623192156396,18.15916520194882,-15.871673324400177,-8.42153809974728
1760682163.8155663,-29.587646203325928,-0.2587974598226614,0.7214997830604722,0.11349011170976234,18.724730483054316,-14.404649864797781,-5.503420728198456
1760682163.8255126,-29.438701470441995,-0.2716635337710674,0.7373285153445301,0.12087486830121816,19.136811370714053,-12.022848426185641,-2.7129682895749747
1760682163.8353214,-29.274584934469512,-0.2969900846591678,0.7625074775563513,0.12674170096504514,19.36516880754084,-8.896848866212443,0.04691333810892922
1760682163.8455179,-29.103159511597195,-0.33152035080104975,0.7977508165016262,0.13007291157373904,19.380473020555026,-5.235720492102709,2.873411280992329
1760682163.8553874,-28.928207041919073,-0.37094888091188993,0.8426294798985282,0.12972132959574512,19.156424338245845,-1.263538756790391,5.844615989366805
1760682163.865222,-28.74940224086335,-0.41039532512174137,0.8953134148747872,0.1245302674511685,18.673322886147837,2.8011227585955565,9.003330789665803
1760682163.8752398,-28.562904269027694,-0.4449578475071981,0.9525180510072302,0.11347989375664143,17.92333780910692,6.761233140112045,12.346986480194948
1760682163.8855567,-28.362451218554703,-0.4703012802589737,1.0097243227253547,0.09584807797938244,16.91717753387373,10.452411623991953,15.825540112278194
1760682163.895346,-28.140764002743637,-0.4832202569610093,1.0616992878235336,0.07136424991551625,15.69106371250654,13.749365320430819,19.3476764289832
1760682163.905528,-27.891017975046278,-0.4821016960480375,1.1032757532687514,0.04032863735836841,14.31204915291337,16.568241551045396,22.79409427509608
1760682163.9154272,-27.608135923164348,-0.46720165808402403,1.130262041976693,0.0036693316084133636,12.879126317369685,18.865447860554767,26.035433544489063
1760682163.9254186,-27.289698422510476,-0.44065810303190883,1.1402729452645153,-0.037082926431661174,11.517669512197493,20.63333980544904,28.951683609869434
1760682163.9354064,-26.936345815534086,-0.40619284382195253,1.1332445172530694,-0.07990872835743622,10.365903950648002,21.89320052621654,31.449839776536233
1760682163.945404,-26.551640517025827,-0.36851763541237187,1.1114577020899388,-0.122493909747298,9.55433071740154,22.686304235010596,33.47711608558855
1760682163.9553618,-26.141451031266925,-0.33254071162189086,1.0790440173909115,-0.16248199389236148,9.181774617542914,23.064433761024425,35.027949396548955
1760682163.965314,-25.71299676277667,-0.3025409973723921,1.0411192516263998,-0.19775403723498913,9.293802103664754,23.081598269763944,36.14405627277203
1760682163.975607,-25.27374306058157,-0.281500165947065,1.002805411344738,-0.22669580851667592,9.869531860242512,22.788465320351822,36.90781209013859
1760682163.9852421,-24.830348221310963,-0.2707394695381743,0.9684068219060337,-0.24840551531015068,10.82097363732149,22.230120991597712,37.430219456933216
1760682163.9953563,-24.387835781243652,-0.269915727364416,0.9409129966132705,-0.2627963763395128,12.00567269373176,21.446566978822652,37.83562256024068
1760682164.0054965,-23.949105344639225,-0.2773297025024209,0.9218636334983146,-0.27056330611556045,13.249888292357856,20.47441009900182,38.24583765281819
1760682164.0154808,-23.51482043769985,-0.29042840365619943,0.9114944428394262,-0.27301295029879785,14.376979236121409,19.347931761409374,38.766267525350855
1760682164.0255039,-23.083640486702667,-0.30635715372736755,0.909028180224556,-0.27179293807340427,15.23476931471105,18.098259149374996,39.47584600989313
1760682164.0355878,-22.65270933199919,-0.3224331371879108,0.9129880728056019,-0.2685842340581222,15.716464766955651,16.750456319927494,40.421574194254745
1760682164.0456302,-22.21828177739849,-0.33645687159726156,0.9214657087382977,-0.2648275785618495,15.771741036692656,15.319535397011279,41.61734912183156
1760682164.0554948,-21.77636518255472,-0.34683763587353905,0.9323358590683988,-0.2615397278373325,15.40718720576419,13.807174553337601,43.04608080973946
1760682164.065323,-21.32327412413883,-0.35256597756574337,0.9434465080535713,-0.2592457727886575,14.677647671763436,12.201032331006948,44.66387656385764
1760682164.0756161,-20.856036165157022,-0.35310248032693425,0.9528120050140135,-0.258021546699199,13.67156199435857,10.477928712238452,46.4052530360353
1760682164.0852346,-20.372632659973615,-0.3482565192800956,0.9588108863944169,-0.25761468765596696,12.49393258891583,8.611014314167,48.18871253820523
1760682164.0953581,-19.87209504602821,-0.33810493350730453,0.960360849446954,-0.2576008529019778,11.250164486948487,6.579751711488039,49.92240079095339
1760682164.1054463,-19.35449496634754,-0.32296290154905677,0.9570313820312158,-0.2575345508367159,10.03307323409535,4.380538628974161,51.50983556464932
1760682164.1154351,-18.820867112136085,-0.3033872313454717,0.9490640869160977,-0.2570670583997966,8.914235814127899,2.035444269050959,52.855820975096485
1760682164.1252263,-18.27309532168517,-0.28018066953803666,0.9372933264856873,-0.2560184630203362,7.939859923121104,-0.4031069879132572,53.87263886799413
1760682164.1353028,-17.71378326983364,-0.2543754685291919,0.922984352814671,-0.2544016871214711,7.130625536015486,-2.852942315967663,54.48644542370332
1760682164.1454859,-17.14612434273913,-0.2271921165945312,0.9076241757049984,-0.25240329556335284,6.484543450754795,-5.2080919979140194,54.643530038684425
1760682164.155444,-16.57378044581083,-0.19997993210880227,0.8927068530215058,-0.2503306810820012,5.981734232606529,-7.34905010095825,54.3157950510413
1760682164.1652794,-16.00077454424252,-0.17414514042666804,0.8795491586179164,-0.24853878663567278,5.590083472912144,-9.155575320427554,53.50460501347861
1760682164.1753907,-15.431395338898794,-0.15106509849656902,0.8691592369270028,-0.247351850907066,5.270903898481273,-10.51997874651759,52.2421378410617
1760682164.1852877,-14.8701057655454,-0.13198502337570725,0.8621660621092178,-0.2469960302675853,4.983974086969577,-11.35895543526139,50.5895997574594
1760682164.1953945,-14.321443440504547,-0.11790198778653756,0.8588056508072386,-0.24755587381402636,4.6915812928494045,-11.622410792176023,48.63212196243905
1760682164.2053962,-13.78990335400176,-0.10945525018592091,0.8589527457305525,-0.24896102292688976,4.361431900127038,-11.298296443062364,46.47074766078564
1760682164.2153313,-13.27979970836932,-0.10684964959359464,0.8621837378279059,-0.2510013126079469,3.9684716766448123,-10.413093364404233,44.212503351385045
1760682164.2252564,-12.795110610627523,-0.10983215326740528,0.867856764392399,-0.2533625119318854,3.4957587161668098,-9.028161383483354,41.95997588928428
1760682164.2355363,-12.339313156005398,-0.11772585714471184,0.8751973423175757,-0.2556730907601761,2.9345629456511295,-7.232630674357039,39.80196051950963
1760682164.2452612,-11.91521684960698,-0.12951143338321558,0.8833816349400115,-0.2575533107048586,2.283858019835303,-5.13380251346671,37.806553491480585
1760682164.2556043,-11.524801702255907,-0.14393845146217377,0.8916128904307384,-0.2586600599444843,1.5493509742036533,-2.8461736197773493,36.01759305837758
1760682164.2652433,-11.169066705135242,-0.15964828077188728,0.8991884602754621,-0.2587239349594388,0.7421715412653979,-0.4802461243692546,34.45473537901448
1760682164.2756493,-10.847898509488058,-0.17529532074865123,0.9055553245255062,-0.25757842626136274,-0.12267712691156499,1.8677449764644067,33.11682311713276
1760682164.2856162,-10.559979473582125,-0.1896605712570957,0.9103521428524588,-0.25518286506096804,-1.0280104772844454,4.124164546495808,31.98767702170986
1760682164.2952187,-10.302763290900884,-0.20175551831604796,0.913435928226621,-0.25163985660255,-1.956195182063361,6.2435379760647365,31.043099474338753
1760682164.305611,-10.07254705266581,-0.21091225854275159,0.9148916496426065,-0.2472052405740592,-2.890821127816207,8.210772366004486,30.257768613469462
1760682164.315274,-9.864656133224642,-0.21685002088477676,0.915023966745365,-0.24228659597737429,-3.818228338536761,10.039794328760179,29.610824238743742
1760682164.3254056,-9.673735187401585,-0.21970382220531934,0.9143323439570215,-0.23742632884336337,-4.728820147935883,11.768717055272072,29.089268390646318
1760682164.3352907,-9.494113632592498,-0.22000225411416646,0.913473432571238,-0.23326644317541734,-5.6180876317727035,13.452012895517788,28.688751828268582
1760682164.3454008,-9.320197417379577,-0.21858915025466033,0.9132164357536989,-0.2304927420344479,-6.487241319741362,15.15051528824572,28.411787392187072
1760682164.3553514,-9.146836408380794,-0.21649504413787998,0.9143969823588751,-0.22975702636537257,-7.343313572845387,16.920374896258817,28.26382013354399
1760682164.3653674,-8.969627537154716,-0.2147745542694081,0.9178726074408635,-0.23157879088253464,-8.198588148230579,18.802299993455993,28.24783762590907
1760682164.3755085,-8.78513236692727,-0.2143322129813404,0.9244790143915954,-0.23623350024857243,-9.069268811299311,20.81245920082902,28.3583300103357
1760682164.3853602,-8.591006944936268,-0.21576106538732664,0.93498239416353,-0.24364071253152653,-9.973441263099842,22.936269951049038,28.57545326053995
1760682164.395614,-8.386056502220741,-0.21921678387892835,0.950021336201103,-0.2532691177996769,-10.928588718045692,25.12594755475229,28.860250040159183
1760682164.4054644,-8.170235830108819,-0.22434663100125998,0.9700341123398938,-0.26407620713195984,-11.949112445836189,27.30223482526927,29.151739633799412
1760682164.4155297,-7.944617639461969,-0.23028722009953653,0.9951734646086438,-0.27450029418493416,-13.044393473052642,29.36029258754183,29.36656570044254
1760682164.425437,-7.711345536543865,-0.23573673013554391,1.0252196178812776,-0.28252426334701713,-14.217856285817,31.179362755858236,29.401659822729393
1760682164.4352741,-7.473576860675637,-0.23909716524732633,1.0595100996193736,-0.2858310373624149,-15.467261394818284,32.63546736906121,29.140053126255324
1760682164.4452236,-7.235408267124236,-0.2386730571952881,1.0969087758200826,-0.28206299793535405,-16.786114873484802,33.61599908678067,28.459591645851972
1760682164.4554818,-7.001769200138223,-0.23290558395403854,1.1358333903241116,-0.26917583757979563,-18.165730866874643,34.034586519560165,27.2439298553671
1760682164.465519,-6.778268171528328,-0.22061447418801128,1.174349770654331,-0.24584435753334638,-19.59721806714326,33.84418230423058,25.394826245024085
1760682164.4755995,-6.570983388887818,-0.20121473095298484,1.210324444783376,-0.21184527099345465,-21.072564959356864,33.04609187430338,22.844470480037142
1760682164.4854157,-6.386200022706371,-0.17487398484435937,1.2416120960592378,-0.16832458163426114,-22.584122916917313,31.692825017753137,19.566354760227448
1760682164.495438,-6.230108278939434,-0.1425820092374509,1.2662464667001725,-0.11786400682585624,-24.122134435497205,29.883359110015483,15.583091164166753
1760682164.5056803,-6.108487642181592,-0.10611730857906891,1.2826052187140662,-0.06429288351736911,-25.670456805930268,27.75066436043817,10.96961260804692
1760682164.515245,-6.026412465881147,-0.06791398696810308,1.2895283465136902,-0.01224262671971635,-27.20117099377394,25.442949705204978,5.8504248244522445
1760682164.5253673,-5.988021033491008,-0.030848545749580764,1.286381597035318,0.03350053421614062,-28.669229994759494,23.101627175179303,0.3900655130013779
1760682164.535354,-5.996390764931579,0.002025925483923973,1.2730676719350607,0.0687359977607885,-30.008598680094497,20.839963939404853,-5.223238883336703
1760682164.5454438,-6.05355235461569,0.027771706756752924,1.2499967913539756,0.09054170052336029,-31.131381284102808,18.72641353626349,-10.799517631579352
1760682164.5554416,-6.16065401406852,0.04386135446434704,1.218032670671412,0.0977776105851348,-31.93116575611951,16.775621489453393,-16.171977187341753
1760682164.5653687,-6.318257334283557,0.04845133647515794,1.1784291732127368,0.0912894291400929,-32.29124559777805,14.948389330224591,-21.221044196533462
1760682164.5756109,-6.526716362183972,0.040604330968514304,1.132767970632633,0.07375981604754855,-32.09756534602094,13.159999761072907,-25.8931059641951
1760682164.5853148,-6.786569466298717,0.020425260744911883,1.082900247559119,0.0492263853385228,-31.25522902753138,11.294803813391475,-30.2098952079928
1760682164.5953388,-7.098864854716243,-0.01092047831653797,1.0308874052573902,0.022356816242936815,-29.706300225756735,9.224192995380212,-34.26576965299951
1760682164.6052582,-7.465347417259646,-0.05132342911051546,0.9789299095934466,-0.002374389259524847,-27.44565032481891,6.82507602143152,-38.21214954674176
1760682164.6155207,-7.88845567775663,-0.09797436487913981,0.9292736467632944,-0.021439586191806713,-24.53119452320659,3.996579761913667,-42.23069462827735
1760682164.625637,-8.371107357882622,-0.14770284850900542,0.8840894470802485,-0.03278915395991879,-21.085395013224435,0.6736191217941002,-46.498917114973985
1760682164.6353118,-8.916281664401584,-0.19735266802657997,0.8453297208070341,-0.03605860976889279,-17.286505933647394,-3.1631477514096487,-51.1534092326321
1760682164.6457047,-9.52642953897631,-0.24412252411174298,0.8145734728579397,-0.032426207572606315,-13.350311266772785,-7.481067216488675,-56.25648764245493
1760682164.6555192,-10.20276091896125,-0.28580396460679397,0.7928775084918955,-0.024176826581028397,-9.505336059984236,-12.193269201782872,-61.771775766934994
1760682164.6656706,-10.944478167045105,-0.32087695919499054,0.7806568455845494,-0.01409179505625266,-5.965962134920434,-17.161309010483244,-67.55315576902274
1760682164.6752996,-11.748052110188898,-0.3484706625744767,0.777618664483466,-0.004812835964837362,-2.9081433134041843,-22.20359757959291,-73.3498403022348
1760682164.6856594,-12.606664880407594,-0.36824063708844396,0.7827701127320117,0.001683537901160848,-0.4515338311122658,-27.10982345285856,-78.82824037734567
1760682164.6953952,-13.509955950058286,-0.38023238535971327,0.7945112429477135,0.004407856892148246,1.3497603756475818,-31.660214640758372,-83.60894079293122
1760682164.705529,-14.444190212617764,-0.3847895390883416,0.8108106515527176,0.003439367925306476,2.5073546969451646,-35.64715475718405,-87.3146156930054
1760682164.7152581,-15.392915627220104,-0.38253284429008694,0.8294440839346173,-0.00021479125459026354,3.090695865301936,-38.89603037479746,-89.62254456265418
1760682164.725669,-16.33809937610257,-0.3743973704607587,0.8482594336431892,-0.00492541610834353,3.213099216339657,-41.28243398776573,-90.3140265182208
1760682164.7354772,-17.261639780518074,-0.36168448331873804,0.8654220385052114,-0.008833403592941214,3.014193307275693,-42.74358302924253,-89.31277260641093
1760682164.7458212,-18.147065497919563,-0.3460728323580397,0.8795971975853822,-0.010246002359422232,2.641346127177912,-43.282557318081665,-86.7054224803101
1760682164.755388,-18.981175281654963,-0.32954328897443397,0.8900413434068226,-0.00796480454851653,2.2324478682530535,-42.96466349791515,-82.73969790090028
1760682164.7657833,-19.755359320982226,-0.3142038228732142,0.8965935536298477,-0.0014925633226796071,1.9020039198591077,-41.90620885301998,-77.79918648808501
1760682164.775367,-20.466384208143438,-0.30203985441209236,0.8995798532851697,0.008908138089173376,1.7318865968486838,-40.257309817283605,-72.35779533735236
1760682164.7856421,-21.116509074377404,-0.29464477377176224,0.89965961124678,0.022302138959854476,1.767345738737157,-38.181680916894166,-66.92061522183353
1760682164.7956138,-21.71290967992324,-0.2929916512823683,0.8976507515344403,0.037285067105585885,2.01809069383098,-35.83701712014259,-61.96035298591399
1760682164.8052523,-22.26649692812054,-0.29729333962527776,0.8943660088595247,0.05225275815366821,2.463606404001809,-33.35920133158194,-57.85908183627983
1760682164.8153925,-22.790306437946775,-0.3069741018440908,0.8904810202998383,0.06567834072070144,3.0614952249625826,-30.85226390719053,-54.86383480223491
1760682164.8252475,-23.297692525184733,-0.32075124473398153,0.8864443411052129,0.07634403634996638,3.757524677237003,-28.38437533192575,-53.06195388606378
1760682164.8355453,-23.800577979221796,-0.3368094039471181,0.8824325948349144,0.08349181793782708,4.496065182838861,-25.988872512602246,-52.37877102639145
1760682164.84556,-24.30799333657554,-0.3530465238163979,0.8783498887005732,0.08687992122127847,5.2296149325678725,-23.668844254914394,-52.59683268580747
1760682164.8555062,-24.825092112573333,-0.3673702468555071,0.8738682370927054,0.08675349766939545,5.9261606250631855,-21.40409517033305,-53.393001731226065
1760682164.865509,-25.35275762887412,-0.37801372018953155,0.8685035555740364,0.08375180756107599,6.573323881400054,-19.15991452579522,-54.387640342473404
1760682164.8755388,-25.887829808276486,-0.383820007452825,0.8617171777523674,0.07877890333215881,7.178673797797587,-16.897413708921597,-55.19878418081295
1760682164.885247,-26.42388762806149,-0.38443020616720425,0.8530258512473969,0.07286105986168576,7.766228765822282,-14.584922514686367,-55.493777270537464
1760682164.8955433,-26.952440104142074,-0.38032262010969287,0.8420990479268375,0.06700718418337331,8.369903152160829,-12.209185163281383,-55.03127890540175
1760682164.9055457,-27.464321514653665,-0.37269270658491294,0.8288265700484125,0.062083739426631764,9.02527520336891,-9.784384817160396,-53.68794402758308
1760682164.915287,-27.951065075453812,-0.36321283918379327,0.8133501472364603,0.05871483036981672,9.761350241737851,-7.356854763104729,-51.466401819914196
1760682164.925275,-28.40604437132416,-0.35373678899917654,0.796062298028684,0.05721779272509227,10.593865993588897,-5.003863185768846,-48.484147587794574
1760682164.9354184,-28.825217772269028,-0.346008452240695,0.777579137311099,0.05758216638646823,11.521214736376123,-2.825918228929552,-44.946069143361456
1760682164.945605,-29.207379919803167,-0.3414154130320648,0.7586927486157653,0.059495945675725616,12.523434602482988,-0.9333750966516915,-41.105883888074416
1760682164.955686,-29.55390840721742,-0.3408148526868441,0.7403069445596226,0.06241839931290605,13.564131731442274,0.5705201401674714,-37.223246390258865
1760682164.9655535,-29.868083377088425,-0.34445465515321605,0.7233595303958773,0.06569244204992145,14.59474850924744,1.6069956758128248,-33.523494727740456
1760682164.9755876,-30.154136751178857,-0.3520053425699208,0.7087360568346297,0.0686808450126217,15.560338256463202,2.136097858628569,-30.166037132201556
1760682164.9853334,-30.416234236186373,-0.36270001189351014,0.6971858212891804,0.07090157085663891,16.405923949218046,2.1652538948408635,-27.225538581778174
1760682164.9954247,-30.657590473658278,-0.3755527000948202,0.6892577048594875,0.07213214173095693,17.082543199906766,1.7506830298798395,-24.68775568450393
1760682165.0054998,-30.87986684692516,-0.3896018379941235,0.6852745462733008,0.07245539375847006,17.552180144775253,0.9918569662433966,-22.459497278223882
1760682165.0156486,-31.082922234831944,-0.4041167099799876,0.6853566596196399,0.07223183503531716,17.7909896684162,0.020460781198347953,-20.390092021990675
1760682165.0254989,-31.26490645075406,-0.4187169508941631,0.6894910402917187,0.07200439560097799,17.79055327551132,-1.014000615209969,-18.3001940972287
1760682165.0354645,-31.422625851610462,-0.43338301417170655,0.6976282187289055,0.07236064126061924,17.557305299455784,-1.9596459238770672,-16.01298147576907
1760682165.045354,-31.552080562206893,-0.4483667877460056,0.7097777414856817,0.07378645727231113,17.11061327722389,-2.676617396504783,-13.382902784124989
1760682165.0552826,-31.64907033258782,-0.46403439117441964,0.7260692490805108,0.07654168575281849,16.480185225266474,-3.0487539628670026,-10.318001957737893
1760682165.0653932,-31.7097788333009,-0.4806812100279868,0.7467512418448137,0.08057684258605904,15.703462518678663,-2.991381777686328,-6.793210351740025
1760682165.075734,-31.73126089616462,-0.4983541381173857,0.7721134239942955,0.0854975293744416,14.823458692654865,-2.454709316540378,-2.853506917097072
1760682165.085503,-31.711771147549555,-0.5167079112343582,0.8023381277418826,0.09057492616767553,13.887196837016894,-1.4230505091188586,1.3927690134183637
1760682165.0954826,-31.650893723612644,-0.5349203147210531,0.8373072968038412,0.09479877749175328,12.944581230950835,0.08918385282391258,5.789060323143463
1760682165.1055248,-31.549466526057078,-0.5516924768546569,0.8764087216191502,0.09697067004544542,12.047304800991478,2.0432811052074333,10.151981673803064
1760682165.115541,-31.40933333186541,-0.5653560034929711,0.9183944988044191,0.09583450102043088,11.247307242738582,4.382257744571949,14.296181795789101
1760682165.125418,-31.232990355528283,-0.5740932898895468,0.9613437812790983,0.09023446808889846,10.594382219349159,7.035934312517865,18.059573941126803
1760682165.135509,-31.02320924928925,-0.5762518539430669,1.0027696581275787,0.0792804566175032,10.132765143485404,9.924548017617433,21.32574672523892
1760682165.1455219,-30.78270913740476,-0.5707021225772998,1.0398853849667158,0.06249177716004675,9.896857932729743,12.961138091384994,24.040558695821602
1760682165.1555538,-30.513919251972265,-0.557160965505068,1.0700069623249484,0.039888830332194425,9.906576309537677,16.053463086445582,26.220436444085344
1760682165.1655545,-30.21883831760696,-0.5363954298203363,1.091018872247761,0.012012567938970448,10.163040631239614,19.106327169158636,27.950780434360077
1760682165.175455,-29.898977449577302,-0.5102400421086185,1.1017813856791745,-0.02012808549704369,10.645413150417408,22.024824175753192,29.374111213428826
1760682165.1853483,-29.555374872636467,-0.48139992461817377,1.102342335248414,-0.055160932858643937,11.30963621895907,24.718277785448304,30.669049907184313
1760682165.1953793,-29.1886804082254,-0.45305969192163786,1.0938633822124084,-0.0914814275817424,12.089719950028158,27.103976126829327,32.022728222984824
1760682165.2054787,-28.799310749273083,-0.4283662633342798,1.078274401676912,-0.12739386060400537,12.902082256990338,29.109665559143924,33.6005039393246
1760682165.2157214,-28.387667881844592,-0.4098904653233971,1.0577784774391332,-0.16125953389190414,13.653170677205605,30.674323835028872,35.51764030288621
1760682165.225516,-27.95439554934117,-0.3991824823995242,1.0343836250019594,-0.19164915137222152,14.250080090508964,31.747599204380656,37.81767745472768
1760682165.235491,-27.500629717211442,-0.3965143105367543,1.0096106923364916,-0.21748413454761328,14.613121409916301,32.28890445340086,40.46147378470266
1760682165.2454486,-27.02818788011055,-0.4008574174149831,0.9844412318068747,-0.23813901590496692,14.688469401029048,32.26716897982976,43.32933489019561
1760682165.2554648,-26.539645246932228,-0.4100903611325802,0.9594700257219566,-0.2534777048024202,14.458426169159868,31.6617713350328,46.23644538700049
1760682165.2654822,-26.038263451051495,-0.4213822324919386,0.9351571125526252,-0.2638123145993759,13.9467869920219,30.4645577889436,48.95935697547286
1760682165.2753034,-25.527765229826688,-0.4316656466207155,0.9120569607194948,-0.26979546387039743,13.21746207638257,28.68244145813875,51.269130072227
1760682165.2854838,-25.01198112280388,-0.4381056833679145,0.8909357355338295,-0.2722745394787282,12.365832674625796,26.34000038567891,52.96543710620054
1760682165.2955182,-24.4944251464522,-0.4384860263175981,0.8727481611056133,-0.2721438988815725,11.503978328126347,23.481658454943126,53.905836652262636
1760682165.3054454,-23.977878099311148,-0.4314607139010323,0.8585027373344645,-0.27022806904766283,10.742404269391795,20.173248266057648,54.025504635247884
1760682165.3155274,-23.464064041465967,-0.41665225593818167,0.8490757465502258,-0.2672165104019487,10.171759880560646,16.502859889292537,53.34465960657044
1760682165.3255284,-22.95349615458248,-0.39461013920426496,0.845035243909237,-0.2636509767603172,9.8480410558524,12.580804410208286,51.96325248225639
1760682165.335433,-22.445543692267695,-0.3666691324988152,0.8465161431901337,-0.2599475486851443,9.783967016215339,8.538289467217474,50.044662296414955
1760682165.3454885,-21.93873305939053,-0.33475272480724666,0.8531628572754266,-0.25642751165069855,9.947877226369874,4.524129287594484,47.79172422847907
1760682165.3553908,-21.43124612076254,-0.30115252037506834,0.8641389123593815,-0.2533384573669818,10.269965170523829,0.6986906579465424,45.419229339817385
1760682165.3655121,-20.921527406675285,-0.2682949698644977,0.8781966041987967,-0.25086187426844364,10.654307708772677,-2.77548334796822,43.12711289749068
1760682165.3754618,-20.408875112066816,-0.23849991077303728,0.8937994410382221,-0.24911431579236018,10.99423272657642,-5.74624398346642,41.07803117072423
1760682165.385319,-19.893883330823986,-0.21374316599036863,0.9092884005343782,-0.2481507191793105,11.18823788716217,-8.086481216668133,39.382059375338656
1760682165.3955293,-19.37863022457526,-0.19544712168196327,0.923075757229658,-0.24797345016462188,11.153924851777171,-9.70874700846157,38.08996301647471
1760682165.4055,-18.86656257088714,-0.18432906226667886,0.9338400091715897,-0.24854453643134455,10.838094856700547,-10.577168426391035,37.1950848524264
1760682165.41548,-18.36209552026756,-0.18033386527809,0.9406891909131824,-0.24979525426744661,10.222024786020244,-10.714009067658754,36.64259131155932
1760682165.4255326,-17.870007578037953,-0.18266577975721712,0.9432628694982025,-0.2516283222133196,9.321782859823658,-10.199001059673192,36.343866358381064
1760682165.4356797,-17.39474920909786,-0.1899161214250327,0.94175517607844,-0.2539123018878289,8.184106639707796,-9.16088326970092,36.19336914874761
1760682165.4461596,-16.939792959568702,-0.20026518861094117,0.9368574220612165,-0.2564723522466795,6.878801883832871,-7.762079257202498,36.08530186751902
1760682165.4556506,-16.50713604889606,-0.21172346957065286,0.9296332491121504,-0.259083507447697,5.488849703731854,-6.178728457044741,35.92787162945767
1760682165.465422,-16.097030627468484,-0.2223731306761189,0.9213486546617594,-0.26147161963938736,4.099495651393288,-4.579062443343803,35.65361544961582
1760682165.4754763,-15.707972364114102,-0.2305760833619134,0.9132839211110403,-0.2633246769931307,2.787603665531228,-3.1032870146016287,35.225024202417806
1760682165.4857924,-15.33693427645795,-0.2351260888852896,0.9065556930822714,-0.26431542569893796,1.612511131933237,-1.8477372025795142,34.63542544295282
1760682165.4954085,-14.979797065618238,-0.23533498084330937,0.9019749874495949,-0.26413550513362344,0.6094768590583097,-0.8552648979756139,33.905696295065596
1760682165.5053701,-14.631904627514176,-0.23105478052751172,0.8999598955505195,-0.26254015700742966,-0.2134891917412398,-0.112791516674573,33.07784076426404
1760682165.5153656,-14.288665321336373,-0.22264652087679976,0.9005109573281629,-0.2593993406516696,-0.8750895414040338,0.4440934829633422,32.20674952371384
1760682165.5252695,-13.946122926628863,-0.21091064008349278,0.9032458100727403,-0.2547461897423859,-1.416713499112944,0.9205205667148672,31.351531123475464
1760682165.5353513,-13.601430918258995,-0.1969923345013455,0.9074813488885906,-0.24881035655822947,-1.8956404500776147,1.4474155056224105,30.56765288127194
1760682165.5454605,-13.253176502066106,-0.1822710561474897,0.9123480589666182,-0.24202537556554524,-2.376553039058413,2.1643374142955314,29.90080315175101
1760682165.555422,-12.901516832950792,-0.1682401254894109,0.9169216532592882,-0.23500576151845423,-2.922611722983787,3.2022262151194276,29.382973909517617
1760682165.56555,-12.548110560581852,-0.15638197091965952,0.9203594791565011,-0.22849731696236542,-3.5873082466775634,4.668001715311962,29.030850439682784
1760682165.5755649,-12.195853548158844,-0.1480460611905714,0.9220312709428843,-0.22330882898715065,-4.4080992036276525,6.632536496378959,28.846236763579714
1760682165.5853455,-11.848455549871957,-0.1443381841068337,0.9216345471638416,-0.22023360718518817,-5.402472335120738,9.122968908728614,28.81797044714303
1760682165.5955234,-11.509919519873034,-0.1460295649480789,0.9192840523372321,-0.21996692449278882,-6.566692577356896,12.119711867230107,28.924614776196766
1760682165.6054282,-11.184001108618997,-0.1534918115025037,0.9155629419508866,-0.22302309866289594,-7.877100722988937,15.557930956964922,29.137185458943065
1760682165.6154044,-10.873728756750577,-0.1666598443293412,0.9115227125660382,-0.22965515430565567,-9.293567021121897,19.33279009843643,29.42128263231823
1760682165.6254241,-10.581054204643111,-0.18502175253154596,0.9086211374755316,-0.23978072820718727,-10.764560758818304,23.30744991818948,29.738237459257807
1760682165.6354976,-10.306681816548053,-0.2076330236867163,0.9085936055131757,-0.25291981906969024,-12.233265149852302,27.322686235734622,30.045198481331923
1760682165.64559,-10.050096555249409,-0.23315218360987414,0.913262579369574,-0.26815286341248673,-13.644200972000776,31.207083909913496,30.294411669190353
1760682165.655502,-9.80977831482651,-0.25989434779279014,0.9243005922147882,-0.2841105933257281,-14.949872651341742,34.787022413259386,30.432219314728872
1760682165.6655128,-9.583559172133556,-0.2858991777035813,0.9429724923649835,-0.29900892315531225,-16.116977201303786,37.89604159509155,30.39844920770945
1760682165.6754622,-9.369056778747124,-0.30901241498862325,0.9698912086080065,-0.3107417357118532,-17.1316988977877,40.38358149880051,30.12684257506465
1760682165.685496,-9.164108183468759,-0.3269851356294689,1.0048268260131563,-0.3170410655288318,-18.003548147918863,42.123397352427425,29.546987400139834
1760682165.6956987,-8.967135732207288,-0.3375984172804277,1.046609186175113,-0.3157067216217324,-18.76711342139899,43.02198407219238,28.58795079543643
1760682165.7055933,-8.777397237559308,-0.3388210867260799,1.0931565738571263,-0.3048948621614968,-19.481039319083912,43.02701084092557,27.18351360230636
1760682165.7157862,-8.595101141715705,-0.3290045581366928,1.1416446483443494,-0.2834375425648555,-20.22361533617639,42.13515574272998,25.278633425771126
1760682165.7262583,-8.421397442295453,-0.30710955670310863,1.1888012557404681,-0.25114561345671194,-21.08465207298781,40.398070143773765,22.836499524319457
1760682165.735866,-8.258279378813711,-0.27294409477334514,1.2312808001929483,-0.20903184218892368,-22.15386542099741,37.924752071198434,19.845304050750585
1760682165.745313,-8.10844373420582,-0.22737639562800882,1.2660481783783062,-0.1593878436015456,-23.506705970205214,34.87859121785278,16.323679150435336
1760682165.7556043,-7.9751571930453995,-0.17247788928157906,1.2906978350355414,-0.10566391481768818,-25.189287159917036,31.467880480832623,12.323708873224085
1760682165.7654552,-7.862163618527903,-0.11155133041795393,1.3036518061381404,-0.052136526605295816,-27.204580149045803,27.929595810616924,7.930591148375972
1760682165.775511,-7.77364548833091,-0.049005750557891706,1.3042155025818216,-0.003396477376659657,-29.502203567051662,24.507476444121725,3.258418064085989
1760682165.7854393,-7.714227194807886,0.009945296172427474,1.292508423192926,0.036264362785771186,-31.973891388712406,21.42657627772926,-1.557908557639502
1760682165.795551,-7.688985691737267,0.059758905818945114,1.2693150526618928,0.06346407224021743,-34.45612069910909,18.867248740312746,-6.374050170520711
1760682165.80543,-7.703422725884107,0.09516952549933962,1.235910688875137,0.07623480400609212,-36.74051438557133,16.941861140489724,-11.049885532327309
1760682165.8156667,-7.763356889341736,0.11184524799215047,1.1939084840477703,0.0743335374237768,-38.59159356505464,15.677430147766646,-15.464167819934582
1760682165.825535,-7.874711007014402,0.10698721536798245,1.1451542987147973,0.059303000889463914,-39.770355823717566,15.006851146737011,-19.52871589229781
1760682165.8355467,-8.043193992127158,0.07976891659200633,1.0916726148642926,0.034264890107425075,-40.06116188619556,14.770432031548745,-23.2004574890044
1760682165.8455858,-8.273898388536297,0.031542104293594525,1.035645361818168,0.0034716362156863773,-39.29870154002493,14.728098662424197,-26.489407787475177
1760682165.855376,-8.57085067619737,-0.03422088220474837,0.9793907715881908,-0.028314396471004824,-37.39151133899577,14.581196098207764,-29.46058457548731
1760682165.865424,-8.936561504260158,-0.11223866213563737,0.9253066474316006,-0.05651338060365819,-34.33869000418099,14.001660431561747,-32.228204731923086
1760682165.8755038,-9.371630489574617,-0.1959481194022772,0.875755571996443,-0.0773771471885373,-30.23709282182145,12.66574706143979,-34.94144731581733
1760682165.8853612,-9.87446516499505,-0.2781901104401575,0.8328956516668032,-0.08848765431170295,-25.277342593696194,10.289460737487463,-37.762525952058176
1760682165.895564,-10.441170020893919,-0.35197941121310244,0.7984876847988902,-0.08902620500562652,-19.72841398891966,6.663054564800304,-40.83946928120659
1760682165.905387,-11.065640604978318,-0.4112686288662308,0.7737239837752412,-0.0797778384406066,-13.912208436115076,1.6820337091463367,-44.27742606314481
1760682165.9154148,-11.739856644283252,-0.45160683676534097,0.7591185944716166,-0.0628823833958079,-8.171203492300377,-4.628250124453156,-48.11310069030166
1760682165.9254186,-12.454319971466385,-0.47060262771065664,0.7544778609287743,-0.04138558449155314,-2.8335787327479345,-12.097937453276506,-52.29690951524318
1760682165.935516,-13.198554283176192,-0.46813305784645165,0.7589462170185496,-0.01867483681852958,1.8192372415936036,-20.411751074988448,-56.68670424980305
1760682165.945436,-13.96159371276834,-0.44628402201252926,0.7711064216457831,0.0020994242530113774,5.57817763619944,-29.124977540764327,-61.05558259141875
1760682165.955635,-14.732427448802401,-0.409044670425729,0.7891109866806372,0.018517448784567018,8.322346682479468,-37.6975288583305,-65.1144254331582
1760682165.9655135,-15.500409713255284,-0.36180048629931566,0.8108295239046962,0.02922055860243765,10.023916921801153,-45.5443328514978,-68.54737650657519
1760682165.975389,-16.255664984934683,-0.3106844846336934,0.834007808621293,0.034033297791956005,10.742625961298028,-52.09710347825725,-71.0558082326071
1760682165.9855537,-16.989511362131584,-0.261860604811045,0.8564395437659634,0.03386965111555576,10.611481539335669,-56.86988304826945,-72.40405336464762
1760682165.995333,-17.694896810425774,-0.2208229294046092,0.8761465986940109,0.03045152505239935,9.815965348766653,-59.51919713575859,-72.45906953349466
1760682166.0056274,-18.36680607604018,-0.19179196315710711,0.8915532420163643,0.025899979363865663,8.569542142519376,-59.889551637066866,-71.21669443985827
1760682166.015587,-19.002565747267145,-0.17727726959303428,0.9016337039681779,0.022282360623907153,7.088668332794371,-58.03651470476254,-68.8092228573127
1760682166.0255442,-19.60196628704705,-0.17786057589144336,0.9060123680919389,0.021204224617357912,5.570524176131844,-54.22275387252693,-65.49228273335139
1760682166.0353177,-20.167140606538126,-0.19223301194327821,0.9049978637699275,0.023522678935548994,4.176150110097388,-48.886715059876835,-61.61275497527792
1760682166.0455925,-20.702184159020227,-0.2174872501175129,0.8995355171427105,0.02923167274286804,3.0205953740313087,-42.5882097190583,-57.56297865816701
1760682166.0553887,-21.212556249023958,-0.2496222280558958,0.8910720299044081,0.03753365823186609,2.170372944376353,-35.938919820914776,-53.72893468239983
1760682166.0653894,-21.704348512973066,-0.2841786591980893,0.8813445744407311,0.047071096321666867,1.6473177461210513,-29.527971332306844,-50.44097249093915
1760682166.0756493,-22.183532238011985,-0.316901187477788,0.8721274485187204,0.056255840570867376,1.437130161380549,-23.85305941481801,-47.93480519910941
1760682166.0853288,-22.655298338454266,-0.3443242034330514,0.8649815650435689,0.06361613181798798,1.50053316573102,-19.266340879853452,-46.328240055547994
1760682166.0956488,-23.123586032094547,-0.3642010519915412,0.8610482140169695,0.06808482795680156,1.7849974394198294,-15.94181677598695,-45.6160349834901
1760682166.1056855,-23.590863120456763,-0.3757297056656123,0.8609121647629937,0.0691750994318422,2.235274478064686,-13.867658482675115,-45.68208447913744
1760682166.1155946,-24.05817598575937,-0.3795597501952929,0.8645417147351191,0.06702277367852032,2.8014514436149045,-12.86341862654952,-46.32545252609914
1760682166.125558,-24.525437597740588,-0.3775925985986612,0.8713037987372124,0.06230763194234097,3.443849625492505,-12.618833950616873,-47.29499798080435
1760682166.1355445,-24.99187772433761,-0.3726117339662297,0.8800497129044256,0.05608923815565695,4.134728014463296,-12.748302338254355,-48.32666161938674
1760682166.1455665,-25.45655089458189,-0.3678003403725138,0.8892636470141263,0.04960054524430072,4.857280327115592,-12.853248623430595,-49.17786035191914
1760682166.155659,-25.91878892508748,-0.3662145352712433,0.8972573983068425,0.04403685207415991,5.602726849357789,-12.583611300756193,-49.654621153743435
1760682166.165523,-26.378496653176356,-0.3702825997370544,0.9023841665682394,0.04036704952716112,6.366411931013329,-11.68976721941675,-49.62872778510735
1760682166.1754093,-26.83622111016956,-0.3814004585778411,0.9032403038809363,0.039186292973806186,7.143811487910522,-10.05752670866474,-49.043897413189576
1760682166.1855295,-27.292971757355286,-0.39969043692868456,0.8988298153582301,0.040626181133268574,7.927290090702184,-7.721369988541143,-47.91159617854863
1760682166.1953456,-27.74982285701943,-0.4239732418725398,0.8886777074184535,0.04433627351344075,8.704296537957404,-4.854527044834183,-46.29838774133994
1760682166.2056336,-28.20737489833316,-0.4519646827752138,0.8728873141714739,0.04954433737042438,9.457396264388343,-1.7381871612687978,-44.30759411477902
1760682166.2153554,-28.665178932945263,-0.480656668510607,0.8521395293096511,0.05519089565945079,10.16611797799747,1.2846350594288325,-42.05847844938864
1760682166.2255304,-29.12123251204283,-0.5067975827786318,0.8276306514852546,0.06011964307724878,10.810134690051333,3.8627724836487807,-39.66611860345116
1760682166.235426,-29.571643891807017,-0.5273712380156398,0.8009463923537211,0.06329361052281116,11.37294517343412,5.689352230877274,-37.224665933978734
1760682166.2453892,-30.0105395233103,-0.5399917579500981,0.773877246128649,0.06400047503711348,11.845101976411327,6.544842706752641,-34.79588851893432
1760682166.2554169,-30.430260074022684,-0.5431690675191165,0.7481943863301181,0.062009848315582275,12.226205536808747,6.3246344217393125,-32.40394879046057
1760682166.2654252,-30.821848174825906,-0.5364333996584648,0.7254203952384105,0.057650623419878,12.525283008157306,5.048265310931038,-30.036403661247725
1760682166.275307,-31.175776424069305,-0.5203258642129854,0.7066389548150593,0.0517877176143195,12.759619227998089,2.8508893609748096,-27.650528588350365
1760682166.2856889,-31.482808943485413,-0.49627152739361013,0.6923868180930386,0.045694818587719385,12.952430612220795,-0.03941072602302699,-25.183361007203814
1760682166.2955458,-31.73485459085634,-0.4663623061597521,0.6826575269884115,0.040841199074703356,13.129904918154525,-3.332932798457024,-22.56348029736989
1760682166.305431,-31.925670184531075,-0.43309060917523834,0.6770219045345752,0.03863152283876466,13.318113680265663,-6.712158325874621,-19.722578343087587
1760682166.315602,-32.051308310065,-0.39908369679063366,0.6748424958727853,0.04015082482632818,13.540199583652921,-9.862660985229837,-16.605273610989393
1760682166.3255284,-32.11026463896043,-0.3668866628095457,0.6755360670665652,0.04596640954405099,13.814073700374012,-12.497532122393489,-13.176241471030966
1760682166.3355837,-32.10334715549563,-0.33882689803908983,0.6788255905636561,0.05602319309171476,14.15065923062693,-14.374023967993782,-9.424421772933892
1760682166.3453891,-32.033345788978316,-0.31696647586638255,0.684922954489741,0.06964475802562846,14.552564805429974,-15.303176828826073,-5.3646553552864855
1760682166.3554385,-31.90460944685121,-0.3031172519962223,0.6945950374233727,0.08562851428377366,15.013037470223146,-15.154500030701746,-1.0374319468526563
1760682166.3654988,-31.722630729678254,-0.2988675301718338,0.7090856986780679,0.1024069914231416,15.515142777371974,-13.858143123878163,3.4925647754031464
1760682166.3756397,-31.493701974503647,-0.3055598274978442,0.7298908491223642,0.11824025381686494,16.031291317685533,-11.406539773682484,8.138690869287014
1760682166.3855767,-31.224656397600345,-0.32417247004626604,0.7584100766278277,0.13140555150522326,16.523409852488214,-7.856485962616675,12.795323605713127
1760682166.3958566,-30.92266624436751,-0.3550922821004713,0.7955241583856243,0.14035821805704565,16.94418880378215,-3.331339029177875,17.34193216361569
1760682166.4055495,-30.595051273977862,-0.39781222703017677,0.8411707884953394,0.14385000388741648,17.23987969410604,1.9781632340898585,21.648786387953614
1760682166.4156015,-30.24905696892455,-0.450631342707673,0.8940074094070657,0.14100309913044343,17.35502159663447,7.816744733942354,25.58479960975479
1760682166.425779,-29.891582670827695,-0.5104606263971294,0.9512553083023552,0.13134650579595947,17.23921303960938,13.873519715332797,29.027668877334428
1760682166.4361153,-29.528864076841895,-0.5728395266273242,1.0088073347313742,0.11482496815464342,16.85560443286594,19.79882480592005,31.875900329727166
1760682166.4458892,-29.166135435952643,-0.632239648930887,1.061646794457637,0.09178886748429334,16.190187017097525,25.229427686225982,34.06156232407595
1760682166.4557893,-28.80731188513126,-0.6826744450608081,1.1045633017465766,0.0629671745082064,15.260274476189352,29.82070197746558,35.56184204780508
1760682166.4658048,-28.454741345014742,-0.7185520282929918,1.1330659875829643,0.02942000867958718,14.11997828030878,33.28229745391126,36.40695463707567
1760682166.4758048,-28.109077747805784,-0.7356208872116894,1.14430446413622,-0.007530329343940231,12.860246820248037,35.412051118235226,36.681986668431584
1760682166.4858804,-27.76932038184306,-0.7317950620523274,1.1377510082073026,-0.04638183203895292,11.601526895497507,36.12190782150997,36.52106599146084
1760682166.49574,-27.433043591745413,-0.7076374891755293,1.1154171188227582,-0.08553730387414726,10.47856200603029,35.450038201392545,36.09376460945317
1760682166.505386,-27.09680539536279,-0.666344146370545,1.0814942921680037,-0.12339107029362192,9.619110253841992,33.555533414504815,35.585427778903835
1760682166.5154743,-26.756679044414273,-0.6131977635786668,1.0414916221831811,-0.15843375225153886,9.120737131662638,30.69571476993528,35.17457378189713
1760682166.5256853,-26.408813737449393,-0.5546096999263938,1.0011130001524169,-0.18938835686855943,9.031289381823242,27.19007574055488,35.01117133546075
1760682166.5355997,-26.049917536100214,-0.49698490297315034,0.9651941408949393,-0.215364188460008,9.33837220335798,23.37771109109439,35.199357899390975
1760682166.5452929,-25.677575487776547,-0.4456809272560404,0.936974962077943,-0.2359845858233445,9.971007353688352,19.575871986758635,35.78718308817372
1760682166.555612,-25.29036212662113,-0.4042809095821557,0.9178477130719921,-0.2514353769227482,10.813328066766537,16.046110334689796,36.76456793772373
1760682166.5655298,-24.8877620324337,-0.37429338933819456,0.9075588869021075,-0.26240078249127585,11.726852158112555,12.972146084015217,38.069213672278856
1760682166.5753298,-24.469955059410854,-0.35527193067179835,0.9047141225454048,-0.26989125904609657,12.575697823796178,10.45100499677482,39.598963368647524
1760682166.5853543,-24.03754144482629,-0.34525126601135553,0.9073788287529897,-0.2750054057836121,13.248698026283762,8.496726886402266,41.22829370776684
1760682166.595417,-23.59127644477294,-0.3413482977398668,0.9135906318441995,-0.27869054523995646,13.673719146249676,7.054291530347341,42.82624916615354
1760682166.6055791,-23.13186434292938,-0.34037994590526416,0.9216788664318359,-0.28156649427397745,13.822035631542985,6.020405984562182,44.273195440869905
1760682166.6157343,-22.659838120144475,-0.3393885221207854,0.9303790404076887,-0.2838553030317198,13.703450668916133,5.267417808609725,45.4741889554097
1760682166.6254246,-22.175529785699197,-0.33601491459428,0.9387984636199905,-0.28542500047351604,13.355071993981783,4.666785596397324,46.36745122569013
1760682166.6355476,-21.679120434348214,-0.328703944542362,0.9463150529784597,-0.28592136475217284,12.827685923845882,4.109117425498829,46.92729845384121
1760682166.6455786,-21.17075040564662,-0.316758173782302,0.952478672271404,-0.28494079906719827,12.173445083177075,3.5186297823594748,47.16177238094465
1760682166.6557798,-20.65066803300657,-0.3002744434833135,0.9569510559539911,-0.28219419783111843,11.437404892645493,2.8608561624484743,47.10600029913504
1760682166.6656702,-20.119396678780664,-0.28000221867623615,0.9594871292022394,-0.2776229493448453,10.653820422118459,2.1434297142022616,46.81285850720759
1760682166.6758685,-19.57789987063382,-0.2571584789342875,0.9599414822759254,-0.27144712527393466,9.8465932938135,1.4106610094120635,46.34275168921663
1760682166.6857736,-19.02772284411818,-0.23322706219400596,0.9582815443268143,-0.2641454898622794,9.032260818242428,0.7333377867553115,45.7542373151639
1760682166.6953497,-18.47108867175692,-0.20976550428461466,0.9545967969212197,-0.2563818150936966,8.223629429408582,0.1956450342369815,45.09686566561202
1760682166.7057996,-17.910930709489776,-0.18823841805687017,0.9491018736291851,-0.24889993756963094,7.432495103851814,-0.11867569810940612,44.40705889392851
1760682166.7157805,-17.350849859773348,-0.1698901131495823,0.9421351352223041,-0.24241179552416442,6.670609903947407,-0.13886536346450606,43.707216436708556
1760682166.7257817,-16.79499428859343,-0.15566097607677573,0.9341527385759851,-0.2374995031451673,5.948840921194161,0.18331800839240175,43.00761404755521
1760682166.7358348,-16.24787097123678,-0.1461459795355223,0.9257137679357987,-0.23454546790459416,5.2750822706224465,0.868134558951679,42.31017024657438
1760682166.745542,-15.714111823383881,-0.14159140691038707,0.9174487403065581,-0.23369637170042945,4.651797383046141,1.9067373884870862,41.61288494482007
1760682166.7556198,-15.198227995309354,-0.14192513535828435,0.9100054274787045,-0.23486074082937228,4.074079059433378,3.263897270701377,40.913765852999035
1760682166.7656043,-14.704388438217732,-0.1468134206981879,0.9039726865766621,-0.2377364011129531,3.528890957042299,4.883539010705939,40.21334371789469
1760682166.77567,-14.236249786159748,-0.15573249143988624,0.899791449779068,-0.24186169222423054,2.995805564479237,6.695788555233686,39.5153629044954
1760682166.7855794,-13.796846251955985,-0.16803934939543014,0.8976686831758481,-0.24668202050145532,2.449185090082944,8.624241799546162,38.82577875563166
1760682166.795462,-13.388528685554295,-0.18302741908570502,0.8975136954907875,-0.25162168220005876,1.8614410255786258,10.592401135608315,38.15063627783045
1760682166.8077729,-13.012930144647811,-0.19995962770727052,0.8989160853694894,-0.25615055058721803,1.2068097156266373,12.528605184424856,37.49363912195562
1760682166.8190286,-12.670934723597746,-0.21807925229224753,0.9011796004132502,-0.2598366695914676,0.46502779399205624,14.369199833824457,36.854223302306586
1760682166.8265893,-12.36263393775836,-0.23660391879114773,0.9034160578808856,-0.26237912261098106,-0.3756226165079642,16.06007690249481,36.22676364712748
1760682166.8356748,-12.087265431862473,-0.2547119402004116,0.904690605030167,-0.26361985300933793,-1.3162581666381712,17.556993110125916,35.60122426993708
1760682166.8458583,-11.843139080158336,-0.2715337779896082,0.9041973703476145,-0.26353696921317593,-2.3465125815703574,18.82525349510872,34.96519699054383
1760682166.8556674,-11.627566020225654,-0.2861624298392093,0.901435812376572,-0.26222454076542295,-3.4448942193658647,19.839375326925023,34.30693902882636
1760682166.8653502,-11.436817419497322,-0.29769281681183235,0.8963549826302436,-0.25986477350082005,-4.580387974457391,20.58322653686533,33.618782360806726
1760682166.8753774,-11.266148362671204,-0.305292187448065,0.8894366053451389,-0.2566979097668639,-5.715265489615337,21.050884743019367,32.90015832148953
1760682166.8853962,-11.109921860357664,-0.3082932824504488,0.8816977521860437,-0.25299371849530866,-6.808995391855305,21.24816065740104,32.15946173596
1760682166.8956528,-10.961855179803523,-0.3062925074919151,0.8746078929532848,-0.2490268015744862,-7.8230085245160055,21.194454992060756,31.414082371552595
1760682166.9054482,-10.815388286549515,-0.29923023781048746,0.8699303365467177,-0.24505645168928808,-8.725877707738,20.924428083382285,30.6881777681636
1760682166.9155157,-10.664149306533147,-0.28743218270987636,0.8695111845436849,-0.24130966828481137,-9.498275528670948,20.48887228934107,30.008142495565668
1760682166.9253435,-10.502471247234594,-0.27159869605414844,0.8750467146439108,-0.23796268313353075,-10.136962112281386,19.954175299005254,29.396189521072547
1760682166.9357426,-10.325901393705799,-0.25273979603616203,0.8878609453925477,-0.2351137779234543,-10.657089670202268,19.39984039612779,28.862910270313634
1760682166.9453926,-10.131641944801807,-0.23206484212637,0.9087201732032695,-0.23274161716828726,-11.092306149708303,18.91371219933718,28.400027646390498
1760682166.9557748,-9.918868106692443,-0.210844911661449,0.9377039092150415,-0.23065036314708878,-11.492467782997513,18.584880343354783,27.974733665226385
1760682166.965336,-9.68888428542597,-0.1902694639858231,0.9741448823147967,-0.22841350674284294,-11.919163620498281,18.49469160729924,27.526977379635227
1760682166.976659,-9.445094815219335,-0.17131611177097233,1.0166450792902582,-0.22533825168659025,-12.439621629287293,18.70680760251538,26.97081582121295
1760682166.9854712,-9.192781752362281,-0.15464743672467496,1.0631686513227787,-0.22047687870528332,-13.119813876274844,19.257664240060258,26.200438585411177
1760682166.9954693,-8.938700932494116,-0.14054585907711592,1.1112047636373494,-0.21270769225941755,-14.017644824278095,20.148894384159117,25.100747117283653
1760682167.0055628,-8.690528982799,-0.1288965806851005,1.1579845400562907,-0.20089514351579715,-15.17697404651593,21.34319210666218,23.561515255516856
1760682167.015489,-8.456215667246843,-0.11922727339796577,1.2007279006664122,-0.18411835173240282,-16.622930480771657,22.764713713207296,21.49334552746008
1760682167.0255089,-8.243313742524682,-0.11080841323241707,1.236890918704692,-0.16193369205858152,-18.358616154458883,24.304461783831684,18.843059158697795
1760682167.035472,-8.058367211748589,-0.10280747312604673,1.2643845492685257,-0.13461626387602435,-20.363002294694358,25.83025332862095,15.605984475060104
1760682167.0456612,-7.906434505964994,-0.09447564357709924,1.2817408089597129,-0.10331359764033426,-22.589697736270224,27.199974197316415,11.832899485297673
1760682167.0553174,-7.7908061215002355,-0.08533409441063054,1.2882098326060725,-0.07004941278766222,-24.966359555384514,28.276121815403155,7.630050069599748
1760682167.0655415,-7.71295047068603,-0.07532278728916786,1.2837784409330275,-0.03753969431022136,-27.39477982215973,28.93939909081541,3.151546523024753
1760682167.0755455,-7.672691075658524,-0.06487786572651445,1.269108213436752,-0.00882547223731259,-29.75202782893153,29.099413735945774,-1.4155649571164324
1760682167.0855982,-7.668585777092332,-0.05491229526713158,1.2454003294418863,0.013224401547649945,-31.8933588639893,28.701181036432708,-5.8721972411411185
1760682167.0961502,-7.69844813246259,-0.04669000318781079,1.2142065723509798,0.02644687540694078,-33.657826987678675,27.726867759336514,-10.031674282633306
1760682167.1055715,-7.759928355998226,-0.04160693928782154,1.1772192513878246,0.02984167065564545,-34.877525440667384,26.192898708411253,-13.744466857701891
1760682167.1155376,-7.851062503524482,-0.0409183774853966,1.136082538512181,0.023844953072652185,-35.39095983142292,24.14314435337628,-16.91951836646151
1760682167.1256762,-7.970707774495477,-0.045469881247317115,1.0922671779046949,0.01034458764105026,-35.06016733266841,21.639402587495102,-19.53870775297318
1760682167.1353695,-8.118806163062567,-0.055490580807360405,1.0470354623797005,-0.007586200009919549,-33.789974780407434,18.75070664924934,-21.661901275143844
1760682167.145429,-8.29645039587696,-0.07049219602047763,1.0014966199351125,-0.026198222728847437,-31.546584347341586,15.543061446858726,-23.421375663557914
1760682167.155352,-8.505757009978774,-0.08929419462871506,0.9567238117366024,-0.04172463593530712,-28.371899174698132,12.071086142429687,-25.005846418731394
1760682167.165912,-8.749576822293605,-0.11017281672158903,0.9138834413683149,-0.051058605283287074,-24.389990250379878,8.372903376668337,-26.63569440105166
1760682167.1756897,-9.031091487406242,-0.1311126301026853,0.8743221424569166,-0.0523127074622035,-19.803028095130575,4.469564462063676,-28.532154477422193
1760682167.1854253,-9.353355648628803,-0.1501235998798062,0.8395678179368015,-0.04514308801946799,-14.875778540984308,0.3701190862286226,-30.884173674741113
1760682167.1954174,-9.718845306555364,-0.1655736796328432,0.8112251935579888,-0.03076871060471214,-9.91001782148774,-3.9173536961417,-33.817311917031404
1760682167.2055175,-10.12906223570451,-0.17647782173581267,0.7907776767697026,-0.011682410317734848,-5.212380430475306,-8.370124662024548,-37.36931086785587
1760682167.2156374,-10.584223877196836,-0.18268360022154634,0.779337473312549,0.008878901664204176,-1.0606385463103356,-12.934132812387338,-41.47656871990692
1760682167.2255712,-11.083048115738345,-0.18490802627853586,0.7774045014840788,0.02758201106039609,2.326173683859095,-17.511319042571607,-45.97455277153959
1760682167.235707,-11.62263547107298,-0.18461236806594708,0.7846944811505799,0.04161743731140616,4.809167468187477,-21.955992698136665,-50.61323928456402
1760682167.2456117,-12.198461273595822,-0.1837432865841149,0.8000792088006513,0.04916372439204568,6.33972055200604,-26.08337560209493,-55.08635478548269
1760682167.2555354,-12.804505729885419,-0.18440086975954753,0.8216559962787104,0.049618649737117194,6.9578025105866725,-29.690391388649765,-59.070913740848816
1760682167.2655609,-13.433551631132426,-0.18850238532064797,0.8469374711812908,0.04358305659035891,6.780113359068828,-32.585478947290795,-62.271605400274396
1760682167.275615,-14.077657102807212,-0.1974956149829037,0.8731328664139163,0.03263651689400227,5.981005584290654,-34.621676476251935,-64.46330170383158
1760682167.2857184,-14.728768932992384,-0.21215067488158781,0.8974794470605563,0.01897635161284479,4.769582897080216,-35.726115997044325,-65.5247519293901
1760682167.2957323,-15.3793964248918,-0.23243783689321876,0.9175767698713432,0.005002203966246857,3.366075854814347,-35.91955155970544,-65.45764659548946
1760682167.3055568,-16.023234368437453,-0.25748803996804154,0.9316749561426794,-0.007078294138202275,1.9799645184630905,-35.321333167280436,-64.3875284180693
1760682167.315592,-16.65561973451817,-0.2856332211373387,0.9388716670169521,-0.01556499988703152,0.7916380523978124,-34.137894497767086,-62.546053600686555
1760682167.3253965,-17.27373436319572,-0.3145311410632089,0.9391848706517048,-0.019465281737521337,-0.061222071614549255,-32.63591012983596,-60.23730674258517
1760682167.3356192,-17.876519208271752,-0.3413849029370796,0.933491257916715,-0.01856153340404377,-0.4918497485776602,-31.104269406668326,-57.79367451979578
1760682167.345379,-18.464329739655007,-0.3632600832384983,0.923347018464442,-0.013347901967083907,-0.4669438671982256,-29.811249443779985,-55.52863986629896
1760682167.355649,-19.03841838972492,-0.37747933599974964,0.9107280722383597,-0.004858088333467539,-0.0037589341683900972,-28.964171016148267,-53.694336282538266
1760682167.3655517,-19.60036315248845,-0.38204527760347523,0.8977348919788675,0.005574779042165995,0.83756433378842,-28.678203607211763,-52.450637997290826
1760682167.37566,-20.151564198360177,-0.37602148561695803,0.8863049218938689,0.01657335411381774,1.9652456999801915,-28.959158208047654,-51.850201862251325
1760682167.3856318,-20.692904430663873,-0.3597963719642448,0.8779687677787376,0.026934471500821094,3.2691793359898496,-29.702639858134162,-51.840818898129285
1760682167.3956802,-21.22462472434436,-0.3351666692775091,0.8736782985243161,0.03577317565483733,4.634717849281386,-30.70934675691432,-52.283369066947984
1760682167.4055643,-21.746413153479967,-0.3052043418687059,0.8737255678491553,0.042577472246255764,5.955441714334227,-31.713963803363598,-52.98116780507859
1760682167.4156728,-22.257661623384916,-0.2739083419544518,0.8777586262465784,0.047181922403260745,7.1436529793744015,-32.42327580673131,-53.714933343638016
1760682167.4253876,-22.757811310089032,-0.24568396860485722,0.8848828832793744,0.049684955351510615,8.137639263546294,-32.55801254078625,-54.277187390168365
1760682167.4354136,-23.24669478172698,-0.224729265634551,0.8938197513213191,0.05034221178650116,8.905174326337526,-31.892619303499153,-54.500601850542935
1760682167.4456646,-23.72478798946153,-0.21443043941267778,0.9030868052607359,0.04946662443766386,9.443248705532403,-30.287620847946574,-54.27639219769016
1760682167.4553478,-24.193306102358306,-0.2168696116697845,0.9111695334551654,0.04735744260423349,9.774560752786542,-27.710442965820977,-53.560982429416434
1760682167.4654045,-24.654108920592787,-0.232528307660509,0.9166684444998312,0.04426802371270301,9.941698478460705,-24.242287966507373,-52.371412536628995
1760682167.475465,-25.109420094652876,-0.26023536774394224,0.918417856459566,0.04040930805945246,10.000105266754716,-20.070620042883316,-50.771906648763114
1760682167.4855053,-25.5614037737393,-0.29736543821460326,0.9155789759576466,0.0359756852492806,10.010852374236887,-15.468669602892426,-48.85531556013352
1760682167.49566,-26.01167366041742,-0.340248492582584,0.9077094355327319,0.031175329346630615,10.034027047788733,-10.764853535048228,-46.723552779535844
1760682167.5053525,-26.46082375601299,-0.38470972131091075,0.8948064310148544,0.026250018420857557,10.123288327232727,-6.306013124024512,-44.47060789052342
1760682167.51541,-26.90806426578439,-0.42663645215681917,0.8773145448639412,0.02147887051855826,10.321893934549193,-2.4189201890752834,-42.170490219481565
1760682167.525462,-27.351025286481125,-0.4624745588377704,0.8560863226332736,0.01717063611575234,10.660255771696226,0.6253406851441345,-39.8710137289536
1760682167.5355055,-27.785763100363976,-0.48958653973205346,0.8322877481156467,0.013653275161308705,11.154836161006035,2.63977716512453,-37.5931166854043
1760682167.545547,-28.20697321108494,-0.5064416172491798,0.8072543455565315,0.011265404449699281,11.808010217448748,3.539180919610682,-35.33458355904686
1760682167.5556378,-28.608380770546784,-0.5126407071017893,0.7823227992701909,0.01034631068787466,12.608482230922116,3.3450795894128182,-33.07656519500064
1760682167.5653954,-28.98324581923678,-0.5088010252090425,0.7586771700655109,0.011216401643387513,13.531987078117034,2.1778688842555707,-30.791123664891074
1760682167.5754027,-29.324897890014956,-0.49633972828895334,0.7372493762812163,0.014141751000438074,14.54225967216964,0.23805472159903773,-28.44815394422117
1760682167.5855997,-29.62721351164784,-0.4772067345855002,0.7187000948500439,0.019283140936133286,15.592489779446785,-2.219852912658833,-26.020437204934982
1760682167.595507,-29.884973690779574,-0.4536202927164237,0.7034834171028452,0.026637606590739403,16.627586310360453,-4.916369988646715,-23.48618357844708
1760682167.6053858,-30.0940767619633,-0.42784872768211163,0.6919732887910764,0.03598588470730903,17.58749314072477,-7.574580634829347,-20.829108314938328
1760682167.6155934,-30.251619288840583,-0.40205952406939366,0.6846107053192103,0.046860884360550144,18.411532262396847,-9.942679681139246,-18.03673731742454
1760682167.6253443,-30.35588239092653,-0.378233005929666,0.6820245208175405,0.05854944539929339,19.04339754307428,-11.809534712325567,-15.098149228969646
1760682167.635385,-30.406270891292767,-0.358122069778629,0.6850844357549647,0.0701326110604473,19.436148856611922,-13.012984968684515,-12.002610758356806
1760682167.6453986,-30.403251482419517,-0.34323291631848357,0.6948564803092274,0.080560707448408,19.55647903459317,-13.442017992143528,-8.74042381501756
1760682167.655688,-30.348325314419146,-0.33480078212848313,0.7124472362857186,0.0887514830800854,19.387633982768385,-13.03487524816491,-5.306717417628073
1760682167.6653783,-30.244050146547764,-0.3337390790549028,0.7387451101034407,0.093694461724703,18.93058610335597,-11.775457985414135,-1.7079683409601243
1760682167.6754158,-30.09410119313277,-0.3405529430455791,0.7740942868455162,0.09454371405133374,18.203362262083978,-9.690105020461367,2.0300341858237427
1760682167.6855998,-29.9033345188636,-0.35522694068501764,0.817963794140642,0.09068450991696933,17.2388112595108,-6.845925702528366,5.854925496553502
1760682167.6955447,-29.677798529488324,-0.37711465818304163,0.868692724763209,0.08176594943244204,16.081499563481675,-3.350595609823187,9.683709915459561
1760682167.7053728,-29.42463497214642,-0.40487055879813205,0.9233964168620967,0.0677009118893833,14.78468161816043,0.647731670890689,13.404101510331143
1760682167.7153943,-29.15182689283096,-0.43646912485976674,0.9781028400675984,0.04864455977653153,13.408214841018161,4.962498926170056,16.882454936597796
1760682167.7253883,-28.86778379735605,-0.4693462097281359,1.0281513943858518,0.024968331877846722,12.017813557894664,9.374857082209054,19.97801137215953
1760682167.7353756,-28.580789745564648,-0.5006665688522683,1.0688288560862775,-0.002756442151723291,10.685290368679233,13.645020880139846,22.561615708351077
1760682167.7457385,-28.298365000604196,-0.5276771286549284,1.096147460633939,-0.03376004839531095,9.488684128034137,17.52871647524823,24.535816189489093
1760682167.7562327,-28.02660509207213,-0.5480703527416287,1.107606035410132,-0.06706386676193804,8.51071535982635,20.79707771975559,25.85265941351916
