timestamp,angle,linear_acceleration_x,linear_acceleration_y,linear_acceleration_z,angular_velocity_x,angular_velocity_y,angular_velocity_z
1760959267.7872553,2.60656355727121,0.0951809418459627,0.9665716273000144,-0.17282469291082214,3.180236453650188,-4.384537724142936,12.341547902810815
1760959267.7974124,2.8580291352519964,0.09732741878196179,0.9668423903215672,-0.17385379153606845,3.0230750314222057,-3.488151699813955,13.211303420979215
1760959267.807584,3.100729727876327,0.09521003864090843,0.9673202304176296,-0.17416049622187124,2.7966984013077707,-2.3070910535614,13.81899573144373
1760959267.8171525,3.3227071087528155,0.0889526800342265,0.9680645207742998,-0.17356741897455674,2.506179129822807,-0.8952357936118177,14.16143250728315
1760959267.8272529,3.5138069193877493,0.07903479830826457,0.9690633306267562,-0.17197487791880614,2.1607527088118923,0.6715705991568972,14.255178242331658
1760959267.83728,3.666451409539761,0.06624171960879481,0.9702377486467894,-0.1693721115610216,1.772817632761235,2.304663281362152,14.133255594158078
1760959267.8471735,3.7761428432964697,0.051581309820068096,0.9714573196079718,-0.16584383979800793,1.3564946591928888,3.9127540670220324,13.840499487995356
1760959267.8572319,3.8416544815886993,0.03617725853438148,0.9725638326486475,-0.1615708917066607,0.9259274601083272,5.411824928124393,13.428189299621774
1760959267.8672166,3.8649023284573447,0.021151786313455132,0.9733997409585903,-0.1568232072139806,0.4935843639885529,6.733476083372062,12.948649244809374
1760959267.8772523,3.850527026277608,0.007511661325532927,0.9738366507553139,-0.15194392285918012,0.06885940862151751,7.830756360813312,12.45047543999347
1760959267.8871393,3.805246979877249,-0.003949163404805366,0.9737990517624802,-0.1473246142864556,-0.34275387732095675,8.680884522358783,11.974918029413152
1760959267.8973017,3.7370682612575306,-0.012718622760132097,0.9732789201100402,-0.14337355080077274,-0.7397345717533859,9.284710806963265,11.553741454103031
1760959267.9071975,3.654452490847299,-0.01859807941240765,0.9723381990119236,-0.14048012316347205,-1.1238110923542504,9.663203117032225,11.208648269059445
1760959267.9172673,3.5655475295303622,-0.021691164830403575,0.9710987911211061,-0.13897912908004212,-1.4985605629851846,9.85161571426185,10.952123336816292
1760959267.9271867,3.4775740736111675,-0.022350848366541193,0.9697230274638253,-0.139118677749398,-1.8675952148475916,9.892270083327837,10.789366831882354
1760959267.9371746,3.396435200510115,-0.021092182921859826,0.9683898044479105,-0.14103513585752855,-2.232702328153466,9.827020046233317,10.720857531031042
1760959267.9471388,3.326581423806597,-0.018483130657762813,0.9672713411699916,-0.14473748148504784,-2.5923397227531435,9.690473192956787,10.745031315010879
1760959267.9573374,3.2711267437217013,-0.015028886224406623,0.966513602308026,-0.15010198325338403,-2.9408505271769174,9.504904266799631,10.860571631279987
1760959267.9673448,3.232174647386882,-0.011066819908921435,0.9662220266530451,-0.1568771295715286,-3.2686548293848285,9.27754673579792,11.067882464850758
1760959267.977219,3.2112799802264558,-0.006689282636112408,0.966454486650136,-0.16469843951980986,-3.5635164168860665,9.00062177870372,11.369443283910933
1760959267.9874809,3.209949523941748,-0.0017084613343687186,0.9672243331595448,-0.17311257647692707,-3.8127876558149896,8.654100478226573,11.76892328504222
1760959267.997328,3.2300796881378595,0.004329738894732582,0.9685155347015352,-0.18160936592324814,-4.0063202884867275,8.210839425712251,12.269152293219328
1760959268.0071971,3.274247472568445,0.012085069000877297,0.9703080341881746,-0.1896587331188823,-4.139519966062179,7.643427555411148,12.869288465592252
1760959268.0173707,3.345803307397427,0.02232474385960489,0.9726064932479853,-0.19674780214072943,-4.215877493562291,6.931866462206168,13.561738062899286
1760959268.0273635,3.4487482230789546,0.03579927479029375,0.9754633263912958,-0.20241260041368347,-4.248313987463429,6.0710844554092755,14.329495194360925
1760959268.0374117,3.58740496538806,0.05310418862911169,0.978988920848758,-0.20625996681522948,-4.258875481877863,5.077244146784419,15.144525597430393
1760959268.0473301,3.7659132392838544,0.0745406769664818,0.983346467948566,-0.20797822161690216,-4.276665243886827,3.991840948318842,15.967623133208335
1760959268.0573766,3.9875953054997266,0.09999037326622326,0.9887333820859642,-0.2073386049809992,-4.334310922492669,2.882720328571248,16.74987371951826
1760959268.0673459,4.254250443406744,0.12882119883600238,0.9953541333622357,-0.20419185694157482,-4.463625285322529,1.8413820496286675,17.435538281530924
1760959268.0771947,4.565448262441743,0.15984267367239913,1.0033892413947445,-0.1984648036802597,-4.691348392776669,0.9763016247824099,17.96588973533129
1760959268.0874407,4.917906601065509,0.19133041232275957,1.0129621899449193,-0.19016073189856159,-5.035890481424125,0.40249621296899935,18.283388602472254
1760959268.0973134,5.305058797508617,0.22113751292252215,1.0241025842637521,-0.17936538887444825,-5.5057943816809205,0.22818655715815445,18.33560964948845
1760959268.107587,5.716925564681696,0.2469004857476924,1.036703417199186,-0.1662577130516498,-6.100220999196766,0.5400816965810848,18.07851316377984
1760959268.117389,6.140393311890789,0.2663285244665152,1.0504741958889159,-0.1511205214725176,-6.811217114272448,1.38938552950724,17.47888652472537
1760959268.1274233,6.559954743856009,0.2775414650959072,1.0648984647169115,-0.13434276452094784,-7.627016516770063,2.7809157809121015,16.5159605025477
1760959268.137218,6.958889754132983,0.27939990850332164,1.0792112557719111,-0.11640545508522111,-8.535364347066462,4.667591456895495,15.18229476473027
1760959268.147251,7.320767350692228,0.2717581281801352,1.0924158579537195,-0.09784977740268878,-9.525972483915764,6.9519038179148565,13.48404468337596
1760959268.1573002,7.631058043159275,0.2555741249628528,1.1033559797867833,-0.07923381513085444,-10.591636445317244,9.494863838834165,11.440683212208434
1760959268.1673405,7.878592965114087,0.23283543356489522,1.1108463888833877,-0.06108750283389974,-11.72803719020992,12.131509984287844,9.084170782693604
1760959268.177456,8.056615951702534,0.20630079645705435,1.1138449647504391,-0.043872638677227654,-12.932604571525397,14.690717877174935,6.457479695075299
1760959268.187174,8.163250843922425,0.17910406332277032,1.111630599351999,-0.02795003013570319,-14.202954922641247,17.016151117658055,3.6123480436659925
1760959268.1972954,8.201322994926254,0.154298723304924,1.1039456793216937,-0.01355311120520409,-15.535362219324544,18.98495812792948,0.6062062072831867
1760959268.2074592,8.177590424502123,0.13442686574440826,1.0910731097996909,-0.0007680304608653979,-16.923560759488925,20.52128565966162,-2.5016326060286365
1760959268.2172601,8.101526568220313,0.12118000592064375,1.0738370464542362,0.010476787668760045,-18.357991282125475,21.602713178832985,-5.654264561698379
1760959268.2271929,7.983847603925631,0.11519631569741937,1.053530092415214,0.02040553583762973,-19.82544094784143,22.259052472646538,-8.801586036709613
1760959268.2373505,7.83499995203212,0.11601820431305446,1.0317747207326453,0.02936736193684701,-21.308907947020938,22.5642828297103,-11.904297107186014
1760959268.2471454,7.663820486045403,0.12221336770438486,1.0103317004703845,0.03778160498219366,-22.787462159585182,22.62343262734845,-14.93696413322722
1760959268.257154,7.476549378264848,0.1316372970962841,0.9908790318127688,0.04605756335888715,-24.23590407685629,22.55681000686714,-17.889603617857862
1760959268.267434,7.276312147334223,0.1417892614508261,0.9747964464387461,0.05449984097677493,-25.624161688834576,22.484064767930292,-20.76740274237299
1760959268.277276,7.063102353183618,0.15019582988995087,0.9629946650199481,0.06322062337839056,-26.91658606334887,22.510166180193718,-23.588474713868965
1760959268.2873046,6.834208332956418,0.15475345331356102,0.955821393590974,0.07208582114255468,-28.071546146683247,22.714661066197937,-26.3798767160805
1760959268.2972455,6.584959093402212,0.15397656364244608,0.9530589901633885,0.08071631747646048,-29.041883351583998,23.14477127220287,-29.172389737715342
1760959268.3072252,6.309632817055046,0.14712481444286976,0.9540082042264819,0.08854862309841667,-29.776746332144434,23.812220550903,-31.994707107520263
1760959268.3171601,6.002377916152702,0.13421068053173682,0.9576365660096526,0.09494091102729824,-30.22501053216327,24.69326573042672,-34.86770819373439
1760959268.3273058,5.658028015262241,0.11590670140649062,0.9627627592637171,0.09930073840670282,-30.33997284267891,25.731247960795486,-37.7994577887042
1760959268.337194,5.272732659118696,0.09337995343708069,0.9682471956875854,0.10120947869633541,-30.08453094962414,26.841009156015282,-40.781500642554846
1760959268.3473198,4.844365380887864,0.06808544228951859,0.9731598947405455,0.10051865914583052,-29.435829740043697,27.91465912916554,-43.78689629426278
1760959268.3571799,4.372705964146326,0.041552404128080374,0.9768989994386172,0.09739352258096999,-28.388435327281282,28.828368270127285,-46.7702444001402
1760959268.3671627,3.8594214437685697,0.015195494725516885,0.9792401019581416,0.09228661266331868,-26.95540294018775,29.450033067002327,-49.66971810956348
1760959268.3771243,3.30788800781835,-0.009825797049244828,0.9803107435130991,0.08584437989632265,-25.16705636590203,29.647745563122818,-52.41091036037943
1760959268.3871627,2.722902487921393,-0.032689655724813985,0.9805029668442394,0.07877467998624182,-23.067807077981232,29.298953498244913,-54.91212938231374
1760959268.3971508,2.110329174783689,-0.052939850830386936,0.9803512987381662,0.07171685333655117,-20.71176372095435,28.300031068220292,-57.09065138655499
1760959268.4071956,1.4767192010954784,-0.0704708955728688,0.9804068563560556,0.06515069771277923,-18.158088792353308,26.575713567277248,-58.86936065121208
1760959268.4171984,0.8289305102066793,-0.0854833956959547,0.9811304228608111,0.059360796137766805,-15.46703072158017,24.08752562039041,-60.18319298349904
1760959268.4271936,0.17376992465289504,-0.09841815266275253,0.9828154148999851,0.054450609731138445,-12.697325590303626,20.840055802102995,-60.984833481435274
1760959268.4372613,-0.48232449207428724,-0.10987287145401269,0.9855433352144699,0.05038810411119585,-9.905247551662855,16.883853756822838,-61.249175311000776
1760959268.4471753,-1.1335444458938049,-0.12050440264729642,0.989171424320412,0.047064167572800686,-7.1450806409892795,12.31397105023454,-60.97610648932365
1760959268.4571977,-1.7749015541091129,-0.13092207870275546,0.9933514363483432,0.04435002620146753,-4.470356653586176,7.263748704371461,-60.1912624886145
1760959268.4671848,-2.4023355867084057,-0.1415817363404936,0.9975763124676712,0.04214384148633848,-1.9349922176884653,1.89426205917443,-58.94449203686648
1760959268.4771204,-3.012734848544226,-0.15269452378909099,1.001247413882833,0.04039986883885594,0.406497618583279,-3.6193373962885467,-57.30596507988001
1760959268.487286,-3.6038701644851647,-0.16416806166526818,1.0037509338533477,0.03913831276332668,2.500259816002289,-9.102709741583585,-55.36011942404162
1760959268.4972146,-4.174252885528343,-0.17559625934048317,1.0045309685505537,0.03843954294855526,4.295955161217972,-14.396278830735287,-53.19797378532749
1760959268.50719,-4.722935983656475,-0.18630571072475258,1.0031492336151016,0.03842992188694514,5.750840970696873,-19.366206547689675,-50.90866465365049
1760959268.5172036,-5.249284327696397,-0.19545364244053806,0.9993254152933012,0.039266551439496165,6.834349793422232,-23.910885941224993,-48.57130295402599
1760959268.5273426,-5.752745415316672,-0.2021609043556037,0.9929560959677926,0.041125006088998425,7.5322722076531035,-27.962299148986737,-46.248317803840855
1760959268.5371964,-6.23265501376192,-0.2056581591935015,0.9841148297539963,0.04418947933625745,7.849729173113902,-31.482547983570477,-43.98131726739087
1760959268.5472188,-6.688112070948764,-0.20542348835073643,0.973039923492521,0.0486415574847733,7.812346438289944,-34.45673791470025,-41.79014862218162
1760959268.5573232,-7.117951611622083,-0.20129077946577675,0.9601155904770396,0.054643567617302435,7.465312322045403,-36.88400400350063,-39.67532757347992
1760959268.5672197,-7.5208315155743595,-0.1935099537594693,0.9458473657364718,0.062314032272521316,6.8702777132434445,-38.768669380344726,-37.62341040354453
1760959268.5771787,-7.895430448709807,-0.1827468962903577,0.9308316767743402,0.07169461743809258,6.1003697605018505,-40.113283909011415,-35.61431966222694
1760959268.5872147,-8.240734237942362,-0.1700238908842884,0.9157242616136706,0.08271049317591501,5.2339150119403755,-40.91470947366027,-33.62924465459322
1760959268.5972135,-8.55637136358739,-0.15661391370221972,0.9012141608841273,0.09513054741378899,4.347701969678887,-41.16368876485855,-31.657651901574443
1760959268.6072114,-8.842947686014424,-0.14390815591232486,0.8880032258917873,0.10853969483951256,3.5106642245973005,-40.847623261358144,-29.70219896945447
1760959268.6171901,-9.102327112687856,-0.13327596113317705,0.8767808483878201,0.122339301501848,2.778719713932699,-39.95569491958875,-27.780862714895374
1760959268.6272292,-9.337808963309705,-0.12593321568693855,0.8681790433133322,0.13578989800461494,2.1912212207254416,-38.48505745614584,-25.926205373681913
1760959268.6372697,-9.554163598699976,-0.1228308237420159,0.8626978474522187,0.14810162814521932,1.7691622860463199,-36.446645836150076,-24.18225034009105
1760959268.64742,-9.757503662942153,-0.12457007396529014,0.86060400355254,0.15856400640559692,1.5150411268497852,-33.86923895572299,-22.599817976130566
1760959268.65744,-9.954987034201704,-0.1313482603638391,0.8618246665437895,0.16669051913740662,1.414154428256008,-30.80075821384682,-21.23132196244903
1760959268.6672783,-10.154367887284373,-0.14293744935177474,0.8658765455302977,0.17233884864997193,1.437042743238452,-27.306339915382154,-20.12593163396586
1760959268.677231,-10.363433325780125,-0.15870043083532864,0.8718750054172194,0.1757609028312378,1.54279780502311,-23.463381820132767,-19.325706856438032
1760959268.687323,-10.589383525967602,-0.1776470554105188,0.878643787341996,0.17754855000413383,1.6829756078525366,-19.35440797350631,-18.86291413553766
1760959268.6973717,-10.83822999349607,-0.19852982698444513,0.8849030038741497,0.17847344639521945,1.8059464499133753,-15.05909629571662,-18.75836333957909
1760959268.7073762,-11.114293812619229,-0.21997157750528162,0.8894794726735471,0.17925795672422684,1.861586714630665,-10.647084048111703,-19.020356050956142
1760959268.7172432,-11.419878089865795,-0.24061244898949743,0.8914787579376461,0.1803377997486111,1.8061877572522358,-6.173168480955875,-19.643744666896843
1760959268.7272928,-11.755164768939746,-0.2592595676203993,0.8903788650241186,0.18167826358067587,1.607336269059465,-1.676220903303761,-20.60866103203817
1760959268.7374184,-12.118349452364322,-0.2750211898759843,0.8860361236695478,0.18269259947168964,1.2483987665334886,2.8174802742258707,-21.878661387271094
1760959268.7472699,-12.505984244356297,-0.2874064979797296,0.8786203298543236,0.18229069909087703,0.7321611548684895,7.286621842432439,-23.398318010515062
1760959268.7573104,-12.91345456235404,-0.29637225022403146,0.8685108103240187,0.17905847763431745,0.08310705219511683,11.703908692890977,-25.090620620498374
1760959268.767385,-13.335483317649041,-0.3023016973916699,0.8561868956549474,0.17153672475082626,-0.6522186316214821,16.023488756765836,-26.854870188910713
1760959268.7773159,-13.76654911352201,-0.3059126341335406,0.8421390598121549,0.15854326186017137,-1.407236483209351,20.16897986334676,-28.56598376806343
1760959268.7873893,-14.20112955418557,-0.30810717173774377,0.8268158038597067,0.1394728276304162,-2.099973537848346,24.024666406820568,-30.076208720414375
1760959268.797273,-14.633728934491927,-0.3097900063673604,0.810611020237105,0.1145149457668997,-2.6401375933164912,27.432463199159123,-31.220107006839164
1760959268.8073053,-15.058708565282139,-0.3116917938202581,0.7938900568844472,0.0847460566488345,-2.9379495382382244,30.196802394256707,-31.823299500986337
1760959268.8174603,-15.469995327647725,-0.3142380276076124,0.7770497044690163,0.05207452352122057,-2.9135730708380425,32.09857472715225,-31.714906992175088
1760959268.8272934,-15.860786667957376,-0.31749674166925207,0.7606046946656381,0.019042116412983656,-2.505689896687505,32.91767122972889,-30.742976124313397
1760959268.837517,-16.223384595974206,-0.3212164169138567,0.7452879102326537,-0.011491685412881678,-1.6778710421935612,32.461778942562354,-28.791519043774798
1760959268.847261,-16.54926915131822,-0.3249343645929294,0.7321434370909367,-0.036737992381686915,-0.42188359703662015,30.597398560680382,-25.797198540098382
1760959268.857536,-16.82946616595977,-0.32811126431033993,0.7225843360073122,-0.0543797232220393,1.2423275778774683,27.27814392512263,-21.76324689974438
1760959268.8674269,-17.055188732493168,-0.3302430482360989,0.7183844570688992,-0.06291568902549637,3.2697983804553394,22.565545256540933,-16.768058590798304
1760959268.8773036,-17.218656413390487,-0.3309177318547426,0.7215775562178238,-0.06187912411187321,5.596368252873489,16.638682955775874,-10.966218462401109
1760959268.8871787,-17.313941974346157,-0.3298123784044289,0.7342485097269981,-0.05188219298153668,8.146364944294032,9.790622398588138,-4.580627371670149
1760959268.8972108,-17.337679787652995,-0.32665266246010355,0.7582224217894245,-0.03447411661253037,10.840872302017804,2.4113750865290258,2.114195823935726
1760959268.907334,-17.289498980630356,-0.32117454079168506,0.7946863587581133,-0.011841837381848297,13.60480261226431,-5.04130092213601,8.815896686511964
1760959268.9172542,-17.172105855164165,-0.31312605692682566,0.8438057995287861,0.013584641897017446,16.370817385899226,-12.080636197291854,15.221940866321082
1760959268.9271789,-16.99100982648713,-0.30232540535563135,0.9044112832048783,0.03954274308263735,19.078620862795198,-18.23544385761582,21.057063103729917
1760959268.9372087,-16.753944453831394,-0.28875821602696017,0.973825823434015,0.06428284847517621,21.6693383258215,-23.096045109091666,26.09638169342525
1760959268.9472375,-16.47007222234895,-0.27266871026930084,1.047886768005622,0.08677932541480389,24.07630135593995,-26.356383622797974,30.180850510522216
1760959268.9572275,-16.149080078973952,-0.25459081903491815,1.1211959389827109,0.10675797304576326,26.215179694443123,-27.846982591124778,33.22328609890866
1760959268.967224,-15.800276839512312,-0.23528438924590123,1.1876114420316712,0.12451976600742087,27.97761785409511,-27.553815751884148,35.20527640510416
1760959268.9771645,-15.431798248735433,-0.21558335548622712,1.240965141161638,0.1405810387090946,29.232869525073077,-25.61936913351076,36.167331758457436
1760959268.987186,-15.050013691129662,-0.19620760852143387,1.2759384505099773,0.15520511151024605,29.840790719883127,-22.32429652492041,36.196033211711224
1760959268.997649,-14.659209235749795,-0.17761442033760413,1.2889567642252533,0.16795994476543066,29.676638940624848,-18.05106909337431,35.412143817082196
1760959269.0071888,-14.261591212254858,-0.15995670225728198,1.278901474537049,0.1774696879578688,28.663934324990926,-13.234435282530352,33.96248351447181
1760959269.0171704,-13.85761227859917,-0.14317773516622967,1.2474380628321486,0.18149962712350876,26.80760377661957,-8.306508144284171,32.01614086552597
1760959269.0273795,-13.446572675134268,-0.12721703799929074,1.1988430357831152,0.1774143399646959,24.217520503475903,-3.645932806146447,29.763158685303008
1760959269.037175,-13.027399264488642,-0.11224783251746392,1.1393499563084521,0.16290997786310396,21.113558947428587,0.4598755899593633,27.41226606050056
1760959269.0472617,-12.599460084431481,-0.09883911082336584,1.07616147720311,0.1368053081185104,17.807387435991572,3.8331658945436033,25.18423126724408
1760959269.0572891,-12.16324256946119,-0.08795471950470934,1.0163429769823804,0.09963790149561004,14.662219566048357,6.403144841149276,23.298895310509522
1760959269.0671697,-11.720725858548494,-0.08076317198073661,0.9658164515635861,0.053867681673654404,12.037806329655032,8.185309863092177,21.956243883452004
1760959269.0771923,-11.275328669914618,-0.07830711563772835,0.9286278050460085,0.003612638649830481,10.232198132260429,9.250047374547279,21.31419425616103
1760959269.0872867,-10.831417148456392,-0.08113842992981497,0.9065874976033126,-0.04601889730157052,9.432886739953119,9.689495625343925,21.467452969803592
1760959269.0973663,-10.39348689954993,-0.08904158384409636,0.8993020644508106,-0.08982607688986996,9.687575289990832,9.590679150170153,22.432331721706074
1760959269.1075695,-9.965239705465313,-0.10093823860506321,0.904539320325289,-0.1234218678923863,10.899925789426522,9.019850437402848,24.141503146979378
1760959269.1174438,-9.548809025782331,-0.1150038203253602,0.9188173249054058,-0.14394505476963507,12.849787579957109,8.019196720153836,26.45048842615441
1760959269.1272588,-9.144334309348627,-0.12895967523312218,0.9380851029011356,-0.1504449157073809,15.23227032969787,6.6138265096051825,29.154913147718307
1760959269.1371803,-8.74997182546698,-0.14045946723997565,0.9583725956692867,-0.14389804070175594,17.70685589698658,4.824948333656508,32.01524534134874
1760959269.14719,-8.362311291902376,-0.1474779938245655,0.976320003640759,-0.12690222342429658,19.94705763976529,2.6845898419307126,34.78455135268777
1760959269.157303,-7.9770844220725765,-0.1486284124045634,0.9895376751177928,-0.10314940964722982,21.68256491580474,0.2478613022094002,37.234851143102865
1760959269.1673229,-7.590017055278424,-0.14336336596142285,0.9967829945540484,-0.07680085290037211,22.728435540618943,-2.399858157440573,39.17853410856397
1760959269.1772308,-7.197681940150669,-0.1320423721902114,0.9979633002747671,-0.051878651129232324,22.99882122342903,-5.141897120226505,40.4825531055811
1760959269.1872294,-6.798237364133071,-0.1158670465330253,0.9939853517558862,-0.03176060819583371,22.505385165435946,-7.835230063486112,41.0744606071246
1760959269.1973953,-6.3919717043040905,-0.0966999443840827,0.986480426317049,-0.018831941636723682,21.342747368038925,-10.320330745894033,40.94063796428721
1760959269.2073922,-5.98160520379577,-0.07679675737429753,0.9774474423312165,-0.014316414390240081,19.664830480958365,-12.43448599657186,40.118172784244514
1760959269.2172499,-5.572323977385397,-0.05849543277217063,0.9688731371398148,-0.01828366611618556,17.65677994983142,-14.027017837016622,38.682624946937025
1760959269.2272155,-5.171537859987731,-0.04391238882430386,0.9623968041951955,-0.02980754517767341,15.507177814180219,-14.974911615958131,36.73428004585792
1760959269.2374036,-4.78836546287413,-0.034687972819664015,0.9590762633105847,-0.047232290301322165,13.384623538110082,-15.197400908022885,34.38537466084886
1760959269.2473319,-4.4328611455751945,-0.03180396083637673,0.9592832571199572,-0.06849280005382825,11.421541392582975,-14.668052048704618,31.750221894525897
1760959269.2572877,-4.115016410449044,-0.035478398695993126,0.962724938053974,-0.09143477356528698,9.706495331280053,-13.422867109153371,28.939287426410743
1760959269.2673304,-3.8435972732233683,-0.04513622104647583,0.9685668903603923,-0.11408927419160858,8.284653208854492,-11.562988167699679,26.057265238196898
1760959269.2772317,-3.6249173080046826,-0.05945461717941683,0.9756238957049366,-0.1348705650798687,7.164678043338985,-9.250838023597899,23.204292660159126
1760959269.2872372,-3.4616843285333383,-0.07648219569243346,0.9825821898903921,-0.1526824253400273,6.329476497996563,-6.699052339024445,20.478776443986778
1760959269.2972538,-3.352083615984398,-0.09382591148020075,0.988217396065385,-0.16693447389231142,5.747991054394259,-4.15238135028526,17.979956530627504
1760959269.3073487,-3.2892586381293953,-0.10888957736547017,0.991575054798261,-0.1774845303957791,5.385540923692469,-1.86380144275471,15.808389012224342
1760959269.3172204,-3.2613159083879304,-0.11913827244330147,0.9920876789028861,-0.18453329538994567,5.210967047268754,-0.06718349400202042,14.063053856776929
1760959269.3271818,-3.251920406251748,-0.12236074650723974,0.9896153646230006,-0.1885012348502567,5.1998192896454105,1.0502602630842248,12.834729742634497
1760959269.3375142,-3.2414722485509415,-0.11690606186374453,0.9844134930311985,-0.18991399631154213,5.333806408050356,1.372124231697569,12.19638154375986
1760959269.3471868,-3.208771523981912,-0.10187420722745696,0.9770446903985565,-0.1893141459221411,5.597510267602034,0.8700924456574218,12.192251864900706
1760959269.3573918,-3.132995755550829,-0.07724081681321864,0.9682592605409978,-0.18720694620029732,5.973823562551034,-0.38838449622902904,12.827890256602037
1760959269.3673427,-2.995751992082336,-0.04389863688190895,0.9588697852796677,-0.18403890019382396,6.439663398472911,-2.2435710214157325,14.063377465011907
1760959269.3773794,-2.7829457653071867,-0.0036078663159691046,0.9496434899452671,-0.18020106390881394,6.963259742740131,-4.458135370761484,15.811512168552674
1760959269.3873034,-2.48624139257668,0.04113895875624814,0.9412298782645687,-0.1760452639265431,7.503792853475078,-6.741521332151767,17.941837425536253
1760959269.3972032,-2.103957478173997,0.08732228912650598,0.934129830443927,-0.17190063733687228,8.013499348157715,-8.781117107551234,20.29030724526627
1760959269.407249,-1.6413212116689888,0.13165332694226628,0.9286981423087022,-0.16807997923119442,8.44177065769404,-10.276415147007487,22.673403168013163
1760959269.4176219,-1.1100787576741797,0.17086538839818527,0.9251610064353335,-0.16486957598220295,8.740383954972383,-10.972001969996658,24.904830363516584
1760959269.4272459,-0.5275245897564865,0.2020148487240795,0.9236289464674449,-0.162502048172908,8.868878522230515,-10.685436456226954,26.812632350812006
1760959269.4372613,0.08493179214735623,0.22276086085838656,0.9240942560478327,-0.16111843999365863,8.799169879805982,-9.326802286926426,28.254630346035775
1760959269.447269,0.7035056409439022,0.23159059625424394,0.9264156994441116,-0.1607316077324842,8.518707016277023,-6.907848253639782,29.13045392572438
1760959269.4572933,1.303912084975057,0.2279605558139636,0.9303061813826212,-0.16120539149606034,8.031762987541176,-3.5399956213547012,29.388991593354383
1760959269.467359,1.8632080312731027,0.21233372561940606,0.9353438886140745,-0.16226121512492042,7.358746640946964,0.5781238925851336,29.03072005380646
1760959269.4772215,2.36144489221143,0.18610712277528016,0.9410186308132306,-0.16351620023017477,6.533683132527035,5.181738871686795,28.104959650125593
1760959269.4873762,2.782998206891082,0.15144289120813767,0.9468069880150132,-0.1645477413677871,5.600216993958437,9.966879158631118,26.702616331897993
1760959269.4972544,3.117476529163274,0.11103263975382598,0.9522548144333769,-0.16497210421774602,4.606656273362378,14.619955399343912,24.945413168612017
1760959269.5073373,3.3601622820320345,0.06783271261854355,0.9570422775021142,-0.16452074491663576,3.6007023278913706,18.84668206918485,22.972968381141175
1760959269.5173292,3.511990502441084,0.024804953661011306,0.9610140492439513,-0.1630983586335846,2.6245680071750503,22.3974373254819,20.929281521451273
1760959269.5272994,3.5791126419032073,-0.015313891685291348,0.9641699667472801,-0.16081094719730563,1.7111345958457638,25.086908677409816,18.950171728395883
1760959269.537458,3.5721155737538632,-0.05020343051878941,0.9666237155779923,-0.15795904097744312,0.8816126796346389,26.806762393201186,17.152940596531643
1760959269.547187,3.5049766167808114,-0.0781073078031626,0.9685443465431134,-0.1549985361575006,0.14488222805806159,27.53084960730557,15.629065053897257
1760959269.5573392,3.3938434736388396,-0.09793270566143068,0.9700962870966542,-0.1524774656008107,-0.5016173422396203,27.313038083439096,14.440206847802484
1760959269.5676646,3.2557365634116566,-0.10929525716359406,0.971390372067097,-0.15096000187504804,-1.0697863247497401,26.27820549518301,13.617406109846442
1760959269.5773838,3.10727534902338,-0.11250533375806004,0.9724547597384038,-0.15094880453130952,-1.5779616289241851,24.607341351179954,13.163065405677136
1760959269.587543,2.9635253848973706,-0.10849767884570731,0.9732313440778689,-0.15281461186155237,-2.047595925441244,22.51811595110061,13.055179104235098
1760959269.5972743,2.8370513871615026,-0.09871114464955806,0.9735986502652145,-0.15673953256185533,-2.499865631878305,20.242660652325117,13.25314865612727
1760959269.6073554,2.737249033429791,-0.0849263297483844,0.973415064487027,-0.16267895179887612,-2.952540078138124,18.00460559421029,13.704422957015112
1760959269.6173773,2.670014506944955,-0.06906890286245637,0.9725690375269784,-0.17034612003448357,-3.4174363191297528,15.997573452626716,14.351138641194094
1760959269.6271744,2.637789404816497,-0.05298981357542827,0.9710207156475756,-0.17922223812484672,-3.898745780148215,14.367275218645538,15.135955322067375
1760959269.6372485,2.6399825471872824,-0.03824191579456966,0.9688251708611761,-0.18859250961306379,-4.392430999805935,13.199074256157429,16.006426917915913
1760959269.6474743,2.673719791543674,-0.02588197920524414,0.9661376024932763,-0.19760580339695794,-4.886767602548374,12.512397876212512,16.917519324520203
1760959269.6574118,2.7348186122774494,-0.016331032423251686,0.963208418882137,-0.2053533502712995,-5.36398329228489,12.26270654871799,17.832218029553896
1760959269.6672456,2.818841283113629,-0.0093208818698616,0.9603770733886049,-0.21096055264981647,-5.802845217373521,12.350895629353989,18.72048783006708
1760959269.6772728,2.922061124886702,-0.003942164033135179,0.9580696527971316,-0.21368489279095823,-6.181963536153411,12.639063388574499,19.55708759740875
1760959269.6872168,3.042186026559012,0.0012069850034274378,0.9567999289381943,-0.21301126156554628,-6.483492964055084,12.970670138528037,20.31886837623169
1760959269.697282,3.178721759743064,0.007789558169804756,0.957168668055347,-0.20873330109819122,-6.696820019936487,13.192417995064508,20.982184911469403
1760959269.7072604,3.332917932859209,0.017448199023992816,0.9598521780634212,-0.20100612686390104,-6.8217469807042725,13.174877074751581,21.52094920287379
1760959269.7174768,3.5073104417099716,0.03151582242302657,0.9655694323303149,-0.19035433272292832,-6.870673993372771,12.82909178145886,21.905681641431137
1760959269.7274446,3.704943060868422,0.05076356516558618,0.9750190231490821,-0.17762247859433872,-6.869378157250806,12.117115146293974,22.103706758810723
1760959269.7375925,3.928405440815399,0.0752270952891014,0.98878357494429,-0.16386454781165102,-6.85618750510748,11.055491057240419,22.080445125507875
1760959269.7473357,4.178856011396195,0.10414119996840537,1.0072093310985004,-0.1501820502816761,-6.879598175368435,9.711894910028173,21.801612781473214
1760959269.7573094,4.455202043263399,0.1359969531337547,1.0302790492858471,-0.13753329522300095,-6.9946179340185495,8.196187386167992,21.236045867459573
1760959269.7673504,4.753586734714322,0.16871890732571682,1.0575024693725306,-0.1265452747003808,-7.258286268969244,6.647797780577477,20.358764812328474
1760959269.7773008,5.06728763226192,0.19994255616951356,1.0878480834332067,-0.1173633272942965,-7.72489796732129,5.221515722040371,19.153758097209856
1760959269.7872434,5.387064499501141,0.2273540571230851,1.1197342789462914,-0.109572299378624,-8.441446776117564,4.073500007768736,17.615872932397934
1760959269.7973237,5.701914467792577,0.24903743654691932,1.1510904806002609,-0.10221558869869579,-9.443724288646127,3.3487950717911867,15.751258237252953
1760959269.8073897,6.000111978468987,0.263765660700627,1.1794919425207264,-0.09392412392012024,-10.753378754258398,3.171054277845324,13.576051948025103
1760959269.8173766,6.270349113049216,0.27117658039265197,1.2023648145136518,-0.08314656722997166,-12.37608914534021,3.634630752853985,11.113383023199555
1760959269.8274422,6.502767227268776,0.2717946990223136,1.2172476218019224,-0.06844813641153896,-14.300871425409255,4.798818459500365,8.389179588270341
1760959269.8375294,6.689697133949418,0.2668924812498463,1.2220797327288024,-0.04882427624278645,-16.500422351760985,6.683893165889193,5.427653636565138
1760959269.8471751,6.825999310378032,0.258221498766472,1.2154732258693055,-0.02396420727352938,-18.932323120369254,9.268729038231404,2.2475670154310516
1760959269.8574407,6.908992302606633,0.247670767863708,1.1969225888038055,0.005596347582914668,-21.540864804483398,12.490063523602894,-1.1396348388180302
1760959269.8674073,6.938043649042401,0.23691906851813754,1.1669195398926162,0.038473777716556815,-24.25921488885075,16.243782015480495,-4.729050220962517
1760959269.8773227,6.913952679577481,0.2271424579549658,1.1269592718761436,0.07259567708091391,-27.011639616817693,20.38872220814084,-8.518700205745262
1760959269.8874996,6.838274634193494,0.21882501795034948,1.0794395395964096,0.10549434475202958,-29.71557800422283,24.753367111632294,-12.503532803541807
1760959269.8974268,6.71272577856245,0.21170436261051176,1.027462483106855,0.1346778511504878,-32.283546142429884,29.145430152910805,-16.668147481865518
1760959269.9075108,6.538777275162437,0.20486386129910394,0.9745547430993403,0.15800371314544526,-34.62506288762505,33.363839935358925,-20.979712921556214
1760959269.9173987,6.317499690031146,0.19696013237920035,0.9243295305562641,0.1739809909438339,-36.64890430635933,37.21214324619085,-25.382600972664044
1760959269.9272614,6.04966761634788,0.18654731580321424,0.8801269389504635,0.18194717431572166,-38.26593791097904,40.511996806019674,-29.79604319364371
1760959269.9374032,5.736081347963595,0.17243315550638666,0.8446823249095923,0.18209964642856313,-39.39259593640327,43.11529191268857,-34.11574764455446
1760959269.947377,5.378017050030165,0.15398673445512387,0.8198778796719766,0.17539466637988535,-39.95483112687048,44.913550271662295,-38.21992815640122
1760959269.9574752,4.977687954090352,0.13132509960141717,0.8066207390443142,0.1633478989035304,-39.89225408507903,45.843514857827785,-41.97952915050795
1760959269.967342,4.538596212178754,0.10533676300156078,0.8048628809545741,0.14777732212351138,-39.1621008987525,45.88833209846405,-45.271489424719334
1760959269.9772978,4.065682775480652,0.07754196571827937,0.8137453648978178,0.13052876418043088,-37.742688806868046,45.074347301330064,-47.99271131482335
1760959269.9873989,3.5652357733174576,0.049826557465767266,0.8318253182062688,0.11322355964009968,-35.63605655673939,43.46419361045109,-50.07143055968422
1760959269.9973502,3.0445786131751404,0.024108723190292905,0.8573338941260082,0.09706724632463495,-32.869560106547986,41.14738454123013,-51.47287347101774
1760959270.007333,2.5116039303111948,0.0020050282778491767,0.8884149688885606,0.08275234630513836,-29.49630911615709,38.229888490399226,-52.19803011712742
1760959270.0172644,1.9742357611384465,-0.015442071644406856,0.9233033543959337,0.07047215756871762,-25.594457156673734,34.824094719436964,-52.27711663544959
1760959270.0273614,1.4398960516393484,-0.02792660093102918,0.9604153467268132,0.060036926483502055,-21.265440121584586,31.040189329272444,-51.760973855798895
1760959270.0375366,0.9150371859598866,-0.035904072587351225,0.9983431355067178,0.05105633121645139,-16.631236236123044,26.979388127292,-50.713419853192924
1760959270.04749,0.4047879827410585,-0.04047813552161842,1.0357677241208956,0.043134398566444555,-11.830605674472189,22.728959641237065,-49.20617218115892
1760959270.057482,-0.08725270697965103,-0.04317322311923469,1.07132894596333,0.036023695902783634,-7.0141553140200505,18.358737347396456,-47.31645585108281
1760959270.0673997,-0.559054794067288,-0.04563664846062105,1.1035080699991662,0.02970472970460126,-2.338067098625605,13.918929108876286,-45.12636640605764
1760959270.0772734,-1.0100246131812554,-0.049323882831784904,1.1305812742646877,0.02438421254664401,2.0435422607329974,9.439349884342016,-42.722603308955875
1760959270.0875149,-1.4407170789429127,-0.05522183324946125,1.1506887690841678,0.020429032954569343,5.987410737041231,4.930515420092131,-40.195303482000185
1760959270.0973718,-1.8524280970124185,-0.06365745222201179,1.162035428582348,0.018263498132570243,9.370506426961958,0.38717601884422315,-37.63524912336813
1760959270.1074636,-2.2467215065146324,-0.07422551333696696,1.1631967297703691,0.018257317168435528,12.099062184091295,-4.205254551111394,-35.12946272031015
1760959270.117377,-2.6249597758089713,-0.08585278800959835,1.1534579199825474,0.02062738792446627,14.116068808656788,-8.861360170795482,-32.755870181872176
1760959270.127418,-2.987916657836308,-0.09699547951800674,1.1330860182397675,0.025372200935943952,15.40595184694173,-13.584171004460647,-30.578112158580037
1760959270.137366,-3.335548126509783,-0.10594058132959573,1.1034445548151084,0.03225319962049251,15.995371868910679,-18.35289027558379,-28.641648443996345
1760959270.147323,-3.6669791253553257,-0.11115491165228901,1.0669078425284864,0.04082888998885381,15.949635996605998,-23.11200200622733,-26.972064500181997
1760959270.1573653,-3.980725793720077,-0.1116101400015593,1.0265902744132305,0.05053301751546892,15.365017086091688,-27.76409216128919,-25.576025617927908
1760959270.1675057,-4.2751223867037265,-0.10701634006589317,0.9859525624650487,0.06077376717053801,14.358116080393449,-32.16846553532462,-24.444752214058372
1760959270.1772456,-4.548874470904374,-0.09791834818789356,0.9483689946306114,0.07102655151836769,13.053974930079576,-36.146916488409126,-23.55937169490992
1760959270.1873076,-4.801632142603701,-0.08564039040345095,0.9167347634542552,0.08090050384439718,11.574760110378419,-39.49692309681887,-22.897168187862647
1760959270.1976087,-5.0344768404144995,-0.07209627947894673,0.8931673783628152,0.09017057743324097,10.03051146404293,-42.01125741645844,-22.437641378097144
1760959270.2073572,-5.25023785889029,-0.0595074493481515,0.8788266295830768,0.09877609125902397,8.5128688546926,-43.50174396405239,-22.1673717864462
1760959270.217307,-5.453588443156134,-0.05008434385038099,0.8738562887625227,0.1067919758380693,7.09202797997376,-43.8239015814748,-22.08292855952223
1760959270.2274446,-5.650906597723366,-0.04572713500843463,0.8774397771671337,0.1143824688472686,5.816537916614937,-42.89874134516777,-22.191414540800462
1760959270.2374084,-5.849917593287584,-0.04779161002362763,0.8879552047672793,0.12174867367812196,4.71504270865967,-40.72823907053177,-22.508685724119083
1760959270.2474487,-6.059162062450098,-0.05694931053855674,0.9032069242674625,0.12908045456100115,3.7988372941199993,-37.40191171818587,-23.0557363220974
1760959270.2573643,-6.287354602926026,-0.07315196713541683,0.9207027162917168,0.13651926067550546,3.0642461774631027,-33.0932639537933,-23.854094243486117
1760959270.2676828,-6.5427111265917235,-0.09569259004247452,0.9379429288919492,0.14413296128188546,2.49429379244228,-28.0463405368188,-24.92121161438758
1760959270.2783425,-6.8323261470696774,-0.12334153537052281,0.952690525178922,0.15190024280289133,2.0597540474201934,-22.553975060319342,-26.26670460446476
1760959270.287489,-7.161671474978725,-0.15452645461237774,0.9631947155965369,0.1597027024584767,1.7202160872251102,-16.930387391369905,-27.88993115152378
1760959270.2973633,-7.534265401759833,-0.18752111095238025,0.968343770549004,0.1673243468890548,1.4260692312039083,-11.481457584849895,-29.77891206806598
1760959270.3073635,-7.951530189130717,-0.22061127924080084,0.9677286404084059,0.17445737981214593,1.122202067448578,-6.476280219380606,-31.910160008369058
1760959270.317714,-8.412822707934463,-0.25221707840566465,0.9616129580229001,0.18071135282003298,0.7538046818788655,-2.1234869175116993,-34.24873550090133
1760959270.3274727,-8.915597236034776,-0.2809669425124784,0.9508238411772508,0.18562129321330728,0.2741005474956465,1.4446964322707698,-36.74790497093873
1760959270.3372507,-9.455648599056698,-0.3057329671508963,0.9365912985279008,0.18864959680435267,-0.34678178763248546,4.178623464773988,-39.348143481765014
1760959270.3475401,-10.027390751644038,-0.3256460082662221,0.92036600429352,0.1891812005154549,-1.1131614071970666,6.10688844491275,-41.97577930225239
1760959270.3572636,-10.624144641221058,-0.3401096192264501,0.903639488975177,0.18652436540118553,-1.997118242591505,7.3222277369741615,-44.54207259736714
1760959270.3673158,-11.238427419684664,-0.3488239067256926,0.8877834689546666,0.17994070636142154,-2.9355076285852135,7.959884551335051,-46.94370786619652
1760959270.3772259,-11.862242834137284,-0.3518166016767935,0.8739187230027258,0.16872625833498206,-3.8320180401759227,8.171842126083167,-49.06545903845315
1760959270.3874412,-12.4873695664915,-0.3494669706857938,0.8628191731618982,0.1523494202290232,-4.564911090596173,8.10094917555045,-50.7852695728347
1760959270.39877,-13.105637149516987,-0.342505146280476,0.8548536162774139,0.13062816986501066,-5.00018510965788,7.858805976972268,-51.98142022506487
1760959270.4075196,-13.709174573784614,-0.33197458117321144,0.8499653774980971,0.1039069569996743,-5.008865882971808,7.510402670307525,-52.541036089778295
1760959270.4173326,-14.290618232082107,-0.3191541094567559,0.847688847565213,0.07318328448166987,-4.486063384620272,7.067246696801594,-52.36897003752035
1760959270.4273176,-14.843273186942818,-0.30544492198161577,0.8472017814483697,0.04014089551946921,-3.368637672605862,6.48945603018748,-51.39605602210922
1760959270.4373474,-15.361230667701728,-0.2922349531110039,0.84741326959824,0.007067027068973706,-1.6481781818349708,5.696203583836928,-49.585809241123364
1760959270.4474385,-15.839449433486946,-0.28075784911892754,0.8470879883254737,-0.023344116215175306,0.6232818929284132,4.582970844750346,-46.938826712278505
1760959270.4574664,-16.27380670741949,-0.2719650678721909,0.8450052735450065,-0.04827857942447906,3.33599694192288,3.0432581609016798,-43.49438204314847
1760959270.4675267,-16.661118234610207,-0.2664274333897178,0.8401452539380686,-0.0651429553957142,6.333257187868893,0.9917471655938915,-39.32898799151083
1760959270.4774525,-16.99912117524968,-0.2642775206922681,0.8318847733157357,-0.07191144237217265,9.428399991709421,-1.6143939835740195,-34.551989506103325
1760959270.487395,-17.28641155691714,-0.26519838586127104,0.8201765487300869,-0.06743071340875424,12.425574726903621,-4.759106389475388,-29.298518388921977
1760959270.4973044,-17.52233125353029,-0.26845910039843557,0.8056807072565435,-0.051638234477065156,15.1415602514028,-8.358129242991364,-23.720378986983842
1760959270.5073826,-17.706807459987132,-0.2729945026421153,0.7898224473354113,-0.025659896118959528,17.426118574113435,-12.257835033317363,-17.97563535424591
1760959270.5173423,-17.84015959853049,-0.27752614442644163,0.7747617805052798,0.008235003996597582,19.178721734072834,-16.242245110994734,-12.2178203486324
1760959270.5274038,-17.92290430181894,-0.28072239774009267,0.7632726318691647,0.04683014365601172,20.35987466522495,-20.0475579978305,-6.585810390438084
1760959270.537401,-17.955606182870724,-0.28139364965517666,0.7585308140718984,0.08630111859071414,20.995625746469987,-23.383057610719526,-1.1955581139935325
1760959270.5473258,-17.93883180410037,-0.278707777599829,0.7638064610866621,0.12266377765562288,21.174238006525023,-25.956862460727145,3.8650011439103014
1760959270.5575783,-17.873253711865807,-0.2723913608793749,0.782058783275915,0.1522716825639951,21.034498395353193,-27.504545503174583,8.536685480424225
1760959270.5674553,-17.759913882260257,-0.26286297124235813,0.8154483905514289,0.17228454171469462,20.74595552750058,-27.81823157003928,12.784907146697801
1760959270.577239,-17.600599295159082,-0.2512409820480553,0.8648138511785168,0.1810316146073283,20.482637026874013,-26.773427021463476,16.59125057925407
1760959270.587459,-17.398226627419813,-0.23918842133000093,0.9291968563024453,0.17821436845880004,20.3934081655823,-24.350605883554007,19.94279385953903
1760959270.597322,-17.157100341709153,-0.22859809336326106,1.0055320316952798,0.16491916409395915,20.57369370918578,-20.648562494530367,22.822242346250064
1760959270.6073737,-16.882913826287755,-0.22116896966039598,1.0886265396613386,0.14343504456360237,21.04420050140255,-15.886880838931457,25.202201048508634
1760959270.6172836,-16.582410809208486,-0.2179637236051506,1.1715261856424266,0.11689358888048546,21.74198646074883,-10.395649418969159,27.046093109407682
1760959270.6273265,-16.262706745406383,-0.21905605707671336,1.2462937892159973,0.08876967770706903,22.527481892846208,-4.5917187117695235,28.316458237621486
1760959270.6373038,-15.930367808390024,-0.22336928185539356,1.3051211421505606,0.0623060880741864,23.208116036010807,1.0577686845341472,28.98916982402824
1760959270.6474242,-15.590428277172844,-0.22877168711388426,1.3415832471812,0.03995201423982011,23.57561804732314,6.082174241694008,29.070209844651185
1760959270.6572251,-15.245565650103105,-0.23243313138242824,1.3517641145013464,0.022929067993294843,23.45059376945277,10.060090091939662,28.610619796525622
1760959270.6674209,-14.89563337142825,-0.2313759463326311,1.33497971789921,0.011040108416730718,22.725476746105603,12.671425472915162,27.715370997279546
1760959270.6774728,-14.537681415385215,-0.22309508375850104,1.293911078693447,0.0027985542315140497,21.396236049292646,13.74062054785206,26.543100030863176
1760959270.6875174,-14.166494710312675,-0.20609963865086553,1.2341122321684705,-0.004122637315177988,19.574786494335086,13.262613975006001,25.29557720233644
1760959270.6975074,-13.775570359317909,-0.18025014027839747,1.163019571773726,-0.01222180107174186,17.477788633954535,11.405249143440635,24.197888711902117
1760959270.707172,-13.358358886380922,-0.14682396996214347,1.0887052932765369,-0.023460418694749855,15.392694236730053,8.485905753723934,23.472119976951102
1760959270.7173743,-12.909534467303233,-0.10831157398205682,1.0186538576884197,-0.03872117609563271,13.627227742293638,4.9252832242586,23.308532681236624
1760959270.7274108,-12.426052527919765,-0.06800551509715669,0.9587950445864237,-0.057583838903334406,12.452570502402,1.1860339392457013,23.838752821256367
1760959270.737252,-11.907806656708525,-0.029479775189144033,0.9129292232929279,-0.0784614899601345,12.052182132631033,-2.292926681575934,25.115344088000693
1760959270.7473433,-11.357797919172162,0.003934699842820008,0.8825717455285731,-0.09902647357026546,12.486935984682752,-5.154935210974441,27.101305153585095
1760959270.7573006,-10.781846742114348,0.029587154037774864,0.8671578552492218,-0.11678289345543263,13.68338467617251,-7.167347685946236,29.671474970329037
1760959270.7672265,-10.18797149057678,0.04579711164941048,0.8645021633654738,-0.12962714860698296,15.446633159313423,-8.24086127284705,32.62574256068776
1760959270.7773838,-9.585601340517279,0.05197488281456836,0.8713942816781464,-0.13627061728288822,17.494026927240476,-8.425335911207544,35.71184219828183
1760959270.7872996,-8.984781601625889,0.048581986496702166,0.8842221273415696,-0.13645623442611576,19.502018736912767,-7.885283417261938,38.653977371560465
1760959270.7972662,-8.39548641734189,0.03696049938304951,0.8995349767869173,-0.13095827563969695,21.156880776478808,-6.861156534669419,41.182919969711875
1760959270.8074112,-7.827101463275147,0.019068096089465223,0.9144828437412613,-0.12139602722740778,22.200381684152052,-5.623929695074068,43.0635618223491
1760959270.8172998,-7.288093096566658,-0.002840328884730641,0.9270937480113755,-0.10991550550585989,22.463588233959182,-4.4303679790150525,44.11686847647087
1760959270.8273783,-6.785843623473652,-0.02653700521968255,0.9363743648308842,-0.0988059726152249,21.884763777887077,-3.4853247381159798,44.234415452138
1760959270.837452,-6.3266047596183395,-0.05009995734544068,0.9422431156604234,-0.09012324587201756,20.51023871180642,-2.9158658466932748,43.38485830255734
1760959270.8473763,-5.915505657555508,-0.07210194512426055,0.945328372502425,-0.08538629569498696,18.47977113489144,-2.7601680714070946,41.61264884058328
1760959270.857329,-5.556550852082662,-0.09168561814623186,0.9466838003705247,-0.08539508680633842,16.00010995090525,-2.971959507984652,39.03004711531578
1760959270.867215,-5.252556129868087,-0.10852518799119053,0.9474813851725492,-0.09019030952742021,13.311973970304374,-3.438868309942555,35.80401641734338
1760959270.877331,-5.004993558165626,-0.1226967533775023,0.9487388188891502,-0.09914652840887273,10.656210298744382,-4.010819949268086,32.139916920250016
1760959270.887481,-4.813747042332746,-0.13449503537383195,0.9511251345859186,-0.11116494220443683,8.244391240346719,-4.533094221270902,28.263979933402698
1760959270.8973842,-4.676810444867042,-0.14423980723503724,0.9548695382109257,-0.12491526167270559,6.237695063377464,-4.878158218980307,24.406319231339005
1760959270.9074678,-4.589983230017674,-0.15210953414381087,0.9597754997738157,-0.1390723393036882,4.735962696546603,-4.970925140902621,20.78578509800468
1760959270.9174428,-4.546629482481891,-0.15802771465371673,0.965320728113432,-0.1525027118172032,3.776808664754476,-4.803400696905871,17.5974244000806
1760959270.9274473,-4.537566571054784,-0.16161543368703132,0.9708094914914466,-0.16437505094898527,3.3430088077544395,-4.436478277383364,15.002795083336643
1760959270.9373283,-4.551142579935405,-0.16221365615136357,0.9755386781890523,-0.17419066258536997,3.375343474628164,-3.9886992052305317,13.122991648678187
1760959270.9473279,-4.573548322695678,-0.15897059916462578,0.9789420758995773,-0.1817498583999034,3.7877274367816995,-3.6138906191253097,12.034055430561294
1760959270.957508,-4.589391446826476,-0.15098355556123064,0.9806873787450057,-0.18708182181101413,4.481751250702539,-3.4714635480415885,11.76448811261664
1760959270.9673562,-4.582536754415369,-0.13747968625750306,0.980715076864161,-0.19036632799815942,5.358526027752906,-3.694478777668838,12.29476398765934
1760959270.9773736,-4.537184834059447,-0.11801333820706901,0.9792232091712608,-0.19186735312986855,6.326730180820201,-4.36108605948434,13.55890885487682
1760959270.9873555,-4.439117069654662,-0.09264784484255317,0.976612240082345,-0.19188724323672135,7.3067660732024535,-5.474469729802379,15.448309166444856
1760959270.997297,-4.276984374535857,-0.0620828382058956,0.9734079260622948,-0.1907409257658084,8.231755816474237,-6.9550213013037805,17.817928950473192
1760959271.0074177,-4.043476367328493,-0.027691094209513063,0.9701780107805815,-0.18874413389381559,9.046603422038633,-8.646310385624421,20.495026932155014
1760959271.0173361,-3.7361969153227,0.008555687966592604,0.9674535227043527,-0.18620694822642223,9.706454556374592,-10.333933125829711,23.29024019795279
1760959271.027395,-3.3581010021034476,0.04426929865929498,0.9656606359559841,-0.18342376266014654,10.175622791883434,-11.774025969867168,26.010539345130844
1760959271.0373065,-2.9174106937836615,0.07690893245204533,0.9650670827657299,-0.18065368362741485,10.427552663042082,-12.726658630841184,28.47315002233952
1760959271.047522,-2.4270060153184976,0.10408308764829174,0.9657470437419231,-0.1780912106956459,10.445831531216728,-12.988745516397856,30.51919879331241
1760959271.0574248,-1.9033589614732667,0.12383990624564621,0.9675675635953142,-0.1758337043841434,10.225800156040078,-12.421526982770258,32.025679249229256
1760959271.067213,-1.3651332982025555,0.13490006081186742,0.9701983569260483,-0.1738568030879034,9.776044236819429,-10.968860630634486,32.91439756268861
1760959271.077358,-0.8316076493869229,0.13679666272791588,0.973147254978114,-0.1720097775948802,9.119007127830999,-8.664243838531991,33.15683614194086
1760959271.0874052,-0.3210960222295941,0.12990267118201604,0.9758231627373153,-0.1700392775797362,8.290128439414598,-5.626355903903106,32.77432602091915
1760959271.0974555,0.15046407796967606,0.11534697025335115,0.9776234084667644,-0.16764262309944614,7.335238273967704,-2.044630727461542,31.833486180505545
1760959271.107376,0.5706144328699347,0.09484139717595155,0.9780338362560383,-0.16454268600763017,6.3063506679397525,1.8423863099870534,30.437493448249022
1760959271.1174753,0.9310796782619157,0.07045616312238305,0.9767228100363341,-0.16056861148260734,5.256403489928912,5.7726024245092935,28.714291012589676
1760959271.1273284,1.228044463811791,0.044385581118022446,0.9736083663897781,-0.1557231183270006,4.233779475824281,9.486695441452008,26.80322732071769
1760959271.1374054,1.4620346889084264,0.018739050803207005,0.9688824363737333,-0.15021915807624822,3.2775304031527464,12.75254658409525,24.84176164345837
1760959271.1474752,1.637471817874747,-0.004622334944547879,0.9629861069576402,-0.14447545583163987,2.4140811969280693,15.385766855529589,22.95374257881786
1760959271.1573129,1.7619850518662543,-0.02419830533061,0.9565415216629858,-0.1390697999560944,1.6558546232225022,17.264839667837503,21.24039173076007
1760959271.1675289,1.845565928960508,-0.038915267336154434,0.9502548680067334,-0.1346584338644517,1.001838598100873,18.33987937645337,19.77460940381203
1760959271.177625,1.8996429981400502,-0.048152712883238656,0.9448086773342823,-0.13187705014762077,0.4397477782525403,18.634492320352322,18.59870732076307
1760959271.1874375,1.9361451766085676,-0.05173746444495865,0.9407609436063863,-0.1312419055171671,-0.05079428034204196,18.240769847006973,17.72528373711321
1760959271.197469,1.9666121133320855,-0.04991293529293046,0.9384655705033778,-0.13306839703435547,-0.494675932216303,17.308022846693344,17.140727301855712
1760959271.2075112,2.0014000993047114,-0.043289799647047024,0.938025104652222,-0.13742042499695625,-0.9178467447093579,16.026411183040068,16.810736620233367
1760959271.2175384,2.0490261362490365,-0.03278181504039138,0.9392823890278843,-0.14409807800825475,-1.3443343031940849,14.607040943074537,16.68721102941234
1760959271.2274523,2.1156919390483844,-0.01952684385856065,0.9418517812804288,-0.15266388101563635,-1.793863929015697,13.260354095881391,16.715839206271557
1760959271.2374537,2.205029519786748,-0.004791223685678834,0.9451841260646583,-0.16250033601224587,-2.2800647095178532,12.174748307782155,16.843653048412406
1760959271.2475653,2.3181019226841966,0.010142053952568918,0.9486556672347718,-0.17288660009202778,-2.809187992471195,11.497396656701154,17.025756839582723
1760959271.2576275,2.4536702289231465,0.02409492973439805,0.9516704975244353,-0.18308149907110172,-3.379298826995802,11.31918819009576,17.230459850747295
1760959271.2674916,2.6087027490428367,0.03611292784437634,0.9537666610123691,-0.19240228136734644,-3.9799850520672826,11.665495612112252,17.442186115872502
1760959271.277344,2.779063697403837,0.045565169021231464,0.9547149266604176,-0.20029123858283845,-4.59271453320363,12.494002988828205,17.66180064951827
1760959271.2873936,2.9602878675509046,0.05221165355774809,0.9545960829300645,-0.20636437912352726,-5.192019708657396,13.700093269320476,17.9043240340207
1760959271.2974987,3.148331937067463,0.05622841285513317,0.9538394331497128,-0.21043753117797234,-5.747666240216399,15.12940336613126,18.19434298704219
1760959271.3077865,3.340193519985078,0.058185940922541035,0.9532065957809244,-0.21252619238993034,-6.227847834736278,16.596243083413338,18.559708333162877
1760959271.3174276,3.534305413368304,0.05897964565190475,0.9537157416336809,-0.21281783173088686,-6.603256090052162,17.905782272348,19.02430722028428
1760959271.3274782,3.730644643459104,0.059714912400338174,0.956519250617056,-0.211620055439683,-6.851656996671916,18.877377262536076,19.600796813599867
1760959271.3375907,3.9305424031734444,0.061557405515210425,0.9627590232122394,-0.20929290398143918,-6.962431493501878,19.366251512735886,20.28421719379502
1760959271.3474205,4.136234694886682,0.06557014205345163,0.9734195249008467,-0.2061754966353335,-6.940448337197785,19.281012048459168,21.04738866134842
1760959271.357339,4.350241111088821,0.07256496624007898,0.9891877069249758,-0.2025163558084111,-6.80864529825401,18.595112664048568,21.838923841706034
1760959271.367373,4.57468676461372,0.08299203286594203,1.0103250815346916,-0.19841550105536926,-6.6088046177239,17.35121401966877,22.584473854748275
1760959271.3773353,4.810683132464179,0.09688012107813353,1.036562598512367,-0.19378575635030584,-6.400223533292822,15.658248294052338,23.191416852357523
1760959271.387429,5.057860714365041,0.11383011536769162,1.0670361273847695,-0.18833943522113608,-6.256275275758424,13.681730418685426,23.55661832572304
1760959271.397535,5.314109947869042,0.1330576236361527,1.100282284501809,-0.18160386678089838,-6.259166841621535,11.628429597624661,23.5762870731737
1760959271.4073572,5.575548157652865,0.15347798057315176,1.1343084559190504,-0.172965728058849,-6.493450477274482,9.72694944708935,23.15650085880313
1760959271.4173386,5.836697579392029,0.17382534424740004,1.1667388342311968,-0.16174057514252188,-7.0389803671915345,8.206095388163027,22.222818856465473
1760959271.4275746,6.090835835384074,0.19279510407559194,1.195024359533494,-0.1472606946939017,-7.96400971008993,7.2731468972382025,20.727574156259994
1760959271.4374125,6.330465431090755,0.20919478561971155,1.2166926636265434,-0.1289719899170315,-9.319024075116147,7.094261763110637,18.653885541379122
1760959271.447306,6.5478413511361,0.222083551836088,1.2296069965639143,-0.1065295173293574,-11.131757348867204,7.779123053520512,16.016013297134904
1760959271.4574714,6.7354937816846085,0.23087594053148905,1.2322018770619474,-0.07988139041690401,-13.403683732303382,9.371507465116757,12.8562709584922
1760959271.4674323,6.886685712085585,0.23538576374958647,1.2236672659384358,-0.04933148388471667,-16.108142559206815,11.846694273180947,9.23919212070278
1760959271.4773,6.995754405707392,0.23579567603997278,1.2040600881854366,-0.01557183916544021,-19.190132830161797,15.115642541597847,5.243982966263753
1760959271.4875982,7.058303559931194,0.23255622984686652,1.1743298730594804,0.020324314560032704,-22.567718490099104,19.03485207870077,0.9564439551605726
1760959271.4973695,7.071238055769885,0.22623783502232556,1.136253976861991,0.05695667581987019,-26.134925051951267,23.420058444053353,-3.538478983515131
1760959271.507425,7.032659972235797,0.21737138617317806,1.092287800859366,0.09270160532011652,-29.765979550906064,28.061588178562964,-8.162531668561043
1760959271.5173175,6.941666636495849,0.20631559241161385,1.0453454438005014,0.12585858379098572,-33.32073874540463,32.7393679223383,-12.847710487438327
1760959271.5273082,6.798104976357996,0.19318340408963305,0.9985339757059902,0.15482218450622942,-36.6511514395859,37.236156915800414,-17.537298130559297
1760959271.537348,6.602339602511116,0.1778477483744396,0.9548691312400156,0.17825493016283775,-39.60856566334395,41.348342962745726,-22.184575563771425
1760959271.5475323,6.355084271374415,0.16002812596585603,0.9170022815393092,0.19523395061740292,-42.051563031217455,44.89431129301388,-26.7497615517071
1760959271.557472,6.057329066926223,0.1394377321619256,0.8869878386346627,0.2053472934917602,-43.85379505106066,47.72074230175685,-31.195929784443088
1760959271.5674615,5.710372527111786,0.11595245639268478,0.8661160694026543,0.20872349889084751,-44.9111364088657,49.707199996399375,-35.484717498972095
1760959271.5776396,5.315943729049992,0.08975514524059937,0.8548291981291214,0.20598866577285632,-45.147504248983076,50.76917951764436,-39.57261272847755
1760959271.58753,4.876378857577947,0.061414578104222343,0.8527300851238612,0.19815589786815274,-44.518924290381264,50.8595618882876,-43.40850047706033
1760959271.5974252,4.394804366048392,0.031876729412813345,0.8586832413067021,0.18646185167449544,-43.01569516621247,49.96832490467262,-46.932949642914224
1760959271.607443,3.875276886474667,0.002368476293479226,0.8709970286431403,0.17217581263122664,-40.662675509862794,48.12047448518,-50.07945377911762
1760959271.6177435,3.32283810427812,-0.02576714113956347,0.8876641765574341,0.1564182973166205,-37.5178230991449,45.37245190551846,-52.77756150894317
1760959271.627652,2.743458417304869,-0.051272667268894734,0.9066272899739776,0.14003254781781435,-33.669242102402755,41.80755341975161,-54.95761052200694
1760959271.6377265,2.1438632068699186,-0.07317610522436585,0.9260284431507272,0.12354379163876943,-29.2311345763386,37.53096769914089,-56.55664037132994
1760959271.6474533,1.531256515281201,-0.09094719746335006,0.9443993674854843,0.10721496704873303,-24.339112601349555,32.66481854924509,-57.52497301616495
1760959271.657442,0.9129748665886366,-0.10457394364915272,0.9607560972889466,0.091174588286134,-19.145237325124846,27.343182164117895,-57.83285675336094
1760959271.6673272,0.2961151850239324,-0.11453930432371492,0.9745824228287675,0.07556902856353419,-13.812918943113674,21.706638602724947,-57.47644552085478
1760959271.6776004,-0.3128164453449265,-0.12170070448344679,0.9857151335660232,0.06068686360738901,-8.511523747306905,15.895777542236823,-56.482263721826335
1760959271.6874943,-0.9081934462032921,-0.1270973210643349,0.9941706432734025,0.04701605987146252,-3.41032176992248,10.04339251052304,-54.90925357930513
1760959271.6972597,-1.4854642533065008,-0.13172686534989206,0.9999689842019128,0.035219053946278674,1.3286043640938945,4.265820453047072,-52.84760622973189
1760959271.707314,-2.0412393546220486,-0.13634077169489225,1.003012845987121,0.026036777639428573,5.558611442120377,-1.3452811782646232,-50.41391870095835
1760959271.71739,-2.573271058236932,-0.1413018250171818,1.0030647364679652,0.020151057548572496,9.157525058868346,-6.728853226544944,-47.742799124245664
1760959271.7273827,-3.080341664179329,-0.14653223495791196,0.9998347877057854,0.018040930792249346,12.036449823943386,-11.856128561432914,-44.97574174236807
1760959271.7373075,-3.5620861952182743,-0.15155818771442772,0.9931482575993951,0.019864565714969987,14.14689333326708,-16.726748154930867,-42.24870429970803
1760959271.7476132,-4.018782088052497,-0.15563593892686095,0.983121350423981,0.025390244019183827,15.48467012420158,-21.359084420882358,-39.68015547860917
1760959271.7575173,-4.451140047064641,-0.15792974691479114,0.9702661984721431,0.03399107882767245,16.08948767491966,-25.775997976954102,-37.361342034173056
1760959271.7677495,-4.860126747731889,-0.15770493802946065,0.9554822154536682,0.04470896179732463,16.039912093721988,-29.988569856360193,-35.35018965614602
1760959271.777583,-5.246841360131309,-0.1544992414154393,0.9399437168277193,0.056381311408063815,15.444296022244567,-33.98114442138589,-33.66968905145622
1760959271.7875552,-5.612456306357246,-0.14824138690691507,0.9249268508896923,0.06780906819143752,14.428994032795947,-37.7010623712586,-32.31093231688194
1760959271.7973027,-5.95822173656477,-0.13929730688826297,0.9116240517964057,0.07793183583848742,13.125650756224431,-41.05571244732234,-31.240260637853435
1760959271.807364,-6.285525166009839,-0.12843912807467692,0.9009833273328598,0.0859743034982663,11.659434318985177,-43.91812255596351,-30.40937077145719
1760959271.8173363,-6.5959925058761675,-0.11674688938450216,0.8935948366686988,0.09153840415742971,10.13976590796975,-46.140580161983614,-29.766797145938114
1760959271.827362,-6.891613071172655,-0.10546464208376188,0.8896351751071528,0.09463135067082537,8.654454845709807,-47.57415099284755,-29.268996692376287
1760959271.8375154,-7.174868415179404,-0.09584010283442612,0.8888718957714595,0.09563352784085914,7.267406863793492,-48.090809653253224,-28.889342769737127
1760959271.8473308,-7.448843479208941,-0.08897919258113055,0.8907240012734615,0.0952191425013714,6.01944362057747,-47.60440264391288,-28.623687049082868
1760959271.8574467,-7.717299154891965,-0.08574152335646966,0.8943662715770986,0.0942467813808296,4.931342939007887,-46.08688740025566,-28.491735201988988
1760959271.8677368,-7.984687927708497,-0.08668987117406053,0.8988584106691078,0.09363797886440284,4.007991226329165,-43.577137904026344,-28.5342009697984
1760959271.8773143,-8.256098524556068,-0.09209010063199753,0.9032774304546551,0.09426048261655502,3.2425491757737843,-40.180859297163,-28.806397641021
1760959271.8873494,-8.53712144021956,-0.10194472333114604,0.9068338967482461,0.09682940213311253,2.6197838653440124,-36.06156044429528,-29.36943424818684
1760959271.8974438,-8.833634931585268,-0.11603798209199036,0.9089569680624391,0.10183435228455437,2.1181742844943448,-31.423891533908176,-30.280401610991078
1760959271.907447,-9.151519850062703,-0.13397333924429342,0.9093375051481161,0.10949473482015269,1.710946967037909,-26.49181207298154,-31.58285467042081
1760959271.9173484,-9.496319956336837,-0.15519279210270737,0.9079244550398069,0.11973836246563678,1.3666868016643334,-21.484874125432516,-33.29861043173747
1760959271.927471,-9.872870713103834,-0.17897815525690308,0.9048796276078059,0.13219202273973488,1.050425248917169,-16.596227672317553,-35.421524042851544
1760959271.9372962,-10.284923949004513,-0.20444460516075127,0.9005076781932766,0.1461723125079446,0.7260366396137915,-11.975657988416877,-37.91360094951499
1760959271.9474094,-10.734799221113402,-0.23054397222908513,0.8951844881747378,0.1606765318915992,0.36040773330294806,-7.72008996069514,-40.703599106018544
1760959271.9573605,-11.223094800090285,-0.2560962301073977,0.8893025158062697,0.17439080249716704,-0.07070117808970518,-3.8727586485269727,-43.68814476451877
1760959271.967275,-11.74848902037652,-0.2798598196373582,0.8832380853700309,0.18574182705701833,-0.5758101720891143,-0.43090674422910297,-46.735275316453674
1760959271.9773529,-12.307653776599727,-0.30063719625567875,0.8773320080740121,0.19301271822362792,-1.141180597954239,2.6393946145057203,-49.69020208775152
1760959271.9873512,-12.895287837331264,-0.3173984859921065,0.8718696618676567,0.19452680940593853,-1.7262337097751261,5.383797107826508,-52.382952491553176
1760959271.9974902,-13.504263440674814,-0.32939974319794063,0.8670508766849415,0.1888839960451141,-2.2625401365393794,7.8389025705476305,-54.6374209553503
1760959272.0072615,-14.125870193547334,-0.33627444850002153,0.8629490918573973,0.17521661946788986,-2.657540171534275,10.013813469785893,-56.28127075519709
1760959272.0176551,-14.75013760811484,-0.3380844129261792,0.8594678981734803,0.15341956768110077,-2.8033853924171934,11.877363675889747,-57.15611983726784
1760959272.0273373,-15.366219964152744,-0.3353241204483467,0.8563080872623161,0.12430543632498776,-2.590311378077796,13.353462046397912,-57.1274855723509
1760959272.0372894,-15.962830416497834,-0.3288776490374641,0.8529593350921968,0.08964214382039178,-1.9228754298559607,14.32563250024744,-56.09397276223907
1760959272.0474367,-16.528711457228184,-0.3199305340708099,0.8487289398476998,0.052047103980258,-0.736439768711501,14.650370489558245,-53.99511430844351
1760959272.0573614,-17.05312431040172,-0.30984276460766497,0.8428168700386954,0.01473693782607217,0.9892253347505283,14.17759344600493,-50.81715883203133
1760959272.0674047,-17.52633163788816,-0.2999942720652039,0.8344418711354328,-0.01883931989835421,3.222121913046612,12.775355035158942,-46.596065521425544
1760959272.0773747,-17.94003938879697,-0.2916194200159472,0.8230161444700725,-0.0454292465558285,5.877907276795651,10.35522587574033,-41.41712243533285
1760959272.0874448,-18.287758653475073,-0.2856503230567463,0.8083546665621663,-0.06239846809822912,8.827920029213582,6.894508276362728,-35.41094970917902
1760959272.0973942,-18.56504952691996,-0.28258922342918563,0.7908906492018014,-0.06807537771779534,11.914231745243908,2.4519197012171468,-28.74607834999721
1760959272.1075876,-18.769616985968245,-0.28242745061181096,0.771854805587565,-0.06196633887590796,14.969330928230878,-2.8255159163699863,-21.618699529311833
1760959272.1173844,-18.90124371278228,-0.28462358835985235,0.753367296099495,-0.044814696470914246,17.837268677514142,-8.70523674829124,-14.240504813498285
1760959272.1274803,-18.961566904704046,-0.28814868998702414,0.7383918118548711,-0.01850489186949318,20.392893792851634,-14.881164343340025,-6.825773369488029
1760959272.1373093,-18.953734140479753,-0.2916035789305711,0.730516188983433,0.014164970374375297,22.556140426683932,-20.99363082473742,0.4209913917687611
1760959272.1473336,-18.882000768402893,-0.2934098887747652,0.7335549673949843,0.049806883244371845,24.299091760894107,-26.655285487321844,7.315552192304084
1760959272.1573737,-18.751346270918237,-0.29206567710103937,0.7510087828957934,0.08482362100827187,25.64458393261445,-31.480794730363527,13.701417397924802
1760959272.1674204,-18.56718013936758,-0.28643473108519635,0.7854489790028129,0.11580471503888796,26.656293948969072,-35.11813948466286,19.453608583209185
1760959272.1773477,-18.33517894713523,-0.27601317930420416,0.8379146105313944,0.1398940914659025,27.42148901306967,-37.279425346151115,24.47865737056767
1760959272.1875982,-18.061253991250535,-0.2611022200754541,0.9074166847463064,0.15508675571493372,28.02888592219875,-37.76918250077682,28.711526606068826
1760959272.1973279,-17.751604783081692,-0.24282339480211665,0.9906482472039173,0.16041818159387886,28.54532407773506,-36.508006132555806,32.110899710604784
1760959272.207277,-17.412780139223145,-0.22294528898591162,1.0819972857905849,0.15602119943437223,28.995959784844025,-33.5490739414266,34.65483377104905
1760959272.2174003,-17.051657154000427,-0.20354043754088183,1.1739402376696368,0.14303924882819194,29.35299270568458,-29.084769645556833,36.33883906803329
1760959272.2276113,-16.675265789760996,-0.1865438894234816,1.2578428315120211,0.12339961280814002,29.53703137822719,-23.440643624306038,37.177795470081854
1760959272.2374609,-16.290431229575365,-0.17332314603674207,1.3251080532471606,0.0994659204066856,29.432863270992364,-17.054549938354977,37.21179535120906
1760959272.2474918,-15.903265778463936,-0.1643782206957311,1.3685032969230229,0.07361113487178328,28.917955804252617,-10.4402620653172,36.514420873179965
1760959272.2574863,-15.518598602125765,-0.15926179739959093,1.3834047467387716,0.04778464879822767,27.898366616344834,-4.1373257933340195,35.20070661683155
1760959272.267445,-15.139466088871004,-0.15674610120541804,1.3686620491413681,0.02317847040548851,26.34396605223224,1.3478410246170278,33.43157246018384
1760959272.277559,-14.766785917206775,-0.15518474673291008,1.326846618421463,9.876815305243832e-05,24.313862384130474,5.601319077092927,31.411960031954646
1760959272.2875025,-14.39930291111801,-0.15295490141883666,1.2637997559486955,-0.021900817003975035,21.964178331011777,8.351214613415218,29.38106285417116
1760959272.2973864,-14.033834156184962,-0.1488437407811903,1.1875871896522883,-0.04365551932404188,19.533869078590193,9.497462282275867,27.59456521112615
1760959272.30743,-13.665771982457166,-0.14227208122206786,1.107117513808649,-0.06591281199273313,17.30945913043602,9.115409304790088,26.300384577525826
1760959272.3173022,-13.289746948243083,-0.1333130769337818,1.0307421938008088,-0.08890527649350469,15.575119320897883,7.432353516875232,25.710805092414475
1760959272.3274312,-12.900326888076348,-0.12253403850949604,0.9651181190513412,-0.11211878581860345,14.558796033944235,4.7824428418406075,25.974923345594746
1760959272.3373873,-12.492641338748378,-0.11073653820425894,0.9145081917040098,-0.1343281148626629,14.386711729467374,1.550067625608338,27.155853299938688
1760959272.347349,-12.062867737992029,-0.09868504716043358,0.8805676559607717,-0.15387449420830432,15.056761154034957,-1.8864180670404769,29.216945905721268
1760959272.3574967,-11.608575099540857,-0.08690360734292005,0.8625592635790799,-0.16908208073231237,16.43657521668571,-5.200386694426363,32.02015579704337
1760959272.3674688,-11.128963618093259,-0.07559195088197623,0.8578816379747948,-0.17867965103862077,18.28588958196247,-8.145688775903354,35.33765295350349
1760959272.377557,-10.625047366822043,-0.06467490609264918,0.8627764075640735,-0.1821098359985925,20.29733048891534,-10.56684874004639,38.87527452058684
1760959272.387643,-10.099805792111765,-0.05396074532423943,0.8730814055395462,-0.17965504016141678,22.146328590197466,-12.393256883993029,42.30419241328808
1760959272.3973277,-9.55829477211473,-0.04335318241839708,0.8849085387283113,-0.17236867567663475,23.54015392783289,-13.622591365616193,45.29592480770908
1760959272.4074993,-9.007675460010399,-0.033044557737323954,0.8951510224624605,-0.16185500840860698,24.257686792398754,-14.299554433901463,47.555818195451366
1760959272.4174602,-8.457099209191904,-0.023621438233121635,0.9017705770565237,-0.1499724113634297,24.174585957687714,-14.495249288720366,48.85114287849671
1760959272.4273791,-7.917385632765018,-0.016041251570017862,0.903867742686628,-0.13853341413197273,23.271941087562865,-14.290790906191573,49.03143213893747
1760959272.4375398,-7.4004505095776505,-0.011479494553506801,0.9015750459419467,-0.1290528424485606,21.629481799673368,-13.76677548934675,48.040079791896375
1760959272.447673,-6.918478047850337,-0.011082860556319903,0.8958251382195552,-0.12257484600824253,19.4065315416792,-12.998570173581042,45.91715487116521
1760959272.4574883,-6.482880960816468,-0.015684387775013645,0.8880460961207837,-0.11959644070694121,16.815072584183106,-12.056243815811245,42.79391717370424
1760959272.4673858,-6.103142860523953,-0.025545477139190604,0.8798377278432978,-0.12008981783717292,14.089661773857127,-11.007328195124552,38.879877273843306
1760959272.477545,-5.785680179838604,-0.04018838935774874,0.8726854289795362,-0.12360559356848337,11.458640121397778,-9.920401204382477,34.44365496436289
1760959272.4875336,-5.53288298077231,-0.05836541249237178,0.8677599609025212,-0.12942295080301097,9.120208947596513,-8.867657157784759,29.78937470688016
1760959272.4973888,-5.342484762173406,-0.07817476626816056,0.8658254914055946,-0.13670752272206294,7.225663574917306,-7.925102833125571,25.230773159288066
1760959272.5076363,-5.207369079158119,-0.09729224148303782,0.867243575387452,-0.144644250131019,5.870641145041218,-7.16968476938773,21.065428450197903
1760959272.517542,-5.115857738481435,-0.11326328065560842,0.8720359672798861,-0.1525265183964537,5.093920375715628,-6.673381296087034,17.55145396990277
1760959272.5273633,-5.052461415030243,-0.1238012428795399,0.8799645556937649,-0.15979941155898808,4.882315571523561,-6.494952403931561,14.888623417355067
1760959272.5374174,-4.99902284090744,-0.1270533652737948,0.8905983666462637,-0.1660684029440227,5.179660262223364,-6.670546764926567,13.205289292629313
1760959272.5474672,-4.936146216301671,-0.12181071774868603,0.9033563511926324,-0.17109103605757434,5.897807491968605,-7.204695978770551,12.551765496743508
1760959272.5573924,-4.8447783168896414,-0.10764574038511299,0.9175329251277549,-0.17476717918837814,6.927913504119553,-8.063379224198293,12.900216427499142
1760959272.5674336,-4.707787005657147,-0.08496530745926242,0.9323234016164852,-0.17713591768421486,8.150853980106113,-9.170783369033153,14.150621739089177
1760959272.577446,-4.511379647340805,-0.05497516163120905,0.9468633862544306,-0.17837881590057905,9.446220002351925,-10.411059269797727,16.142066416669607
1760959272.5874093,-4.246221647995714,-0.019562134784949243,0.960284161183234,-0.17882398731605928,10.699761881831936,-11.63575122227454,18.66836461719618
1760959272.5973759,-3.9081479158734744,0.018891728413959186,0.9717757145518957,-0.1789431724359316,11.809346262631166,-12.67668184656414,21.496778615876934
1760959272.6074567,-3.4984001244985814,0.05774475369743635,0.9806458248971223,-0.17933244909199464,12.68956172735089,-13.363036960291039,24.38832479523467
1760959272.6173532,-3.0233703023508167,0.09435708981001012,0.986365841480007,-0.18066665834531745,13.27515054185927,-13.540442791065065,27.11793066086014
1760959272.6274574,-2.4938877540038566,0.12634682667754493,0.9885993388561645,-0.1836214992368251,13.523452851092383,-13.089229096421077,29.49260694368749
1760959272.637472,-1.9241444071061784,0.15180601077506434,0.9872167843290858,-0.18876619987302576,13.415962201928123,-11.93903922273437,31.36589415548871
1760959272.6474082,-1.3303993495829243,0.16944705619590217,0.9823038394331189,-0.1964399111372233,12.95890665036363,-10.077542824233962,32.64716659461628
1760959272.6573732,-0.7296250779773905,0.17866311232483323,0.9741696354695025,-0.2066327901461509,12.18257393348134,-7.552082841403559,33.30490683261265
1760959272.6674728,-0.13825181975386355,0.17950226429526747,0.9633548669923239,-0.21889725135048316,11.139002201523567,-4.464346863674358,33.36373102173483
1760959272.6775403,0.42886568898415023,0.17257122963672236,0.9506312969530265,-0.23231593585270863,9.897732662184419,-0.9592805127322045,32.89567225992384
1760959272.6875505,0.9591857766826988,0.15889647486081318,0.9369785097502566,-0.245549498501027,8.539579569876565,2.7897725925327523,32.006941330981405
1760959272.6975183,1.4429077625215507,0.13977593408220043,0.9235240868450634,-0.2569780684752247,7.148769891218896,6.597434712403994,30.82199591127351
1760959272.7073457,1.873129438064314,0.11665043091239305,0.9114411056306156,-0.2649343683078274,5.804241899053347,10.28209079602389,29.46715135267925
1760959272.7175803,2.2458073752334635,0.09101133904610897,0.9018103951379529,-0.2680028922440323,4.571236354463576,13.679602582729665,28.056032025401773
1760959272.7273328,2.5595999354465104,0.06434416654509809,0.8954710131854141,-0.2653282517198574,3.49445423419487,16.654113539088275,26.678809495273278
1760959272.7375896,2.8156537152324326,0.038093705375853715,0.8928951273753823,-0.2568467598072016,2.5939489319677804,19.105708087332253,25.39644276673571
1760959272.747416,3.0173627176243447,0.013631753075560677,0.8941235049488807,-0.24335529401106018,1.8645604417590047,20.97503927564202,24.24019460090384
1760959272.7576368,3.1701019971738633,-0.007786605440586707,0.8987797030473672,-0.22638139972531623,1.2790860316376127,22.24514627543754,23.215775459244313
1760959272.767355,3.2809221862275155,-0.025083016609776555,0.9061537378518387,-0.2078961680156939,0.794621727131994,22.940627367522474,22.31077239191445
1760959272.7774065,3.3581884339348234,-0.03742805095934866,0.9153269573759275,-0.1899634098354996,0.3608538760384547,23.124226038685617,21.503675481977055
1760959272.7874591,3.41115407141361,-0.04431433909635319,0.9253073142135929,-0.1744185857793206,-0.07123144986390322,22.890845872253472,20.772823472613503
1760959272.7974963,3.4494720543026904,-0.04561568693009659,0.9351524474352169,-0.16263761900419185,-0.5416691918760931,22.3591097830951,20.103869486172627
1760959272.8075912,3.482662934737965,-0.04161725350999223,0.9440675978756325,-0.1554178896427315,-1.0759474689794872,21.66080910635333,19.49479862494231
1760959272.8174686,3.5195750156984325,-0.033004605159340915,0.9514721201014813,-0.15296481011000387,-1.6821419837010685,20.928880824508735,18.957999490488227
1760959272.8277836,3.567887447232566,-0.020804318575688055,0.9570329883887806,-0.15495999688756829,-2.3508581598785145,20.2848415984829,18.519325030338205
1760959272.8374126,3.633715343405029,-0.006275811551852386,0.9606679547621593,-0.1606805313429589,-3.0576792451367862,19.826845037049495,18.214446315345974
1760959272.8475354,3.7213728154896164,0.009237291915223893,0.9625247484362888,-0.1691403736643185,-3.767511099515785,19.619664281041423,18.083106770820823
1760959272.8573885,3.8333319821332097,0.024478471670510708,0.9629447117775679,-0.1792308118375166,-4.440019740047916,19.68788505196428,18.16211597059629
1760959272.8674455,3.970383428153786,0.038445848846295934,0.9624193544741602,-0.18984385345955027,-5.035310631463211,20.013387061616797,18.47804906078828
1760959272.8773646,4.13196260041597,0.050525339388539627,0.9615472140391118,-0.1999690536873895,-5.519121226285783,20.537781224530185,19.04061236288692
1760959272.8874805,4.316569870556404,0.06056246968144377,0.9609965148213071,-0.20875972276596894,-5.867049339646073,21.169878350120058,19.837506666083005
1760959272.8975112,4.5221918394062355,0.06885700667842876,0.9614760756729163,-0.21556861790302592,-6.067621523735599,21.797565039549845,20.831406771049256
1760959272.907635,4.746633895407565,0.07607955652566627,0.9637124410384805,-0.21995605630352363,-6.124216687395668,22.30278180484196,21.95941918987262
1760959272.9176154,4.987697881800164,0.08312437623511473,0.9684261831997073,-0.2216747406682262,-6.055948746679698,22.57778153907012,23.135103415997314
1760959272.9275818,5.243177757686319,0.09092501805092607,0.9762968964549238,-0.22063571925117534,-5.897592940076373,22.54060267144294,24.252866834469923
1760959272.9375217,5.51069104976618,0.10026680086035701,0.9879065582162229,-0.21685987285650102,-5.698574336560854,22.147770672311676,25.194312448895595
1760959272.9475312,5.787403908742713,0.11163054305032788,1.003655580309817,-0.21042032479864362,-5.520989441081912,21.402632459883883,25.835987283611193
1760959272.9574757,6.069732470049575,0.1250946696834203,1.023655442315549,-0.20138358784854643,-5.436638514920948,20.358350951416007,26.05796025655817
1760959272.967515,6.353106264991757,0.14030930047720794,1.0476153424058159,-0.18976042495929574,-5.523104059224083,19.115300388214813,25.752688065729423
1760959272.9775622,6.631861335741523,0.15654105299265966,1.0747527144232802,-0.17547944386766923,-5.858994381285983,17.81325411947074,24.83360738503813
1760959272.9875903,6.89930071084575,0.1727768748287697,1.103760484067676,-0.1583943925520923,-6.518558509195912,16.619250430942063,23.242777207914962
1760959272.9974272,7.14792946289986,0.1878705960904116,1.1328534310311258,-0.1383281471631605,-7.5659658862597166,15.712354308248756,20.956750320213214
1760959273.0075827,7.369845403385168,0.20071253955144,1.1598972060639348,-0.1151450119762541,-9.049637184125757,15.266755962178154,17.989802989334734
1760959273.0174522,7.5572424062555505,0.2103968439731351,1.1826062069636478,-0.0888340803455241,-10.99710196512993,15.434800599466824,14.393790402011295
1760959273.0275328,7.702960644991405,0.2163559699489629,1.198786097060367,-0.05958419770394271,-13.410905237226448,16.331607905582153,10.254245348796754
1760959273.0375621,7.801001787354628,0.2184328836089725,1.2065921461702849,-0.027835076434385358,-16.26604202297377,18.022841434680874,5.682862721999223
1760959273.0474544,7.846924966337135,0.21687144626385604,1.2047723898605813,0.005703926523199968,-19.509251968198356,20.516860038921532,0.8071201784266513
1760959273.0574458,7.838055868350646,0.2122229508838299,1.19286325150017,0.04006920417588149,-23.060276968525883,23.76193006559733,-4.241652930011396
1760959273.0674152,7.7734751795386225,0.20518676193935495,1.1713061210459639,0.07408999416617468,-26.814926231992366,27.648513013229664,-9.340058029837632
1760959273.0773222,7.653796019601864,0.196420141140575,1.1414592430105077,0.10646327027677889,-30.649590318049675,32.016061417924114,-14.3824649852189
1760959273.0874264,7.4807817058347315,0.18636267269648402,1.1054918739572246,0.13585253860948326,-34.42677411024168,36.66340681296698,-19.287389874066953
1760959273.0974038,7.256885507615657,0.1751219266627234,1.0661662227372752,0.1610049433535201,-38.001264657991044,41.36170347423954,-23.99952642097238
1760959273.1075332,6.984807061892786,0.16245697556679412,1.0265332376142544,0.18087549890941412,-41.22661817996308,45.868872799461236,-28.487356394333222
1760959273.1175013,6.667153304370232,0.1478733154881571,0.9895849220602464,0.19474032773692557,-43.961679155757786,49.944480859254746,-32.73705214624561
1760959273.1274853,6.306265769682351,0.13080943134015258,0.9579144753656875,0.20227844415372573,-46.07686785423101,53.36400784138097,-36.74399477179388
1760959273.1378243,5.904236204230787,0.11086363480230615,0.9334354311770257,0.2036061888015904,-47.460039967621086,55.93160688534994,-40.503583394247094
1760959273.1475697,5.4630887623910205,0.08799548915400274,0.9172017902981379,0.19925601054235015,-48.021798557257995,57.49068619409018,-44.003069314261836
1760959273.1575253,4.985070723441878,0.06264481496147029,0.9093529797042693,0.19009857604306166,-47.70015676728452,57.931893620280874,-47.21591136513208
1760959273.1676874,4.472972041871836,0.03573521041145633,0.9091841825368332,0.17721625516822911,-46.4644195773057,57.19828194873324,-50.09965720319621
1760959273.177591,3.9303900374166822,0.008557620378316795,0.915320603450488,0.16174911692908434,-44.31812536510726,55.28758805394918,-52.59769533992561
1760959273.187612,3.3618690389366845,-0.017442846909227178,0.9259582585177143,0.14474724335795952,-41.300849794145684,52.25167451643634,-54.64452701798757
1760959273.1975436,2.772872675982402,-0.04093048358182231,0.9391261750028035,0.12706689907265084,-37.488590355244376,48.19323184699932,-56.1736344089341
1760959273.2076004,2.1695824429564623,-0.06093314682620079,0.9529258508810698,0.10933778838032471,-32.992377968789064,43.259789697310744,-57.12668162619748
1760959273.217398,1.5585524287991286,-0.07702806163951106,0.9657122617786643,0.09200574514160051,-27.954818634483352,37.634960752113166,-57.462684398802594
1760959273.2275825,0.9462797545400214,-0.08941543203335606,0.9761958236079588,0.07542769503639565,-22.54447951952397,31.526764744801973,-57.16586131430684
1760959273.2374227,0.33876800805232243,-0.09886127457866953,0.983465365356449,0.059976482966832244,-16.948288627522228,25.15302631260455,-56.25106774006868
1760959273.247571,-0.2588364641557356,-0.10651962634823942,0.9869528815196498,0.04611260308191943,-11.362290134606237,18.724332552483926,-54.76597427891903
1760959273.2576501,-0.8424689269704747,-0.11366994166856775,0.9863735348703164,0.03439696633644596,-5.981187560272422,12.425853403634681,-52.78948300578368
1760959273.2679358,-1.4091921866060602,-0.12142369154641942,0.9816748714181632,0.025441901254005073,-0.9872104781083892,6.400254540608255,-50.42630432929169
1760959273.2775986,-1.9570619660762236,-0.13046221562915786,0.9730185419444359,0.01981538989760475,3.4609756404014917,0.7346137728335783,-47.79816412326854
1760959273.2874866,-2.4848494133234196,-0.14086329798089484,0.9607988537514687,0.017923435076857758,7.238365137567948,-4.545666095635829,-45.03271767019323
1760959273.29786,-2.991691806272483,-0.15205604224654318,0.9456801635443439,0.019900128933945344,10.261611429094387,-9.473710618582315,-42.25175109753984
1760959273.3074281,-3.476759556027126,-0.16291597350420753,0.9286190192984594,0.025535484153864998,12.49389545410372,-14.12814555087053,-39.56046273383054
1760959273.317812,-3.9390218476894203,-0.1719818768307986,0.9108366230711153,0.034265554844924655,13.945916914346668,-18.61160287820453,-37.03944730985948
1760959273.327427,-4.37716565820515,-0.17774995354288825,0.8937235047047918,0.045236437304422075,14.67264164277581,-23.02411281165709,-34.74051353592479
1760959273.337445,-4.789682609975599,-0.1789850990167148,0.8786831069756078,0.057434839215869504,14.765848504529684,-27.436011216295483,-32.68680148827241
1760959273.3473902,-5.175098869167999,-0.17498681611151112,0.8669444929728882,0.06985760237769603,14.343060947395465,-31.86532979551718,-30.876991517056723
1760959273.3573515,-5.532296609324612,-0.16575848718224456,0.859389122313238,0.08167799098920808,13.534185987306026,-36.26396691082881,-29.29282205221017
1760959273.3675814,-5.86086553623624,-0.15205009776680609,0.8564365525601353,0.09236511878941875,12.467886555515774,-40.5153652246561,-27.908705323182627
1760959273.3774912,-6.161426619761896,-0.13527084395135686,0.858016319170702,0.10172761042453998,11.2599331271345,-44.444263348259064,-26.701956262053223
1760959273.3877249,-6.435881697802889,-0.11729341330687261,0.8636241582936178,0.10987809208911153,10.005261531102855,-47.83683524805388,-25.662046133955293
1760959273.3975115,-6.6875569311345044,-0.10019020815255976,0.8724347059017599,0.11713927184447241,8.77441740779395,-50.467689191793866,-24.797397050022035
1760959273.4075332,-6.92122207457514,-0.08594983160542032,0.8834326187196453,0.12392465956079889,7.61398885056954,-52.129133007808086,-24.13857275404407
1760959273.417588,-7.142980037820909,-0.07622039028507666,0.8955308999576012,0.13062551953508547,6.549903783001583,-52.6579799217933,-23.73726352134441
1760959273.4277349,-7.360032438645255,-0.07211753602703594,0.9076610137678343,0.13752596566587752,5.592197281562272,-51.95589163344033,-23.661119437509665
1760959273.4376435,-7.58033728843481,-0.07412185032694947,0.918835224877179,0.1447570788978654,4.739951977651663,-50.00058174210412,-23.985140518253434
1760959273.4475121,-7.81218453497415,-0.0820735079616974,0.9281911200709023,0.1522921514396159,3.9854676518350876,-46.84683380934584,-24.780862305036326
1760959273.4574897,-8.063723126755368,-0.09525467730415793,0.9350284256591166,0.15997741860068107,3.3172195859223983,-42.61795065249078,-26.104875100287078
1760959273.4673362,-8.342478276908174,-0.1125357537244248,0.9388414899752011,0.16758288045178232,2.721701193371124,-37.48971287021632,-27.98823147292919
1760959273.4773507,-8.654898532299585,-0.13255373565474518,0.9393439660855445,0.17484768723298733,2.1846890854737455,-31.669995199645392,-30.428064013442942
1760959273.4874382,-9.00596889070928,-0.15389131915340762,0.936480602260628,0.1814928290504613,1.69269651226949,-25.377706013216724,-33.38235611926954
1760959273.497421,-9.39891938422734,-0.17523235762487777,0.9304241049606571,0.18718805386396029,1.2352977572477661,-18.82456679380988,-36.76838782863589
1760959273.5078692,-9.835048978114102,-0.19547927578647623,0.9215584573768035,0.1914852365282416,0.8086099510400799,-12.20245665433749,-40.46496681465955
1760959273.517466,-10.31367249810616,-0.21382666867306643,0.9104508415991583,0.1937522609955778,0.41963034389157894,-5.677791183949107,-44.318152551983026
1760959273.527626,-10.8321848436139,-0.22979153523753318,0.8978129609090761,0.19314863613538835,0.09051573701102494,0.6070546019133785,-48.14980067435914
1760959273.5376148,-11.386225272388499,-0.24320590312043522,0.8844514943944629,0.18867489009573218,-0.13857159757796952,6.526675035288159,-51.767965128984976
1760959273.5473914,-11.969918434209259,-0.2541826418292475,0.8712081381468496,0.179307213417397,-0.209562088978206,11.962421395949386,-54.978096561367046
1760959273.5574498,-12.57616889509394,-0.263068090697633,0.8588917057876748,0.1642040039616109,-0.05071748269213167,16.792142815878446,-57.59410766575313
1760959273.567437,-13.196989713235373,-0.27039270280195543,0.8482066225891719,0.1429480164477217,0.4145464876694401,20.882895977014012,-59.448679120328805
1760959273.577579,-13.82384896163149,-0.2768225592011734,0.8396827256885743,0.1157711115330422,1.2548817996640673,24.088937310452852,-60.40250835907036
1760959273.587579,-14.448017675910029,-0.28310458382207226,0.8336108295689432,0.0837024549768693,2.51610155208639,26.256193291622466,-60.352384557938024
1760959273.5974286,-15.060898588765918,-0.28999311313571935,0.8299891120826914,0.04858963118036145,4.207003661642268,27.23313846058039,-59.23790009609555
1760959273.6075616,-15.654310095443066,-0.2981484767338278,0.828488735138728,0.012966591460791106,6.2892685851909,26.88684320581373,-57.04632350044797
1760959273.6174726,-16.22069767062673,-0.3080082531378439,0.8284514968297643,-0.0202222070005597,8.674403216948601,25.122043041928002,-53.81484345633301
1760959273.6275723,-16.75324829984451,-0.3196457800662715,0.828933481755383,-0.04799622520618535,11.229427717424931,21.900506711489875,-49.62927603880852
1760959273.6376643,-17.24589447917238,-0.33264454860677134,0.8288042118712526,-0.0677422166176125,13.79113336948987,17.25781198810221,-44.618558611873844
1760959273.6474423,-17.69321328901855,-0.3460265595275553,0.8269019630429332,-0.07757176373390669,16.186845102483375,11.314932251760045,-38.94492560493719
1760959273.6575933,-18.090250021463955,-0.3582727006599437,0.8222353072000976,-0.0765720849982325,18.25825164992046,4.282749860435346,-32.79043532482319
1760959273.6674051,-18.432318400706873,-0.3674605379833455,0.8142101915373287,-0.06491517737159486,19.884300854002984,-3.541439919566374,-26.3413113923835
1760959273.6775067,-18.714842571025905,-0.3715202496152074,0.8028523985414758,-0.04381910012924728,20.999381535034473,-11.7854484373158,-19.772192386286353
1760959273.6874912,-18.93330399352413,-0.3685791486966845,0.7889890228808045,-0.015379905100123636,21.603839208701434,-20.021046193609916,-13.232686834889085
1760959273.6975553,-19.08333898651461,-0.3573394273246896,0.7743499668352855,0.017690076919191007,21.765059703688998,-27.788990076158733,-6.838512256304595
1760959273.7076576,-19.161004909747778,-0.3374201861250947,0.7615504565692074,0.052374121565334365,21.60869324601193,-34.6287408441878,-0.6689181954227778
1760959273.7177136,-19.163202121542014,-0.3095956847908011,0.7539212942083816,0.08567179758768628,21.30094449570545,-40.11110739995227,5.2289343666101065
1760959273.7274964,-19.088210790195635,-0.27587522569827244,0.755171150417285,0.11489547940287269,21.02411289555245,-43.87174802442924,10.829303541957733
1760959273.7375503,-18.936278953324326,-0.23939261245761836,0.7688952125520289,0.13791769981906093,20.948600617248527,-45.64308571781713,16.11293366425356
1760959273.7473423,-18.71018043505817,-0.20410091957462226,0.7979798618446826,0.15334865517802526,21.205266245504507,-45.28181879330304,21.050943016166734
1760959273.7574537,-18.415647848988133,-0.17429799717249206,0.8439852773120323,0.16062755493753594,21.862160710179708,-42.789003494347284,25.591133457903847
1760959273.7676601,-18.061579161271258,-0.15403637158140007,0.9066100324770037,0.16002055666510578,22.90925938667207,-38.319846588665484,29.650176356845837
1760959273.7776008,-17.659921513009724,-0.14649446188393586,0.983348198250258,0.15252962324564548,24.25384245416262,-32.18097927253467,33.1142918784226
1760959273.787686,-17.225159624980545,-0.1534010100026224,1.0694372115575217,0.1397250653247941,25.727868308431752,-24.814062722731187,35.84959698401036
1760959273.7974386,-16.773382661491542,-0.17460871141438677,1.1581633429378764,0.12351878661716688,27.107273398239336,-16.765952990713494,37.721459612485376
1760959273.8076475,-16.320972573237142,-0.20790466764476734,1.241540414600713,0.10589876138990166,28.141721854635303,-8.647085299897364,38.620256073144176
1760959273.8174727,-15.883039605676338,-0.2491229056520121,1.311307231630627,0.08864969868814722,28.591844986185606,-1.0809615601524298,38.48922219626596
1760959273.8275578,-15.47180692812187,-0.2925843979517607,1.3601079637685762,0.07308975368407886,28.269410574887306,5.351456811288452,37.34897572698606
1760959273.8374393,-15.095191515754024,-0.3318305121853321,1.382646888635662,0.059859184598701945,27.074406676530895,10.167842367523365,35.31313213411965
1760959273.847392,-14.755825480881976,-0.360545233787632,1.376574872573723,0.04880367072415939,25.02229389477864,13.035504437850093,32.590537172064586
1760959273.857436,-14.450708581587474,-0.37350346054240047,1.3428998974028648,0.03899631672424888,22.25525805421477,13.810693988557732,29.472021363032695
1760959273.8674858,-14.171587984972438,-0.3673638458640655,1.2858228985332107,0.028927060806841428,19.033416989944612,12.559235500070082,26.302756395540904
1760959273.8775046,-13.906042228932924,-0.3411570465719175,1.2120463653368077,0.016850027247899104,15.705346133406014,9.552806484172484,23.44433258688471
1760959273.8874002,-13.63912535848159,-0.2963933557834358,1.1297263776958715,0.0012267454923264502,12.661288164816572,5.238597116363074,21.232657850084575
1760959273.8974986,-13.355330142670237,-0.23679976903563055,1.047296206556348,-0.018841472496514515,10.27605811552067,0.18494176925891054,19.93824331639292
1760959273.9074137,-13.040577853785413,-0.1677650289973757,0.9723778142065941,-0.04331116503470301,8.851103144202511,-4.989671402185357,19.734536914679442
1760959273.9173875,-12.683946938844842,-0.09560603377557347,0.910940311132268,-0.07111325326774295,8.565898964880335,-9.693488448030319,20.678257729820974
1760959273.927486,-12.278910922231724,-0.0267738662368482,0.8667897733249152,-0.10031437624201488,9.447612976629747,-13.43251833284329,22.703768013523383
1760959273.9374738,-11.823951850864749,0.03289491157604334,0.8414041134878812,-0.12847775222854765,11.364798958571434,-15.865263303220082,25.63171429553523
1760959273.9474382,-11.322526459657274,0.07879720884521833,0.8340732535357732,-0.15312550295316876,14.046370033805966,-16.83391878639411,29.190512092475597
1760959273.9574726,-10.782463092928023,0.10799379067439618,0.842274118151477,-0.17218694301879714,17.12224861093872,-16.369098417597844,33.04773237320936
1760959273.9673393,-10.214938025455734,0.11941939459458298,0.8622000166146601,-0.18433562593137426,20.178070431018618,-14.669528675224761,36.84720884929332
1760959273.977427,-9.633210913886085,0.11386585862291079,0.8893673093316369,-0.18915892703049403,22.814077632139192,-12.061757465142888,40.24700418876969
1760959273.9874084,-9.05129611972861,0.09375212278309865,0.9192293560232931,-0.18715096155992816,24.69834311694764,-8.947194588154517,42.953495021281284
1760959273.9975111,-8.482723963185393,0.06271334427746034,0.9477324167808452,-0.17955849257605588,25.606486933519044,-5.744661416839467,44.74775513608971
1760959274.0076156,-7.93951337657369,0.02506322152740125,0.9717516692579504,-0.16813134215931796,25.44322455023012,-2.8363115912805137,45.50186099533428
1760959274.0174458,-7.431435263430447,-0.014791654050191429,0.9893552132805993,-0.1548333999799796,24.24446758837906,-0.5236287469475631,45.18434750056905
1760959274.027494,-6.965594931448928,-0.052891893766363184,0.999866617766666,-0.14156447313697676,22.16166993634324,1.0015552761588753,43.85549286496317
1760959274.0375473,-6.54631126069432,-0.08613513979442866,1.0037313640569698,-0.12993326681228332,19.43243673864492,1.6683528688830185,41.65420841560315
1760959274.0473847,-6.175231356815639,-0.11250242858850909,1.002230037169581,-0.1211088452265818,16.342969083110535,1.5204076578577952,38.77898390984895
1760959274.05751,-5.851598138525239,-0.13108908847600684,0.9971085623448768,-0.11576141512132135,13.188554242116028,0.6944189989904687,35.465626030423074
1760959274.0676587,-5.572584060214463,-0.14196536099169849,0.9902037769987677,-0.11408540552482754,10.237937311150645,-0.6116271868570953,31.964490653376647
1760959274.0776103,-5.333614084563437,-0.14591701157290532,0.9831303852649035,-0.11588287902514939,7.70612489011034,-2.1745946578990374,28.51958398262674
1760959274.0876234,-5.128623413777393,-0.1441276732454436,0.977071197617423,-0.12067708835874857,5.7382632380823875,-3.7807391090226723,25.35130434389315
1760959274.0977068,-4.950230166410585,-0.1378656072514139,0.9726867251960265,-0.12782659569887994,4.405082622313714,-5.253652461508732,22.643777709579677
1760959274.1076167,-4.789846877851737,-0.12823039172402914,0.9701370559481377,-0.13661907529672337,3.7084238378385592,-6.47222781055531,20.53688181541707
1760959274.117639,-4.637796141966227,-0.11599931337170656,0.9691889568611654,-0.14633656856744506,3.593956934712012,-7.377178895419936,19.12237738809896
1760959274.1276865,-4.483518493218917,-0.10158981297528738,0.9693677581517738,-0.15629530652313298,3.967610645796225,-7.966547317350749,18.4432129459999
1760959274.1375766,-4.315952730182863,-0.08512859816424449,0.9701121590676144,-0.1658698427553207,4.7124499256359496,-8.282278075635032,18.495062471092375
1760959274.147488,-4.124128992767417,-0.0665963089758558,0.9709003371370745,-0.1745119928289207,5.70354645562854,-8.391143118879885,19.229418367620248
1760959274.1574495,-3.8979527745886147,-0.046002819668493594,0.9713309101655474,-0.18177097283029595,6.81946577715784,-8.363886843645059,20.557962001582595
1760959274.167594,-3.629093461351024,-0.02354568747289712,0.9711564611010394,-0.1873153842880289,7.950046359816321,-8.256375141746732,22.358312839890118
1760959274.1774223,-3.311848685954618,0.0002848616164030937,0.9702784987252959,-0.19095348626243788,9.000945333407108,-8.095800724881762,24.48146139854104
1760959274.187557,-2.943851596101209,0.02467090805510993,0.9687198241799935,-0.19264648234662574,9.895845849106292,-7.873842039227916,26.76111373375994
1760959274.1974537,-2.5265169849014573,0.04849955055542576,0.9665916145854958,-0.1925099701636093,10.577255467417741,-7.547385446622811,29.024820045901922
1760959274.2073922,-2.0651645944036465,0.07045135651529551,0.9640676910922055,-0.19080087016352468,11.00657894512493,-7.046234156518331,31.106262485214394
1760959274.2175353,-1.5687984231957581,0.0891296108632443,0.9613700222496252,-0.18789020652892294,11.163780747069174,-6.286252162886008,32.85762787769895
1760959274.2276766,-1.0495563719759997,0.1032132516767885,0.9587619745768321,-0.1842248105412009,11.046607006457567,-5.185679671598743,34.16073550860629
1760959274.237432,-0.5218758320301842,0.11161377270314853,0.9565420090474552,-0.18028278116097846,10.66911565894499,-3.6819715846480685,34.935596522084474
1760959274.247456,-0.0014454504825403966,0.11361615927297146,0.9550302317964277,-0.17652832498053175,10.059230410405045,-1.7465020552634423,35.14536086801385
1760959274.2574172,0.49597085876985153,0.10898654414668166,0.9545422729896357,-0.1733711696009875,9.255208798685427,0.6051660894292528,34.797119836353076
1760959274.267396,0.9557422263483212,0.09803231597916433,0.955349122296475,-0.1711341483381023,8.301239538796068,3.309094958281023,33.93865820031534
1760959274.2774098,1.3655098856886105,0.08160342659886952,0.9576273719849474,-0.1700306397155556,7.242711538055823,6.255652094172038,32.65180329039884
1760959274.2873764,1.7161534628103727,0.06102886436133894,0.9614096899192052,-0.17015213670027302,6.121861767525056,9.298854509485205,31.04334986844694
1760959274.297406,2.0024882900044054,0.037991225202712135,0.966547391587916,-0.17146536302785903,4.974443683752747,12.271165879227294,29.234635139442677
1760959274.3075705,2.223619755304946,0.01435431596450621,0.972694644069265,-0.17381787602528334,3.827821796548803,15.001668666458105,27.35078985909468
1760959274.3174593,2.38291951258804,-0.008029511484170328,0.9793191419113485,-0.17695129052656683,2.7006093729397467,17.3349998882762,25.51059699140543
1760959274.327462,2.487637422408592,-0.027499503537282616,0.9857403505354551,-0.18052236780018327,1.6037127991797748,19.148365733334455,23.817781884615705
1760959274.3374827,2.5482099867798675,-0.04272441118875974,0.9911948221902518,-0.1841335545929373,0.5424479267150036,20.364326383331825,22.354403913328284
1760959274.3474262,2.5773592446036515,-0.052779367913977276,0.9949268487867519,-0.18737477001283984,-0.4807572138845599,20.957762995938502,21.17678118987255
1760959274.357451,2.589088255737787,-0.05715867853158838,0.9962992678670235,-0.1898759916755838,-1.4636380439408083,20.95635105442748,20.314074758440118
1760959274.367515,2.5976674793349597,-0.05573939159777881,0.9949123728613195,-0.19136442725411212,-2.401865716353578,20.434798902363386,19.76934374296056
1760959274.3774,2.6166759022041104,-0.04872475253854977,0.9907104580771894,-0.19171198276030976,-3.287651851293767,19.503928004511664,19.522609024477003
1760959274.3873873,2.658129126084481,-0.03659687659378743,0.9840518443467948,-0.19095497320560076,-4.109296339872172,18.296284851263902,19.535268602631703
1760959274.3974786,2.731715232322104,-0.020089444154459533,0.9757249776181592,-0.18927602219181372,-4.85166504572386,16.95032948975136,19.755129105059815
1760959274.407567,2.8441752052700164,-0.00016520531712345873,0.9669065593376815,-0.1869546788590691,-5.497595990217551,15.595311398645917,20.12137873022414
1760959274.417646,2.998891228554376,0.02202981259219053,0.9590675477170976,-0.18430531703990083,-6.030242818335605,14.338726089619948,20.569020365960597
1760959274.4275815,3.195754802095917,0.04525321740944694,0.953836258170053,-0.18162073876056753,-6.436228041702403,13.257801675213706,21.032558902235657
1760959274.4376903,3.431360358480018,0.06828796436210384,0.9528302085520531,-0.17913177264191213,-6.709221289263442,12.395878874925245,21.44899833205596
1760959274.4476547,3.699515529058036,0.09007227074570423,0.9574729869159424,-0.17698407149234793,-6.853340939398352,11.763887570034086,21.76034825922874
1760959274.4577103,3.9919988192949187,0.1098053877020206,0.9688165436120831,-0.1752266162626336,-6.885730517459546,11.346429662823855,21.915819350613116
1760959274.4675698,4.2994511253023076,0.12700490581361076,0.9873896715637984,-0.17380315536890992,-6.837790326127876,11.111320493457642,21.87374495605786
1760959274.4775882,4.612271504631553,0.14150673689164803,1.0130894034427247,-0.1725383412422306,-6.754777771240721,11.020941070494915,21.60309416914103
1760959274.487711,4.921401702665508,0.153415615992218,1.0451253973276082,-0.17111466312399112,-6.693756406661923,11.043528976551643,21.0843234200045
1760959274.4976237,5.2189207982733254,0.1630266973328589,1.08202188071382,-0.16904415500586797,-6.720123755991269,11.1626298340139,20.309299053659306
1760959274.5076103,5.498416538501702,0.1707430245219669,1.121680617660097,-0.16564878776595873,-6.903128829972312,11.383295313070583,19.280133697987598
1760959274.5176356,5.755137953098958,0.17700764749603645,1.1615098588725654,-0.16007117033545462,-7.3108554736203875,11.73414305292248,18.007000595243124
1760959274.5276542,5.9859569168158915,0.18225682514737745,1.198621530000725,-0.15133654013312395,-8.005099213375312,12.264982012688115,16.505257119188006
1760959274.537696,6.189177604682193,0.1868894456589905,1.2300873937666028,-0.1384746299327923,-9.036466213540173,13.040289453855543,14.792423004182986
1760959274.547614,6.3642392100702825,0.19124242343746914,1.2532282397022763,-0.12068970790825205,-10.439953704962461,14.129380089958618,12.885634449955658
1760959274.5576239,6.5113611942959,0.1955626419655025,1.2658972018665762,-0.09754813948185152,-12.231272432389623,15.594608433478108,10.800087097789895
1760959274.5674484,6.631179246524234,0.19997117087123636,1.266715428426577,-0.06914272428911608,-14.404221426926163,17.479323608050553,8.548697603752657
1760959274.577649,6.724412098290804,0.20442292725853214,1.2552257600647303,-0.03619376455646117,-16.929456192019906,19.79744309439302,6.142830547917433
1760959274.5876367,6.791586340895504,0.20867229743448074,1.2319438070265951,-5.696179046748686e-05,-19.7549291555414,22.526333291622656,3.5935855203819767
1760959274.597513,6.832833269529049,0.21225965657070436,1.1983016239093471,0.037374514920372755,-22.808093777682046,25.604180276660045,0.9129578268922196
1760959274.6075528,6.847762267530694,0.2145326481079731,1.1564951693597243,0.07386579349539123,-25.99969261409039,28.93232850167351,-1.8857353406627273
1760959274.6174347,6.8354097906319735,0.21470929729657026,1.1092609238679945,0.10710664599380866,-29.228685637921192,32.382329150908966,-4.788438990390969
1760959274.6274805,6.794260412265747,0.2119803131024688,1.059614789546462,0.1350072299384423,-32.387695750783834,35.806783551933336,-7.781759055865378
1760959274.6374748,6.722335507924978,0.20563834602010791,1.010584978125345,0.1559753372948378,-35.36829626587332,39.05253823241797,-10.854559789028258
1760959274.647466,6.6173444604096385,0.19521417599459331,0.9649637844814882,0.1691284576625989,-38.06556407826689,41.974440034023154,-13.998946396169412
1760959274.6573887,6.476890754770125,0.18059485724217622,0.9250968922048758,0.17440343121798377,-40.38156659760691,44.447758257951776,-17.209906691548355
1760959274.6674232,6.298719938382879,0.16209783155508903,0.8927250277047336,0.17254382434052284,-42.227781927908474,46.377562075162416,-20.483207215233598
1760959274.6774278,6.080989377825038,0.14047972468234504,0.8688895724169923,0.1649674271918637,-43.52676478708761,47.703803610340024,-23.811599894741207
1760959274.6875668,5.822534125582781,0.11687067908226084,0.8539095601738151,0.15353760773606084,-44.213547555506146,48.401577898344684,-27.179893348158053
1760959274.6975524,5.523101395816311,0.09264236579245146,0.8474321213836161,0.1402772336753552,-44.23723916945594,48.476937291905095,-30.55986685385217
1760959274.7075922,5.183527858036467,0.06923293093397137,0.8485512933594402,0.12707148692529507,-43.56308799296133,47.95954503377621,-33.90624138636877
1760959274.7175038,4.805837458632116,0.04795888422943251,0.8559798612429157,0.11540868461357448,-42.17501837435885,46.89408377729866,-37.15489617569218
1760959274.7276032,4.393242172403832,0.029842691273145795,0.868246686095892,0.10620608407580288,-40.078438756657484,45.33245465430789,-40.22422284188253
1760959274.7376175,3.950034950926695,0.015479598063358909,0.8838835679084671,0.09975528498500089,-37.30299158265964,43.328347462024354,-43.01999145114847
1760959274.7473736,3.4813740601483265,0.004960474622514237,0.9015673799432168,0.09579608692367313,-33.90485164180377,40.93486269849272,-45.443461789448975
1760959274.7573915,2.9929707554866236,-0.002139754656244786,0.9201954357919122,0.09369535532464386,-29.968140254313496,38.204790818748364,-47.4018427347919
1760959274.7674067,2.4907068602763087,-0.006705161666629931,0.9388889804168887,0.09268197161283362,-25.604978177146524,35.19224854413078,-48.819705710031045
1760959274.77749,1.9802235129477788,-0.009956748026425058,0.9569352905301667,0.09207978611643981,-20.953652592134784,31.953968047250907,-49.64967165650465
1760959274.7875297,1.4665337045751967,-0.013276376589675438,0.9736912159359477,0.09148765358272562,-16.174375248573075,28.54880602178443,-49.880657597989796
1760959274.7975554,0.9537145764411769,-0.01799723244076147,0.988480239366937,0.09087239335458669,-11.442240351656299,25.034888346905014,-49.542214101304886
1760959274.807633,0.4447270823325208,-0.02519053245590188,1.0005195756809266,0.090560373214607,-6.937311958920435,21.46490004086809,-48.70400609229146
1760959274.8176265,-0.05860997813886871,-0.03548444057963512,1.0089102929991705,0.09113394259013151,-2.832287342862218,17.880957138733287,-47.47023123216422
1760959274.8275409,-0.5554938074532011,-0.04895128309005079,1.0127104682750343,0.09325893691275185,0.7211850146147132,14.310913632038996,-45.96961596425591
1760959274.837672,-1.0458924133151626,-0.0650899316783491,1.0110898997017657,0.09748493916854531,3.6058871808305217,10.767707423955471,-44.3424201501255
1760959274.8475258,-1.5302375751082322,-0.08291162862549155,1.0035377949913977,0.10406549637923011,5.7501815222112596,7.2525389115142165,-42.72644003683175
1760959274.8575985,-2.009124773475571,-0.10111557109211708,0.990069144381215,0.11283890067438804,7.135118078013207,3.7616037639538185,-41.24416664687875
1760959274.86775,-2.4830860925285574,-0.11832309541744145,0.9713622208017816,0.12319488652928234,7.796185544406051,0.29510376733823596,-39.9929642363096
1760959274.8775167,-2.9524850451840523,-0.13332893139712332,0.9487687068019328,0.13413516467005657,7.819133811285481,-3.1334025610958465,-39.03947071111812
1760959274.8875878,-3.4175516833816775,-0.14532295590723135,0.9241713914954847,0.14441981205934637,7.330174225226751,-6.4894371294214,-38.41859602110149
1760959274.897741,-3.878537620507469,-0.15403755475374561,0.8997118922834733,0.15277542611215003,6.481782684285402,-9.713674116238346,-38.136706170664134
1760959274.9075809,-4.33593700198597,-0.15978930112372158,0.8774527461651759,0.1581238013642061,5.436109584661228,-12.722845451346675,-38.177950540086336
1760959274.917596,-4.790705056629124,-0.16340901524363133,0.8590569419112601,0.15977921539470877,4.348396547202258,-15.415790709253478,-38.51228226840081
1760959274.9277508,-5.244413787389815,-0.16608153280701277,0.845557834543923,0.1575686006034079,3.352671986523321,-17.683965860282097,-39.10358295205489
1760959274.9376101,-5.699306111108459,-0.1691343178551309,0.8372611897537485,0.15185201678923957,2.551419554150883,-19.424798904512432,-39.91646307981263
1760959274.9478023,-6.158235010277541,-0.1738185030812616,0.833784477973268,0.14344916167753635,2.0101123951402298,-20.555636438598494,-40.9207390373268
1760959274.9576197,-6.624497118109455,-0.18112009138449484,0.8342091858550716,0.1334985106972543,1.756704242196221,-21.025819877250697,-42.09317159339008
1760959274.9676206,-7.101587641174433,-0.1916277405631415,0.8373036958686478,0.12328346836292056,1.7854963932870718,-20.824712487520546,-43.41662621997334
1760959274.9775646,-7.5929133386531475,-0.20547028364111775,0.8417664446073938,0.11405654672102354,2.0643192441502847,-19.984226377178867,-44.87724712907539
1760959274.987816,-8.10150112448597,-0.22232375983137764,0.8464409559306495,0.10688422849970457,2.5436922503484087,-18.575444052595202,-46.46046517731788
1760959274.9975479,-8.629732730857304,-0.2414760125500691,0.850465325789596,0.10252652535136123,3.166535085218732,-16.700083870375245,-48.14669804212911
1760959275.0073836,-9.179124778816531,-0.2619296388803035,0.8533370375518472,0.10135711317194661,3.877095479955813,-14.478569577869083,-49.90750666468089
1760959275.0175416,-9.750163806459012,-0.2825230113780653,0.8548954828869159,0.10332328862687594,4.6280673134509005,-12.037078852938363,-51.70280786133339
1760959275.0276237,-10.34220007971352,-0.3020526442480221,0.855242983457224,0.10794277763955376,5.385355625984653,-9.495993078659241,-53.47954157719974
1760959275.037633,-10.953401485284001,-0.3193853327425063,0.8546353104969383,0.11433724742133818,6.130436313127832,-6.961658976762285,-55.17195701047546
1760959275.0477934,-11.580767834946105,-0.3335542052114308,0.8533731484052011,0.1213063788781758,6.860583692482817,-4.522491317909511,-56.703438581352216
1760959275.057606,-12.220206113329116,-0.34383876235014166,0.8517180948313826,0.12744669380741597,7.587364093982636,-2.249454472906857,-57.98960373535595
1760959275.0675528,-12.866667989227405,-0.34983239275439804,0.8498440508838642,0.1313135289960422,8.333788421234274,-0.20008543921516453,-58.942321883152545
1760959275.0775144,-13.514350058918989,-0.35149854202180636,0.8478219416784887,0.13161332429860717,9.130430917255604,1.5753903639810167,-59.47431491847776
1760959275.0877247,-14.15695212242238,-0.349209259218328,0.8456269424591876,0.12740087266490374,10.010694869905663,3.027589185533097,-59.50404247538515
1760959275.097757,-14.787978305325895,-0.3437513279510969,0.8431547097038574,0.11824827513089738,11.005353858101481,4.102862378038668,-58.96059160316241
1760959275.1075277,-15.401052059619364,-0.33628039259667525,0.8402355483193703,0.10435272007187094,12.136646486403013,4.740965777253919,-57.788260335458446
1760959275.1174958,-15.990204002758587,-0.32820661061240736,0.8366406709242123,0.0865587471614535,13.41254473829114,4.8763528688097955,-55.95046282206337
1760959275.1274889,-16.550086962826715,-0.32100838350631034,0.8320810525152407,0.06628549448277524,14.822189106632612,4.443188877585841,-53.43252973736093
1760959275.1376543,-17.076078916924047,-0.31599113839159887,0.8262057156022148,0.04536759681243964,16.333673538118465,3.383421997142821,-50.242985624909196
1760959275.147574,-17.564251449395798,-0.31402932767731784,0.818610780799433,0.025834787091755816,17.895204416852557,1.6566899964808262,-46.4129964914102
1760959275.1574454,-18.011205805077715,-0.31534425561429047,0.8088714569031571,0.00966442503124845,19.44011312641947,-0.7493976673845463,-41.99388895231557
1760959275.1675184,-18.41380588884323,-0.31937279191170975,0.7966066181620322,-0.0014583267683050678,20.895400028382483,-3.810009254611555,-37.052896961456995
1760959275.1775048,-18.768862108929458,-0.32477089541147464,0.7815819518285066,-0.006342758461205634,22.19266118490255,-7.456042686040978,-31.667558170078344
1760959275.1875913,-19.07283628092608,-0.3295726654580021,0.7638534137505426,-0.004433453946398193,23.279611643435448,-11.570139640305507,-25.91946347068697
1760959275.1977708,-19.321642025875153,-0.3314945849364317,0.7439445559602267,0.004127446515357245,24.130103081952843,-15.986325108376123,-19.888352531075515
1760959275.2076273,-19.51060624876557,-0.3283430024428471,0.7230351616658836,0.018524509917908764,24.75061035063117,-20.49362816980181,-13.647764381679007
1760959275.2174637,-19.634637073714913,-0.31845884994044,0.7031160531879774,0.037375003680485255,25.181647775078268,-24.843928446046505,-7.263462942503863
1760959275.2274923,-19.68861454604868,-0.30112140177563373,0.6870460319551067,0.05889744857523213,25.49339023059199,-28.764165337984668,-0.7955499685572139
1760959275.2375114,-19.667984736336383,-0.27683269135174743,0.6784456511726409,0.08111235549506289,25.775740472940956,-31.972833270508186,5.695504116893737
1760959275.2476006,-19.569499358085782,-0.24741643840667887,0.6813866303123527,0.10204286707220006,26.124022505126355,-34.20032790999686,12.13968956575789
1760959275.2575715,-19.392008654201497,-0.21589138624271717,0.6998801283632184,0.11989279499674237,26.62225839191989,-35.21221392846548,18.44703591924004
1760959275.2675555,-19.137192841321884,-0.18611656907250118,0.7372170093742315,0.13319450666246807,27.326495322883336,-34.83387534462939,24.498695486033892
1760959275.2774842,-18.810110907528415,-0.16224766352935613,0.7952538574598329,0.1409282123491385,28.250808229577643,-32.97436014144606,30.14260505151626
1760959275.2876604,-18.419455280096983,-0.1480804478688902,0.8737630108571577,0.14261281078511087,29.35838983964538,-29.646679864251535,35.196398101856666
1760959275.2975562,-17.977426396168575,-0.14638327465207815,0.9699737451740498,0.13836104067598676,30.55959337330529,-24.981522025119794,39.45909227840614
1760959275.3075361,-17.499182347631912,-0.15833135007668483,1.078425226111787,0.128884368948162,31.717991836030436,-19.23140362385751,42.731333094173834
1760959275.3192172,-17.001873371144438,-0.1831490150308748,1.1912255842411517,0.11542954154354398,32.66458039019992,-12.762816865133976,44.841992898728975
1760959275.327717,-16.5033329418345,-0.21804205922995032,1.29875942279825,0.09963213770231436,33.219275623998236,-6.0349089244522185,45.677178819588924
1760959275.3375156,-16.020556741956128,-0.25846199146893417,1.3908062312131144,0.08328450314232452,33.217840203706686,0.4353419970686069,45.206611233286715
1760959275.3476026,-15.568146563827566,-0.29869036480656747,1.4579319545372982,0.068035115015525,32.541197278252106,6.119705629486016,43.50216376374113
1760959275.3575752,-15.156919186796388,-0.3326689693556868,1.492918455372777,0.05506267235853197,31.142867301194027,10.53319586331899,40.744244932075304
1760959275.367584,-14.792874781996959,-0.3549424726223654,1.4919396773911844,0.044797615678966285,29.069330835896995,13.290394219425519,37.213609894525405
1760959275.3775506,-14.476682462751842,-0.36154150047028916,1.4552173669362836,0.03678170708932099,26.468056998595557,14.155536498651504,33.26877247636384
1760959275.3875792,-14.203773600084341,-0.3506340073693348,1.3870032515966577,0.029739074794388136,23.57920449969062,13.077438819350606,29.3117951386319
1760959275.397523,-13.96504507417227,-0.32281716356531215,1.2949038209474,0.02186893841794832,20.7096547075019,10.201482128283228,25.74716862955398
1760959275.4075716,-13.748079481596918,-0.2809976086714315,1.1887231938616194,0.011283505708520816,18.191609876941293,5.8543696142381,22.93935198561933
1760959275.4174933,-13.538704741863805,-0.2298900570018128,1.0790906103011138,-0.003547622461437421,16.331694279207053,0.502621971054244,21.1743799172536
1760959275.4276438,-13.322659737214192,-0.17523261004127924,0.9761407299071023,-0.023483861172723188,15.35944148003394,-5.308670832919367,20.63010762135107
1760959275.4375505,-13.087122932050828,-0.1228637631969329,0.8884460108573473,-0.048604856131086366,15.385346413703044,-11.026134616695574,21.358495809968222
1760959275.4475822,-12.821905839190988,-0.07782963690827056,0.8222987254815822,-0.07829347121976316,16.377596667531925,-16.15507319780855,23.281970823301062
1760959275.4575408,-12.520201963575714,-0.04368566568160751,0.7813421083295522,-0.11142993822076976,18.163036622660446,-20.312001813678968,26.204250911081825
1760959275.4677148,-12.178886315849939,-0.022118457802339897,0.7664855899265172,-0.1465925612582384,20.45263213753491,-23.25537912472675,29.83407520050028
1760959275.4775054,-11.798450030798573,-0.012944771730335968,0.7760259122278454,-0.18218465691690716,22.886268557305794,-24.892253495344505,33.818306524869534
1760959275.4875212,-11.382705226598786,-0.014461523632691979,0.8059290865956136,-0.2164700104707699,25.087851715298136,-25.263535896720963,37.779518186797176
1760959275.4975555,-10.938390576961075,-0.0240412245369425,0.8502811638417759,-0.24757339885693558,26.720391005429004,-24.51430998202231,41.35293562285543
1760959275.507577,-10.474747300480656,-0.038808518098187784,0.9019504441665478,-0.27354729473355216,27.531887639471186,-22.857352137858033,44.21851606909571
1760959275.5176992,-10.003046931654856,-0.056217003497657174,0.9534775601335017,-0.29258309298477114,27.385532339670867,-20.537770084903467,46.1255674417891
1760959275.527649,-9.535986783653383,-0.07438776541859693,0.9981067002779648,-0.3033530054587162,26.271021214965682,-17.80469754917703,46.90901220495389
1760959275.5377233,-9.086864866012629,-0.09216226363523145,1.03074649904449,-0.3053606539794954,24.297135916511685,-14.89295174411654,46.49766664484623
1760959275.5477808,-8.668503543314333,-0.10892197052359588,1.0486088654701504,-0.2991376165109586,21.66866544697823,-12.014342836451982,44.91546480336303
