timestamp,angle,linear_acceleration_x,linear_acceleration_y,linear_acceleration_z,angular_velocity_x,angular_velocity_y,angular_velocity_z
1760596817.9980137,-3.6408019682075,-0.09399992627238955,0.9735665053753817,-0.09331539489929488,9.164314801648741,11.245109982477913,-16.633030808811156
1760596818.0080075,-3.8883719416263727,-0.10458034075268652,0.9693096858489503,-0.08947053972316768,8.979890364204437,12.547245704643872,-16.891766409741685
1760596818.018042,-4.143998585602327,-0.11362739995150774,0.9684444087544388,-0.08676554709761425,8.879173182972293,13.632785962835724,-17.119986022956027
1760596818.0280082,-4.402665813267455,-0.12031335203188853,0.9707932102908616,-0.08538461305943555,8.828306328499034,14.342023364890673,-17.27936213283728
1760596818.0380232,-4.6578779849722665,-0.12396737686673819,0.9758239785928883,-0.08545045721565513,8.78815961365279,14.540862089100523,-17.3361688274756
1760596818.04804,-4.902099805228206,-0.12412749866217725,0.9827417561201761,-0.08700930307746559,8.718814318221703,14.138891741073264,-17.264667211581063
1760596818.0580318,-5.127326028889302,-0.12057922105201462,0.9906037597292654,-0.09000872187520258,8.584447235474334,13.102465950285795,-17.049803732386337
1760596818.068051,-5.325753982331478,-0.11338601324183702,0.9984382819530836,-0.09427970856918406,8.357876859875425,11.46118352996508,-16.688886433104
1760596818.0780237,-5.4905247767518786,-0.102912029746199,1.005351172899296,-0.09953450247886553,8.024104039846396,9.306985580062577,-16.192077182150435
1760596818.088037,-5.616478808984585,-0.08982902245337723,1.0106093509449243,-0.10538462807285506,7.5823686716973375,6.785853468401889,-15.581724532748742
1760596818.0980213,-5.700845723183053,-0.07509514347070734,1.0136965527937043,-0.11137572411695629,7.046447164500304,4.082921369765417,-14.890670904115819
1760596818.1080067,-5.743773320487245,-0.059896972246502894,1.014340809487744,-0.11703207919972249,6.443109427769663,1.40269063026567,-14.159689473688202
1760596818.1180124,-5.748603668180761,-0.045554642898754445,1.0125157996836096,-0.12190415105478895,5.808881366586577,-1.053242175087555,-13.434206385952718
1760596818.1280308,-5.721828305895577,-0.03339840048710985,1.008419963312772,-0.12561377462478912,5.1855284031264715,-3.108176297702191,-12.760507082255335
1760596818.1380694,-5.6726927732116845,-0.024630634860944363,1.002438720524876,-0.12789259215720883,4.614924772002982,-4.629354202029638,-12.181722368462708
1760596818.1480513,-5.6124668984959944,-0.020190195530264198,0.9950963799423806,-0.12860956214717087,4.134115975536584,-5.541896760196754,-11.734000155120805
1760596818.1580508,-5.553444076897801,-0.02063598293961332,0.9870047194631383,-0.12778369020415759,3.7713605376047217,-5.8361916648585845,-11.443327800799413
1760596818.1680386,-5.507772326585368,-0.02606463616589742,0.9788140479908238,-0.12557874467174382,3.5437449715142786,-5.568136400307338,-11.323424015343528
1760596818.1781332,-5.486245141241728,-0.03607282978904428,0.9711698207124314,-0.12227822278687714,3.4566488343191106,-4.8524697452397785,-11.374963070371766
1760596818.1880589,-5.497186722553135,-0.04976897430684513,0.9646747323312997,-0.11824174989587218,3.5049756897849806,-3.8501622014314756,-11.586175674443401
1760596818.198023,-5.545554103402663,-0.06583326326482009,0.9598542690680957,-0.1138481728420643,3.6757436635969696,-2.7513969163947514,-11.93465929897335
1760596818.2080178,-5.63235209511944,-0.08262028583392357,0.9571238024202025,-0.10943443448306413,3.9514102316367676,-1.7560067486555895,-12.390080701409929
1760596818.2180202,-5.7544217867503775,-0.09829521943576865,0.9567568641995344,-0.10524112817427513,4.313225973225989,-1.0533261293978609,-12.917386703541787
1760596818.2280731,-5.904624431658427,-0.11099238153924007,0.9588558753325893,-0.10137473163751498,4.743972189037222,-0.8032996842567105,-13.480143716905411
1760596818.2380624,-6.072403842860727,-0.11898330411407806,0.9633274938908304,-0.09779361177743102,5.229608646103459,-1.1204276680262952,-14.043672534239857
1760596818.2480335,-6.244677080643978,-0.12084143770610656,0.969865301602044,-0.09432092514694647,5.759601006595351,-2.0617916125752065,-14.5777073273108
1760596818.258043,-6.406981640369359,-0.11559309161513479,0.9779436373737632,-0.09068288551275527,6.325979079182202,-3.620047585666307,-15.05837457666811
1760596818.2680352,-6.54479931545605,-0.10284765559067474,0.9868279968311751,-0.08656608953150517,6.921463502974496,-5.721928145634815,-15.469355790492592
1760596818.2780597,-6.644975506729328,-0.08290091772602977,0.9956082929614067,-0.08168410304858462,7.5372340067384975,-8.232465204429122,-15.802166296416246
1760596818.2880635,-6.697147830559098,-0.05680208539404332,1.00326005706969,-0.07584251978726815,8.161015225226452,-10.964831118017461,-16.05554977807602
1760596818.2980235,-6.695085046808931,-0.02637067739526017,1.008734994665535,-0.06899298917433143,8.776059326200064,-13.695366786392475,-16.23405478043955
1760596818.3080156,-6.637820162325225,0.005852331145995433,1.0110767644888021,-0.06126913040742336,9.361310630343198,-16.182971770676552,-16.345926267200365
1760596818.31802,-6.530447597188489,0.036731820929172564,1.009551472008249,-0.0529998835076075,9.89263521751348,-18.19155190626275,-16.400511832104417
1760596818.3280504,-6.384450636152832,0.06274981664733861,1.0037767319932875,-0.044698611114819854,10.344631515294623,-19.513710309773614,-16.405444301479413
1760596818.3380516,-6.217436595383633,0.08029698438670418,0.9938301463911767,-0.0370300402478904,10.692352215563215,-19.99344788740047,-16.363912678265983
1760596818.3480322,-6.052186220753739,0.08603114112485573,0.9803185571189467,-0.030761867771452234,10.912372419369593,-19.545464539546153,-16.272363113998352
1760596818.3580284,-5.9149759168892615,0.07727888837845838,0.9643925885008299,-0.02671017558962807,10.98302478568812,-18.168828340209217,-16.11896602568322
1760596818.3680794,-5.833214571026319,0.052440967190662026,0.9476960335403282,-0.02568443015234875,10.884053051706646,-15.953223038754773,-15.883109011025946
1760596818.3780377,-5.832552768677742,0.011342453321366276,0.9322473303292332,-0.028431392773307498,10.59605667774722,-13.076478480549383,-15.535994143295996
1760596818.3880556,-5.93375339017297,-0.044544295628276345,0.9202603862181904,-0.035573495031579784,10.099829193606341,-9.792607222671668,-15.042171389169225
1760596818.398014,-6.1497236638489845,-0.11207088605135651,0.9139208791359654,-0.04753786644158531,9.375379124928102,-6.410387384696544,-14.361652849650245
1760596818.40805,-6.483165253063429,-0.1866195472396754,0.9151382247705422,-0.06447526908000813,8.400462096316977,-3.2638668401364805,-13.452235967643507
1760596818.4180388,-6.925278920958758,-0.2625469882838792,0.9252927504445927,-0.08617252462752291,7.148870297363558,-0.677815481336358,-12.271812493229685
1760596818.4280727,-7.455851644398826,-0.3338215492744721,0.9449968665886797,-0.11196778534222629,5.589210945509797,1.0674462206631152,-10.780645474119572
1760596818.438034,-8.044856031572822,-0.3947651203047301,0.973893935993244,-0.1406851279657635,3.685132094849739,1.7668215527380997,-8.943733418813402
1760596818.4480767,-8.655427806604886,-0.4407792576175002,1.0105303111838266,-0.17061232346657426,1.3977939160967312,1.3122469002609962,-6.733373818992639
1760596818.4580255,-9.247811364141587,-0.46892814966238894,1.052347520492614,-0.19954953710972276,-1.3091016395278499,-0.2976458491881026,-4.1318862225018735
1760596818.468029,-9.783652069345235,-0.4782749412409959,1.0958395195228576,-0.22495003224834131,-4.462096786473147,-2.961181035357779,-1.1342320225547937
1760596818.4780152,-10.229938718928224,-0.46991665061266985,1.1368942023470525,-0.24415199076153493,-8.069711546579406,-6.489521809218159,2.249905848800617
1760596818.4880226,-10.56199098131082,-0.44672257917823277,1.1712928276903416,-0.2546700443000986,-12.114871585601907,-10.631678934832737,5.995051696641303
1760596818.4980145,-10.765112585779518,-0.412835895263348,1.1952929647360728,-0.2544920219837469,-16.549950304626808,-15.104229644222375,10.060226707799472
1760596818.5080192,-10.83481363588717,-0.3730358487972005,1.2061894684785657,-0.24232237755467015,-21.295903531958203,-19.62107639149415,14.390750579257931
1760596818.5180178,-10.775762102282112,-0.3320716988535241,1.2027463025205813,-0.21772871977758224,-26.2460442235352,-23.919391943422365,18.921474006257043
1760596818.5280237,-10.599800599371257,-0.29406752945456477,1.1854202655774135,-0.18117465813740669,-31.27395145942113,-27.779361144803662,23.581123053259653
1760596818.538051,-10.323443181653447,-0.26206781212378166,1.1563422721428787,-0.13395154412511542,-36.244230910930185,-31.03679035528184,28.297235624968206
1760596818.548034,-9.965261126888084,-0.23776197366595422,1.1190638336541754,-0.07804402406903174,-41.02455219933692,-33.58867162692295,33.00105837660425
1760596818.55804,-9.543503349385356,-0.2214024137735942,1.0781065764595414,-0.015972387003232887,-45.497486379486126,-35.392366935201416,37.63174997057237
1760596818.5680814,-9.07420314097347,-0.21191288731491426,1.038373851009241,0.04935355286296824,-49.57086965508653,-36.45949398534201,42.139280582082066
1760596818.5780342,-8.56991879559163,-0.20716660948006624,1.0044999023040209,0.11475623751724105,-53.18552930475983,-36.8460327603416,46.485548883670766
1760596818.588044,-8.039154813488679,-0.20439333151542272,0.9802231113975783,0.1769045184675117,-56.31928800395642,-36.64052438438888,50.643487074026005
1760596818.598029,-7.486421638242283,-0.20065503807942484,0.967872935807431,0.23246172727130493,-58.98645240602278,-35.95222821763196,54.594264863278156
1760596818.6080601,-6.912821661957186,-0.19331723793930025,0.9680529039935999,0.27831001880444567,-61.23260587195508,-34.90062524185147,58.32305735920887
1760596818.6180182,-6.317002267561167,-0.18044319023772804,0.9795807483818149,0.3118578454952634,-63.125235107607175,-33.60692569897057,61.81412760307687
1760596818.6280203,-5.696295436347999,-0.16105331472219575,0.9997074559247917,0.33138332303956575,-64.74115007949128,-32.18761167409851,65.04613312804796
1760596818.6382008,-5.047867297057344,-0.13521645926532416,1.0245803210245144,0.33633229726973835,-66.15175701683818,-30.749667023667016,67.98857363892478
1760596818.6480365,-4.369725813638973,-0.10396657646306083,1.049855806254619,0.3274912822425675,-67.4074471426312,-29.386897411153267,70.60017232593904
1760596818.658011,-3.661473781168173,-0.0690650927691204,1.0713370558606723,0.306976409427272,-68.52306235124692,-28.176527623080403,72.82975953333697
1760596818.6680417,-2.924740049780702,-0.03265577681291449,1.085528756677997,0.278013632106873,-69.46728769039994,-27.175238029848213,74.6199008554803
1760596818.6780305,-2.163268636376524,0.003119969219702064,1.090047744337603,0.2445335380257067,-70.15903589624995,-26.414192889225436,75.91305862980877
1760596818.6880205,-1.3826891604179177,0.03647297773826036,1.083860716277173,0.21064523048418882,-70.47289741749461,-25.893379658380706,76.6595359238828
1760596818.6980839,-0.5900292882491629,0.06621937090481336,1.0673325630197774,0.18007269633823278,-70.25382462324332,-25.57638887173788,76.82596528182421
1760596818.7080119,0.20694338373762436,0.09190160180714305,1.0420839772841588,0.1556484549888247,-69.33916187951311,-25.387255130866745,76.40285468429853
1760596818.7180247,1.0004493095543303,0.11377274978928592,1.0106850420293816,0.13896459329176594,-67.5845848817928,-25.21096204388977,75.4098065284385
1760596818.7281747,1.7833945033643779,0.13266309763042924,0.976236918068856,0.1302548914107036,-64.889767644386,-24.898719914171007,73.89744541783543
1760596818.7380438,2.5499491160826273,0.14976133626453952,0.9419044597524189,0.12852113294308729,-61.219596920446264,-24.27834965043673,71.94566796133607
1760596818.7480373,3.2959397755894053,0.16634912009468183,0.9104631982147589,0.1318562764844078,-56.617309524472795,-23.169272747677503,69.65838958934694
1760596818.7580557,4.019016906525939,0.18353158150621277,0.8839222794187241,0.13788489807498125,-51.206943794991616,-21.400844915009174,67.15539930712984
1760596818.7680397,4.718590811121777,0.20200771782046115,0.8632799569957366,0.14423604184728975,-45.183992504018136,-18.83210381801048,64.56221616178382
1760596818.7780707,5.3955617915458784,0.22191955687580386,0.848453603537056,0.14897175547875993,-38.795079295807845,-15.370450960380012,61.999011742279244
1760596818.7880924,6.051895163791707,0.24280556488915406,0.8383980034969388,0.1509075787092779,-32.30958210813647,-10.986489101666159,59.56977456702449
1760596818.798098,6.690109077899553,0.26366514527468965,0.8313883025920364,0.149779039656762,-25.987872351384027,-5.72240392564008,57.35294925350838
1760596818.808039,7.312751105341207,0.28312345672168704,0.8254077059569974,0.1462349453916985,-20.051624611553674,0.3079717775145505,55.39473046606771
1760596818.818013,7.92193787325367,0.29967158161091645,0.8185556628301693,0.14167360426353576,-14.661123612559182,6.928029840162851,53.705954253989
1760596818.828012,8.519018521162826,0.31194411730708677,0.809389957646419,0.13797136614072392,-9.902821350403032,13.9153237670054,52.263070172094565
1760596818.8380475,9.104396902907713,0.318985093259331,0.7971409945473462,0.13716868339850313,-5.788179014136804,21.02428204956666,51.013038024853614
1760596818.8480275,9.677514470607164,0.320450072829832,0.7817790428375259,0.1411700497417378,-2.2627147794459352,28.011354212544592,49.88130560901567
1760596818.8580277,10.236965447333125,0.3167025773796864,0.7639536733906959,0.15148839663886135,0.7774055058243335,34.65876614385959,48.78148052871564
1760596818.8680174,10.780696397344363,0.3087845209519689,0.7448437628720874,0.16904060798098194,3.4647686336623247,40.79329317776064,47.625082639010316
1760596818.87804,11.306236097029142,0.2982654032026227,0.7259572457682186,0.19399576350720374,5.939767675076133,46.2974200180674,46.329918219613134
1760596818.8880637,11.810906785280784,0.28699610593388386,0.708911680720567,0.22569208911698677,8.33238753173337,51.11171542431283,44.82607612780898
1760596818.8980675,12.29198173638042,0.2768085565699193,0.695217823787472,0.26265348274654876,10.74858218373983,55.228778353132384,43.05915268021133
1760596818.9080389,12.74677457521152,0.26921404381672087,0.6860828870179119,0.30273004750395466,13.261545009448547,58.680328240205846,40.990927484650975
1760596818.9180663,13.1726694765716,0.26515758657616173,0.682248576329213,0.34335681111133054,15.906918386258733,61.51971356038331,38.5982441319119
1760596818.9280186,13.567122094076986,0.2648764062263945,0.6838795586853245,0.38188975435370226,18.68069896818422,63.80225472297362,35.8711982260609
1760596818.9380786,13.927671977899148,0.26788700281943445,0.6905172031692118,0.4159587027443602,21.53932557713765,65.56555074180275,32.811788177598025
1760596818.94808,14.252005210708013,0.2730971604100123,0.7011069062797246,0.4437775815338776,24.402450793455273,66.81151269012479,29.433896129268575
1760596818.9580457,14.538092546025748,0.27901681244057724,0.7140946829464485,0.4643648945856744,27.15925143830729,67.49182115116942,25.764921211925817
1760596818.968045,14.78440737525096,0.2840292662577806,0.7275780144414764,0.4776390511338313,29.678502390654003,67.49876901227056,21.848751732126082
1760596818.9780579,14.990203264198719,0.28668023784131663,0.7394965732441003,0.4843619203736147,31.821577550460916,66.66360917927678,17.749173772407143
1760596818.9880452,15.155806210273022,0.2859428420001216,0.7478580222841592,0.48591999197160723,33.45689617053096,64.76407813089567,13.552339980585643
1760596818.9980276,15.28285701154292,0.28142081983456246,0.7509988899072475,0.48396512075731496,34.47442268534513,61.541630734637984,9.366649472441528
1760596819.0080566,15.374431054266267,0.2734624225450308,0.7478706144315916,0.4799800160477734,34.79930414347988,56.7274851529742,5.318483703146269
1760596819.0180128,15.434973269680151,0.26317516955335973,0.7383197866500061,0.47486855329716726,34.40408105946754,50.075344093418686,1.5428643332235006
1760596819.028014,15.470017643916716,0.25235227210327266,0.7233109290741725,0.46867813943688147,33.3188620918772,41.39795825524575,-1.830761187952435
1760596819.0380352,15.48570833573263,0.2433347285889511,0.7050296983355446,0.46053109583324625,31.63839575338553,30.604624657449666,-4.695993503445398
1760596819.0480723,15.488189246293606,0.23883078975380254,0.6868106232206999,0.4487822710876186,29.524326064497153,17.737101858249936,-6.987350734090456
1760596819.058043,15.482961335140661,0.24169720532650776,0.672860928401946,0.4313555648911146,27.200538908321157,3.0018023532999942,-8.695032796839566
1760596819.0681217,15.474306587204977,0.25466590035184417,0.6677965666524439,0.4061700380879912,24.93986633249,-13.20405232325809,-9.873372105542913
1760596819.0780513,15.464844630055948,0.2799927640772297,0.6760497655884818,0.37155860853682765,23.04168695255345,-30.275507513873997,-10.640934531419894
1760596819.0880425,15.455240833527123,0.3190225831056856,0.7012293759273969,0.32660095615781215,21.801888330214624,-47.396607164497475,-11.171824973286068
1760596819.0980215,15.444047362058962,0.3717006867410158,0.7455146072714715,0.2713229077583582,21.47868507126316,-63.55619825063022,-11.679181748152311
1760596819.1080453,15.427645924842594,0.4361023895072546,0.8091543388847781,0.206748111320379,22.259231200881345,-77.58831703361724,-12.392824257572531
1760596819.1180239,15.400272183817338,0.508082337754987,0.8901397077867562,0.13481791188145367,24.232268903785602,-88.24121650435802,-13.533640091984683
1760596819.1280682,15.35412465215118,0.5811593072539888,0.9841142139111341,0.05821651652949478,27.371149974907997,-94.2757881652443,-15.287764529898018
1760596819.138064,15.279580652565183,0.6467417022138293,1.0845726265253448,-0.01985248892549063,31.52996539728592,-94.5892882896227,-17.783950261099474
1760596819.1480575,15.165548450986362,0.694760399296464,1.1833713168396638,-0.09589941703587777,36.45386718597845,-88.3547336463707,-21.07756386825647
1760596819.1580794,14.99997539663508,0.7147110214978882,1.271530880629474,-0.1663761539443153,41.80322656438308,-75.16102461721219,-25.144095573170038
1760596819.1680527,14.770511544936229,0.6970280610855414,1.3402644138442767,-0.22790829192349046,47.1898477242652,-55.13464726170545,-29.883694311963424
1760596819.1780586,14.465305929422733,0.6346302785060047,1.3821173725488622,-0.2775509868079579,52.22169282684089,-29.021620056337895,-35.136054835145934
1760596819.188034,14.07389538750098,0.5244003787231856,1.392061580743699,-0.3130779835514789,56.55044028828434,1.7908025546342194,-40.70248957626228
1760596819.1980267,13.58813387471472,0.36831088013091884,1.3683564366539196,-0.3332907018708697,59.91433784098666,35.32844168609159,-46.37016912477487
1760596819.2081313,13.003099066283404,0.17391435530055385,1.312994222825614,-0.3382983831750851,62.16831680586374,69.16737257147317,-51.93319579773806
1760596819.2180586,12.317899701513655,-0.04599491817038098,1.231600942651121,-0.3296752693310823,63.29505425859334,100.64814637095783,-57.206606903394565
1760596819.2280314,11.536293918984844,-0.2745789850566587,1.132765952365238,-0.31037983446600853,63.39460941644321,127.14643978480647,-62.032019433311845
1760596819.2380683,10.66702315259244,-0.49285906753503944,1.0268961383578739,-0.2843695731427492,62.65534733964767,146.3657961522886,-66.27637475177602
1760596819.24805,9.723777395193519,-0.682016479638169,0.9247968868433923,-0.25596056482257695,61.31326508192545,156.6096562155039,-69.82707317396019
1760596819.25802,8.724741772063915,-0.8257008765487291,0.8362392716068409,-0.22909536923230694,59.608910753565986,156.99000679514336,-72.58717965251208
1760596819.268047,7.69172722711242,-0.9119538667395424,0.7687629304084939,-0.20672397863114825,57.75034587888118,147.53935683996195,-74.473546534413
1760596819.2780325,6.648943801535045,-0.9344498141886971,0.7268955259761523,-0.19045590315650682,55.88783757661241,129.20910618973443,-75.41927557629253
1760596819.288053,5.6215149616393765,-0.8929312713794623,0.711871137552334,-0.18054068967927128,54.10254960791278,103.75659006436976,-75.38048412958797
1760596819.2980568,4.633847832005127,-0.7929089528830924,0.721831563523768,-0.17612821458636835,52.40854315868622,73.54062599267995,-74.34608458085324
1760596819.3080668,3.7079742247243965,-0.6448227119794339,0.7524176715882543,-0.17569226454136683,50.76536529112655,41.25770883556927,-72.34827813940683
1760596819.3180292,2.8619753449117287,-0.4628815381043086,0.7976125008621153,-0.17748751162245505,49.09738803342949,9.65639998234319,-69.47081473413789
1760596819.3280473,2.1086083471233295,-0.2637408393041913,0.8506818264138147,-0.17993401014361685,47.31573970978069,-18.73402883272819,-65.85201563315896
1760596819.3380346,1.454263794780794,-0.06509086268595946,0.9050647722137335,-0.18186094190759855,45.33902762870924,-41.831651847519744,-61.68027395017572
1760596819.3480225,0.8983889174429184,0.11582635846850485,0.9550948427310293,-0.18258512486478867,43.10993805895134,-58.1676539164097,-57.181175931020846
1760596819.3580532,0.4334975882287523,0.263748106820255,0.9964798017641485,-0.18184935569124208,40.60599751803201,-66.98094505300507,-52.59722241807689
1760596819.3680828,0.045839626822781816,0.3668692311285042,1.026525579023865,-0.17968834046703167,37.84400427711159,-68.2407987028957,-48.162997849364565
1760596819.3780673,-0.28328483252313397,0.4180620687475964,1.0441332226990412,-0.1763027606086939,34.87863997137099,-62.60206391925249,-44.08012974556655
1760596819.388096,-0.5756871764000121,0.4155937094137911,1.0496177670508293,-0.17199378533587195,31.796441138672748,-51.30109169111894,-40.49697386963033
1760596819.398096,-0.854141268791684,0.3631759442446483,1.0444038644298403,-0.16715900651930016,28.70662233397998,-36.00359544370019,-37.49716634122719
1760596819.4080434,-1.140184319799124,0.26933264559622444,1.0306576880782656,-0.16231150232400532,25.7301939674893,-18.61895492337104,-35.099085651577056
1760596819.418023,-1.452126202611741,0.1462041154456834,1.010915303373069,-0.15807786513856872,22.9885327078826,-1.0988379584594,-33.26562855458849
1760596819.428034,-1.8034834142742517,0.007989295762071944,0.9877569277512799,-0.15515160134543168,20.59227446012284,14.759424067168323,-31.92142637265885
1760596819.4380436,-2.201986801929604,-0.13074488377012025,0.96355676665428,-0.1542043792879375,18.631256452100335,27.483804450303808,-30.973274130126065
1760596819.4480462,-2.6492346893859535,-0.2566704344014698,0.940318107138264,-0.15577430217732244,17.166216276854133,36.054544092316114,-30.329310494119742
1760596819.4580452,-3.1409868563134515,-0.35904045786019284,0.9195886199273062,-0.16015522554671746,16.222974381816677,39.97420291507342,-29.913296609295983
1760596819.4680572,-3.668029708615605,-0.43062929450399506,0.9024423592666488,-0.16730866319123439,15.789802646212333,39.27521890017704,-29.671892301140357
1760596819.4780443,-4.217494222677268,-0.4681837629393053,0.8895111424781713,-0.17681460709602576,15.818548840129491,34.46737605268595,-29.574675740445315
1760596819.4880466,-4.7744725411720434,-0.47235902634311966,0.8810466592867203,-0.18787162492365356,16.229794740497415,26.435050095818628,-29.608334043438123
1760596819.4980323,-5.323748799496318,-0.44718154291853945,0.8769951575942403,-0.1993503786809725,16.921848010306462,16.299940411782813,-29.76757835106914
1760596819.5080442,-5.85143613735704,-0.3991479146615536,0.8770694058352808,-0.20989813684347916,17.78272544863743,5.268378488732492,-30.045687606003973
1760596819.518074,-6.346311746122678,-0.3361160035198266,0.8808077154932249,-0.21808457698522207,18.70359454463532,-5.517046460938708,-30.427179767979716
1760596819.528047,-6.800684599336853,-0.26616231840773735,0.8876161187494712,-0.2225719125536393,19.591616452156032,-15.103651439178185,-30.88417928270764
1760596819.5380874,-7.210716228802605,-0.19656745675223225,0.8967960385097875,-0.2222875472663385,20.380002601588462,-22.81860647369593,-31.37692093803623
1760596819.5480306,-7.576218672509941,-0.13305713548964523,0.9075646096960507,-0.21657711355790238,21.033480269674342,-28.314087297329838,-31.857800509955
1760596819.5580366,-7.900042610364606,-0.07937911415959452,0.9190773743712121,-0.2053195057156669,21.548207665268293,-31.56544571198015,-32.27765801597645
1760596819.5680318,-8.18722126751076,-0.037242578828806196,0.9304631637277231,-0.18899126423569082,21.946281682370937,-32.826749995656044,-32.59266402528242
1760596819.5780325,-8.444047635993776,-0.006590899628335888,0.9408782755979308,-0.16867322029225473,22.26607478745521,-32.55376268475454,-32.770278973138545
1760596819.5880601,-8.677241187333104,0.013872472838475132,0.9495813960383441,-0.1459960806785947,22.550470559334965,-31.308422196123054,-32.79317384994267
1760596819.5981064,-8.893316343039254,0.02602282609518276,0.9560234189954157,-0.12302356609901496,22.835437617366424,-29.66058476131373,-32.660561493088025
1760596819.6080415,-9.098207936063226,0.0316525488913305,0.9599402439088477,-0.10207497341118463,23.14118520109697,-28.1019437268331,-32.38690861852597
1760596819.6182456,-9.297146491446107,0.03193813639879432,0.9614342573144101,-0.08549851419516442,23.467430902689614,-26.983879203934706,-31.99837361674471
1760596819.6280494,-9.494717571688202,0.027137846305641443,0.9610313909101849,-0.07542228787356385,23.793260957391645,-26.486140627898973,-31.52753474274994
1760596819.6380656,-9.694996966119849,0.016576356222356113,0.9597021555097366,-0.07352189282848338,24.080913113383357,-26.61765988678953,-31.007082966549596
1760596819.6480668,-9.901639624870896,-0.0010866016231800204,0.9588335802302342,-0.08084125061869613,24.28184037472929,-27.24544389222679,-30.46319844334793
1760596819.658116,-10.117821934336993,-0.02737093885473297,0.9601361704757879,-0.09768556831720748,24.34291701778239,-28.14332602841701,-29.909324138192577
1760596819.6680706,-10.345991477034202,-0.06339643488220591,0.9654728645495041,-0.12358490298770095,24.210803970998644,-29.05003821556499,-29.34098936555671
1760596819.6780643,-10.58745217483686,-0.10935784760395569,0.97661079804995,-0.15731707493608058,23.833231813869794,-29.725845044637776,-28.732229677385202
1760596819.6880443,-10.841882855028855,-0.16418970414129963,0.994918059460323,-0.1969811555100135,23.157024876057598,-29.998628355743794,-28.03402587679435
1760596819.6980584,-11.106928531352704,-0.22550104100281174,1.0210469255414667,-0.2401183756363639,22.123775057784336,-29.793240209112053,-27.175046577128615
1760596819.7080476,-11.37800006583906,-0.28978640999837074,1.054655174669715,-0.28387851549544446,20.664924787170005,-29.141419364406836,-26.064787370273077
1760596819.7180607,-11.6483713321885,-0.3528542216697341,1.0942174986819166,-0.3252260690849393,18.698443010645896,-28.172908263711022,-24.59893053035838
1760596819.728046,-11.90959128380782,-0.41037706802694257,1.1369726673137464,-0.3611757768240413,16.129137409926052,-27.091104617569275,-22.666441033107407
1760596819.7380583,-12.152154913706475,-0.45846444292268773,1.1790404406749428,-0.38904597264456103,12.853907820858964,-26.138349780996204,-20.157647969433878
1760596819.7480824,-12.366321107360275,-0.4941738266684654,1.215724595965901,-0.4067184988138141,8.772105035771416,-25.55679147435745,-16.97240689085865
1760596819.758088,-12.542935977803943,-0.51589374424072,1.2419955852851592,-0.4128859654405545,3.8000184681753217,-25.550878225028143,-13.027449350386199
1760596819.7680762,-12.674117393939664,-0.5235443554028517,1.253122334429732,-0.4072480509259801,-2.1122950208089573,-26.257110808537217,-8.262234631944297
1760596819.7780507,-12.753676503525956,-0.5185542147053028,1.2453998874367522,-0.3906034566306946,-8.964105215435552,-27.725604831077856,-2.6430098846067303
1760596819.7880723,-12.777192447043245,-0.5035971854570077,1.2168939336947957,-0.36479109651672903,-16.689637853715745,-29.916153469621943,3.8347533316862115
1760596819.7980487,-12.741714790225727,-0.4821144912008106,1.1680910464268395,-0.33246242205881044,-25.149139046640475,-32.708937313223764,11.145047106445748
1760596819.8080785,-12.64513907566607,-0.4576952310649249,1.1023141396362621,-0.2967016326895954,-34.12824911139542,-35.927277351131345,19.230616272944633
1760596819.8181446,-12.485374038813239,-0.43342821709136087,1.0257588585774406,-0.26054301376374284,-43.3478232736908,-39.367499861955054,28.002601432669355
1760596819.8280454,-12.259480642982732,-0.41135326631795915,0.9470467693882165,-0.22646426068750045,-52.48468919240692,-42.829677455960145,37.34066374514556
1760596819.838072,-11.962998700305029,-0.39212434602367024,0.8762727086642811,-0.19595693879995219,-61.20150682437232,-46.14314560837889,47.09396220061801
1760596819.848082,-11.589673224214545,-0.37495436756701905,0.8236266712936592,-0.1692791930842167,-69.18153538373434,-49.182332203609235,57.083382161857635
1760596819.858108,-11.131738242398965,-0.3578529546436455,0.7977760019175801,-0.14547186199400658,-76.16247770139769,-51.871138222513686,67.10530223005871
1760596819.8680677,-10.580803740252309,-0.33810716387704165,0.8042874059720605,-0.12266412296586696,-81.96323578880349,-54.176962589407914,76.93706782337154
1760596819.878043,-9.929233166719296,-0.3129044345388077,0.8444235527865829,-0.09861591031578826,-86.49861144831442,-56.09750756414934,86.34431477204947
1760596819.8880694,-9.171742530482643,-0.27996922853290623,0.9146192094119606,-0.07136535517884379,-89.77948787811553,-57.644324451540705,95.0903114263609
1760596819.8980546,-8.306870033003918,-0.238086474694761,1.0068016975410352,-0.039803885140423004,-91.89903826810837,-58.826962571539404,102.94734618128773
1760596819.9080572,-7.337999147531993,-0.18741450743559818,1.1095153266318727,-0.004011351590549751,-93.00808717271482,-59.64100883903866,109.70973777201998
1760596819.9180577,-6.273741155550065,-0.12953806155183034,1.209628189131864,0.034749524660769915,-93.28444771407425,-60.06234542642681,115.2074474936681
1760596819.9280446,-5.127630795437876,-0.06726357429267608,1.2942959868702624,0.07437038159124375,-92.9018802906397,-60.04857149361711,119.31879878700953
1760596819.9380643,-3.917213038711226,-0.004203425838488164,1.3528286601036215,0.1124421012343248,-92.00418188237192,-59.54694094004473,121.98058238729236
1760596819.9480455,-2.662684293442918,0.05577086020386678,1.3781345639295801,0.14681923492242394,-90.68856051358918,-58.50674267797292,123.19386494788421
1760596819.958056,-1.3852978451937723,0.10910560999875225,1.3674988216941155,0.1760360368926633,-89.00001940217639,-56.893090381080036,123.02416939984398
1760596819.9680533,-0.10575467155885916,0.1530669594010013,1.3225870047089092,0.19948914203479423,-86.93578731469655,-54.69878840745596,121.5953816157807
1760596819.9780524,1.1572192599312592,0.18607980047223666,1.2487378159226443,0.21739532047160387,-84.45685764480409,-51.95143360396632,119.0777100175872
1760596819.988078,2.387955416076983,0.2078567873621168,1.1537700036906717,0.23059605689761986,-81.50300163861544,-48.714100219660466,115.67115726023277
1760596819.9981074,3.5744989477418216,0.21932482941781856,1.0466114263493624,0.24029941557302378,-78.00822946243683,-45.079384453481865,111.58700920194134
1760596820.0080538,4.708828284721652,0.22239931368492635,0.9360332039606476,0.24783120147952054,-73.91501980551648,-41.15776062917198,107.03041892923692
1760596820.018057,5.7866928101890736,0.21966951744196112,0.8296761040338995,0.25443173336497604,-69.1867244475109,-37.06199592495889,102.18691265934746
1760596820.0280423,6.807164251079819,0.21404901921254652,0.7334501966085868,0.2610999450129239,-63.81770849070926,-32.889963480408426,97.2145351897516
1760596820.0383098,7.772009703049154,0.20843030142286986,0.6513058208240646,0.26846699334481716,-57.84027243291176,-28.70866806860665,92.24175554953908
1760596820.0480413,8.684982566472483,0.20537153538423988,0.585316602735051,0.2766877934458543,-51.3270305208814,-24.54246439417171,87.3697423924974
1760596820.0580473,9.551102189599138,0.20683646846647097,0.5359809652139473,0.28536564783326357,-44.387723743746704,-20.3680275729333,82.67667624505115
1760596820.0680451,10.375965772906431,0.2140068073550171,0.5026393983061749,0.2935484887313961,-37.160367843583714,-16.117518941880167,78.22162594643152
1760596820.078047,11.165116885483,0.2271886958395809,0.4839171870018929,0.2998347019885466,-29.79780631322749,-11.689747969683328,74.04616245329873
1760596820.0880928,11.923487461445559,0.24583236590932536,0.4781241306497222,0.3026009070030551,-22.451773104372176,-6.967404214068387,70.17307865596453
1760596820.0980587,12.654931530253306,0.26866953041707525,0.48356338749339267,0.30032671659334603,-15.257134954108414,-1.8372141256535184,66.60290892201796
1760596820.1080983,13.361872942579806,0.2939488702529008,0.49871870204750784,0.29195989255718213,-8.318882237678247,3.790381689698001,63.30993820373607
1760596820.1180344,14.045090410275519,0.31972637589384145,0.5223069163466765,0.2772517387493096,-1.7037983772257428,9.964726064455892,60.23977992726274
1760596820.1280375,14.703658418118778,0.34415452418967546,0.553204762891263,0.25699637887867716,4.562084707741686,16.683062801312886,57.31035204636293
1760596820.1380317,15.335051480343282,0.3657164102780748,0.5902840259514431,0.23311923165204512,10.48992426771845,23.883442719606688,54.41731360582848
1760596820.1480677,15.935403179760389,0.3833659856569357,0.6322103529976069,0.2085748872463713,16.118847882903545,31.441610299955446,51.443967622636436
1760596820.1581006,16.499893741003305,0.39655835541298307,0.6772708815385339,0.1870371569580422,21.50230722541978,39.17057584595876,48.27459036758571
1760596820.168068,17.023225145067133,0.4051797748296518,0.7232909630311225,0.17239809229432734,26.691887948911543,46.821749339964015,44.80936686357699
1760596820.1780608,17.50013538463214,0.4094123650370129,0.7676816805030385,0.1681350871292599,31.720863151344506,54.08738234396655,40.97871144357875
1760596820.188091,17.9259054673921,0.40958895591993355,0.8076314694455764,0.17664913071198568,36.59003083620127,60.60535091215618,36.75472747659667
1760596820.1981936,18.296821594507943,0.4060991503570747,0.8404234566946995,0.19871227126218644,41.25863252136452,65.96848349165651,32.15785336747749
1760596820.208074,18.610563462623304,0.39938967056978386,0.8638340430913942,0.23316814267808875,45.643140293233614,69.74126488700249,27.257273307786985
1760596820.2181075,18.866491294137244,0.39006341789278515,0.876554469087754,0.27698370666708505,49.62573753630211,71.4866573279854,22.16438645085516
1760596820.2281408,19.065798800951928,0.3790383241437445,0.878574572867203,0.3256539647251404,53.07213867358875,70.80480613189653,17.019523525519073
1760596820.2383246,19.211493244879033,0.36769580928908807,0.8714695644675422,0.37385355314931146,55.85576905561057,67.38329657065405,11.973145970949522
1760596820.248055,19.308165222472287,0.3579392069955593,0.8585305296001868,0.4161661757493806,57.88347721727375,61.05549503394623,7.163803561008945
1760596820.2580454,19.361524985711867,0.3520971065570792,0.844677004764402,0.44773501361438145,59.11749803848061,51.860097418760844,2.695910981074779
1760596820.268057,19.377709608768054,0.3526394876940605,0.836089198849386,0.4647457867417377,59.58914648853871,40.09240785283167,-1.3792708308612156
1760596820.2780652,19.36240252551513,0.36171523372778064,0.8395099066015888,0.4647283374374448,59.40124394388495,26.336857396749632,-5.076267672326921
1760596820.288058,19.319846523747103,0.380560943469225,0.861215493296378,0.4467015226728179,58.71822377043736,11.471035988694414,-8.479184684621213
1760596820.298057,19.25186326371693,0.4088704461287198,0.9057554920441517,0.411186845064345,57.745016502746886,-3.3661187104518753,-11.735402952211837
1760596820.3080585,19.157008884733955,0.4442473981482877,0.9746798178611347,0.3601029166029184,56.69795251559417,-16.845619286007047,-15.039440980856678
1760596820.3180728,19.029995025941034,0.48188142909832943,1.0655474684620803,0.2965479681699591,55.772710800851065,-27.55816812135327,-18.608788534252742
1760596820.3280983,18.86149112955897,0.5145835607560524,1.1715028278534323,0.22448668360015844,55.11538086133614,-34.15610252853374,-22.654793630303242
1760596820.3381126,18.638399050691444,0.5332828531887445,1.2816254917272405,0.14837124679333483,54.802615634237874,-35.51599020735309,-27.352472898944676
1760596820.3480957,18.344652850847222,0.5280207154638279,1.3821348660581072,0.07273133434955044,54.8354081582624,-30.90510572376341,-32.81328779551337
1760596820.3580766,17.96254395706762,0.48938679054446066,1.4583779591566504,0.001761400203370703,55.14828990221644,-20.13036600861035,-39.064402258862216
1760596820.3680873,17.474507977669866,0.4102319963711942,1.497350353406709,-0.06107150869379923,55.632178831303435,-3.6451862992319444,-46.03677724083201
1760596820.378045,16.86524111145031,0.2873849145542438,1.4903081613324516,-0.11336775907503789,56.16548655345236,17.410476800871486,-53.56298870268963
1760596820.3880777,16.12394790696931,0.12301065513415181,1.434877619844661,-0.15403262770629295,56.645463511710346,41.25735346481054,-61.384381708392574
1760596820.3980606,15.246464026088278,-0.07477090289635244,1.3360572298299593,-0.18334690805416407,57.01124654624759,65.62170374499266,-69.1665173486752
1760596820.4080677,14.236957142487887,-0.29229227499932825,1.2057142111858266,-0.20281442638066832,57.25235429482533,87.97191293716517,-76.52190832340051
1760596820.418097,13.108904233138704,-0.5118132875336978,1.0605786907572412,-0.21477606129958912,57.400998105304005,105.82104055116471,-83.03938973336503
1760596820.4280937,11.885096842000102,-0.7137889957104023,0.9191881619831328,-0.22185948135887198,57.51181487012975,117.05137999954553,-88.31942394560002
1760596820.4381495,10.596547327223844,-0.8794229970304391,0.7985385086343901,-0.2264084056591428,57.636247630515555,120.20738953594936,-92.01358011837388
1760596820.4480698,9.28033875950422,-0.9929868306739174,0.711237359196265,-0.23005400680360721,57.79936342628543,114.70627584151161,-93.86445316393203
1760596820.458055,7.976633125173702,-1.0435816963347708,0.6637488068853803,-0.23353730850192836,57.98468828674567,100.9305017992076,-93.74040655913521
1760596820.4681222,6.725181331524061,-1.026264962376267,0.6559827645006333,-0.236796324625401,58.129343308214686,80.1887384045465,-91.65895978407356
1760596820.4780958,5.561743271026497,-0.9426061032000174,0.682145989983911,-0.23924658415519476,58.12918467736512,54.55453945382984,-87.79384003459256
1760596820.4880965,4.514831847994162,-0.8007307144798419,0.7325177963046162,-0.24014295573682368,57.85249443092196,26.60978484591835,-82.46320502663606
1760596820.4980638,3.603157224486416,-0.6148124856605585,0.7956725654371343,-0.2389144749276956,57.160391512049905,-0.8693514921489707,-76.0995127180098
1760596820.5080678,2.8340782863228244,-0.4038837031621489,0.8606435431026422,-0.23539046116777326,55.93140691919004,-25.241759253629372,-69.20432832637371
1760596820.5180566,2.2032681077178853,-0.1898638744280552,0.9186022856207208,-0.22987024934785946,54.086253730536654,-44.30449005253736,-62.2937011229916
1760596820.528083,1.6956625670047454,0.005092422684798457,0.9638028144104299,-0.2230324816293151,51.6075933792312,-56.532759710084555,-55.8414796281877
1760596820.5380669,1.2875886096143174,0.16152978358464826,0.9937590356885785,-0.21573312385608243,48.54982955621315,-61.22869905723851,-50.228810015271016
1760596820.548135,0.9497886803282223,0.26530785126485235,1.0088065192714106,-0.20878311051265674,45.03614738705703,-58.56297816357639,-45.707588093017954
1760596820.5580702,0.6509192067842748,0.30934378917600536,1.011292038290552,-0.20279791552360435,41.24337834744956,-49.50806132868403,-42.38342895476343
1760596820.568073,0.36104451959569767,0.294186632020978,1.0046415360803211,-0.19816636375567565,37.37833086098943,-35.67654448640818,-40.2200444049682
1760596820.5780897,0.0546803086343155,0.22743379552882775,0.9925096678888097,-0.19512170750170263,33.65085215734365,-19.09031252010443,-39.06282346335456
1760596820.5881007,-0.2869606411029126,0.1222120082645631,0.9781385412461051,-0.19385276375439334,30.248818609002615,-1.9142372951511786,-38.67616526596312
1760596820.5980914,-0.6747327358832431,-0.00495528060738249,0.9639746176712197,-0.19458660312849443,27.318886657876128,13.809224308724604,-38.78741731178114
1760596820.6080778,-1.1113947794447327,-0.13654183557862815,0.9515313818926067,-0.19759947598343297,24.954860531895285,26.390862084692692,-39.13006933179384
1760596820.6181035,-1.5924380787720878,-0.25633268510670637,0.9414482469610661,-0.20314867779108065,23.19367937683897,34.66433369980564,-39.479794659178694
1760596820.6280844,-2.107703296794993,-0.3513615705884159,0.9336793420747053,-0.21134771705274258,22.017833361429567,38.07782976405451,-39.67872428885406
1760596820.6381173,-2.643503839148773,-0.4132465974344947,0.9277439301582193,-0.22202316526002203,21.362632229849705,36.70221918045837,-39.645685997518804
1760596820.6480737,-3.1849383529345046,-0.4387906276689914,0.9229794181720432,-0.23459449748824857,21.126943909066387,31.161107290697778,-39.37265139680855
1760596820.658052,-3.7180807971981884,-0.42981971728867974,0.918753882618711,-0.2480117996092961,21.186392415849106,22.49780432306967,-38.90988522892487
1760596820.6680903,-4.231775772046554,-0.39234404815591056,0.9146126881998257,-0.26077408733289487,21.40818690700281,12.00131392663576,-38.34390175285088
1760596820.6780689,-4.718832536782962,-0.3352227564680651,0.9103499307050376,-0.27103618434349985,21.666575014438624,1.017335410399741,-37.77304162478248
1760596820.6880755,-5.1765003375968766,-0.26857690586813715,0.9060094562204822,-0.276797305943823,21.857479481801267,-9.229470668581186,-37.285243816278914
1760596820.6980603,-5.606215971330394,-0.20221133968530272,0.9018320229611769,-0.2761515976149504,21.910502935191445,-17.779047585737015,-36.94156413585662
1760596820.7080798,-6.012727708199201,-0.14427734558072663,0.8981732347454405,-0.2675703849704668,21.796479532618505,-24.028876946038338,-36.767459008122245
1760596820.7180595,-6.402794576381663,-0.10034636831175736,0.8954185930326868,-0.25017783573863434,21.529226272137308,-27.768288724511734,-36.75213808809586
1760596820.7280831,-6.783715833019733,-0.07298615529797395,0.8939167335770261,-0.22397819368832794,21.16099845233568,-29.155151102769178,-36.85475149883602
1760596820.738235,-7.1619533716418005,-0.061848050168175996,0.8939426368156036,-0.1899968359481466,20.772172135521167,-28.64404259856418,-37.01512699223068
1760596820.7480977,-7.5420733621029905,-0.06419840836263273,0.8956933429147517,-0.1503083160843402,20.456642665765578,-26.881130812344786,-37.16635598935869
1760596820.7580743,-7.926163140672831,-0.0757671972879235,0.8993112418548627,-0.1079378452587537,20.305156498487012,-24.584398758424122,-37.24669181763538
1760596820.7680612,-8.313787204084209,-0.09174876751637329,0.9049242489984044,-0.06663633346107442,20.389145837223108,-22.428222580374964,-37.20877837890216
1760596820.7781131,-8.70244400222844,-0.10777668438628459,0.9126878746463232,-0.03054390299928072,20.747537984029826,-20.948770384535223,-37.02494843707355
1760596820.788125,-9.08838831671672,-0.12070846237821148,0.9228116425497593,-0.0037711475604279704,21.378456683177912,-20.481902402813947,-36.688049715164965
1760596820.7981102,-9.467612868873575,-0.12909746850459008,0.9355529510498294,0.010061522517378145,22.236785053052472,-21.13915268992067,-36.20790873951089
1760596820.8080764,-9.8367571405774,-0.13329278576395795,0.9511677489609165,0.008277549199884758,23.237393299064447,-22.82103636653179,-35.60413407508402
1760596820.8181129,-10.193739410769599,-0.13518034124868702,0.9698202243419418,-0.010466492600329088,24.262750064354314,-25.261394036021084,-34.89649015201611
1760596820.8280685,-10.53798122945197,-0.13764400242012526,0.9914695800055469,-0.04591891308459433,25.172957464709782,-28.092565041376137,-34.0944771638083
1760596820.838093,-10.870191376990956,-0.14387115262652472,1.0157636686910752,-0.09615523594261179,25.816143691372265,-30.91929861928578,-33.18793193496589
1760596820.8480713,-11.191774238389145,-0.15664606065579403,1.0419706817836518,-0.1577198885362001,26.03755154089158,-33.389463132245844,-32.140348344277754
1760596820.8581357,-11.504003036094613,-0.17776328790263626,1.0689700034792018,-0.22598700904947797,25.686393356821398,-35.25144042653676,-30.886204265374275
1760596820.8680973,-11.807136582854813,-0.20765766842131292,1.095304068971976,-0.29569279551006644,24.620425685065072,-36.391048531656956,-29.332945054824464
1760596820.878081,-12.09965593299912,-0.2453000365477731,1.1192718931542431,-0.36153755791581893,22.709045940800802,-36.84433286459397,-27.367523653033793
1760596820.8880768,-12.377761016688652,-0.2883589558101939,1.1390391285566808,-0.41872598943602596,19.83628643443759,-36.78605806106348,-24.866653603536268
1760596820.8981318,-12.63520743653384,-0.33358188469593913,1.15276249143141,-0.4633465680120396,15.905170202957185,-36.49680574461249,-21.709295004171892
1760596820.9081104,-12.863493186557932,-0.37731261624369616,1.158760833139877,-0.492568014387936,10.844467425136799,-36.314020078016625,-17.789451855440447
1760596820.9181473,-13.052340603946028,-0.4160473587168259,1.155772819812986,-0.5046881812795402,4.618084558007201,-36.57408847324802,-13.027209086626375
1760596820.9280896,-13.19037455709506,-0.44693860942089586,1.143308572131088,-0.4990779375091442,-2.7636790899996577,-37.55361663414744,-7.376190354314944
1760596820.938128,-13.265878187013145,-0.46817065923547474,1.1220541488437645,-0.4760465598724224,-11.232748198577998,-39.41842098730982,-0.8263381219606809
1760596820.94807,-13.267508907894975,-0.4791467209586703,1.0942507552584746,-0.43664823697568783,-20.65423133121353,-42.188207465462945,6.597991820493351
1760596820.958136,-13.184876615422803,-0.480451639329936,1.0639488946144404,-0.38245544814525567,-30.822489051503073,-45.72310265590071,14.843456280833466
1760596820.9680872,-13.008923287226464,-0.4735924872014792,1.0370249871704997,-0.315333060184272,-41.46479746331464,-49.73502692261094,23.834596231099724
1760596820.9782066,-12.7320962484916,-0.46056910464808853,1.0208509897104971,-0.23725011633730753,-52.254140704697576,-53.822753530717854,33.47967715748263
1760596820.9881196,-12.348366360546716,-0.443375016835007,1.023544882240787,-0.15016473304667374,-62.83107468957395,-57.52529435051175,43.673233845539066
1760596820.9981573,-11.8531910399951,-0.4235576722789313,1.0528103673711542,-0.05601168098274577,-72.83268930551571,-60.385037395980724,54.29389980266172
1760596821.0081089,-11.243543722171596,-0.4019581828071158,1.1144836631446804,0.0431912959338559,-81.92497279701765,-62.01057041565399,65.1974953940853
1760596821.018128,-10.518114712472647,-0.3786984627887957,1.211014044145368,0.1451275759559739,-89.83378013094165,-62.12959618626052,76.20704129721811
1760596821.0280895,-9.677731826021626,-0.35340242529594706,1.3401812778469726,0.24690197626039054,-96.36928355892393,-60.62463110611216,87.10294878309799
1760596821.038098,-8.72596497491124,-0.32556181061770506,1.4943736074980543,0.34478497128071567,-101.43924709742171,-57.54778429476465,97.61763287346145
1760596821.0480773,-7.669791771889585,-0.2949207750827844,1.6607032456241375,0.4341045482200307,-105.04786056282853,-53.114837001702796,107.43872918583614
1760596821.0580902,-6.520139969799808,-0.26176673667469924,1.8221240237395286,0.5094248360417732,-107.27942128006005,-47.68178792485498,116.22370714988388
1760596821.068084,-5.292107301240104,-0.22705815675727392,1.9595454231316416,0.5651231068371995,-108.26956472807471,-41.70825487028416,123.62613859741198
1760596821.0780885,-4.004695151551811,-0.1923630684535201,2.054710391024081,0.5963739122007219,-108.16992632181163,-35.711945841419144,129.33085314159302
1760596821.0881147,-2.679971876656114,-0.1596097816102604,2.0933295396577694,0.6003559107449734,-107.11401293867374,-30.217699891488326,133.09257507462982
1760596821.0981088,-1.3416888941631722,-0.13067095963862485,2.0677261994482854,0.5772840439239405,-105.19233253917822,-25.704090618195632,134.77114243624115
1760596821.1081247,-0.01348723440832504,-0.10683926019128319,1.9782395054785702,0.5308086022595921,-102.44326736932302,-22.550835495030622,134.3564462301986
1760596821.1181026,1.283069241203805,-0.08831956070938246,1.8329887441807642,0.46753431393100553,-98.86241554741846,-20.991538563004706,131.97780926238727
1760596821.1281743,2.530337516197012,-0.07391994596846768,1.646163715210002,0.3957900744787124,-94.42770553942087,-21.07813486367242,127.89529396593275
1760596821.1381164,3.7160146223675476,-0.06110244786743416,1.4354283371210919,0.32406692855143304,-89.1325809492238,-22.664478147728406,122.47370195433025
1760596821.1483808,4.833887996292423,-0.04643947791084296,1.2191270060093877,0.25958949302260675,-83.0172847225606,-25.41539344707438,116.14304162180582
1760596821.15822,5.883783006723424,-0.02637588917953752,1.0138491984250406,0.20734285694882434,-76.18949274144173,-28.843701629736856,109.35142171957708
1760596821.1681702,6.870713974673906,0.0019037907928614421,0.8326907316503196,0.16967121481232866,-68.82909939655829,-32.37209141178849,102.51734168401097
1760596821.1781116,7.803384040317267,0.03972756466492345,0.6843347453019596,0.1463970724394043,-61.17603103061581,-35.41104692871837,95.98808313061753
1760596821.1893733,8.692288064231075,0.0864932074831139,0.5728980684147722,0.13532615336063106,-53.5034360756235,-37.44005334241361,90.0095413177627
1760596821.1988666,9.547731438781609,0.1396394610665953,0.4983739646055764,0.1329893446360129,-46.08127620896258,-38.077983128196266,84.7107785396359
1760596821.2085085,10.378077671499545,0.19504548246348088,0.4574605843215843,0.135481872256109,-39.13722510291813,-37.13014275274563,80.10424582394228
1760596821.2180989,11.188481511084802,0.2477770218519689,0.4445805977519325,0.13926271757776884,-32.82247975046949,-34.60369031571449,76.10030304188491
1760596821.228171,11.980264610729854,0.2930210712539556,0.45293894069361784,0.14178677705383794,-27.18911676318084,-30.689324263124437,72.53265321039763
1760596821.2380939,12.750968077914157,0.3270128891498018,0.47550538004030335,0.14188093769797822,-22.183143873988207,-25.713926289755456,69.1899625498183
1760596821.2480857,13.494997137693156,0.34776825809528433,0.5058384517633798,0.1398362603896722,-17.654314341198152,-20.07440700458911,65.84859147203858
1760596821.2580905,14.204682290249606,0.35548078550253714,0.5386917721159099,0.13724171890838444,-13.38100611573734,-14.16600500397262,62.30204633936955
1760596821.2681162,14.871533586708964,0.3525113552478689,0.570368197731355,0.13661392766964606,-9.106347956386172,-8.318518463371348,58.384141459881455
1760596821.2780805,15.487462280914759,0.3429696800382091,0.5988131900664883,0.14089114981116463,-4.580248848580671,-2.751956319019402,53.98442082399746
1760596821.2881095,16.045780694128396,0.33195883466913734,0.6234648043556467,0.1528709871293854,0.3988801440223113,2.440591124282095,49.0556971253167
1760596821.298091,16.541855994374878,0.32461712613517685,0.6449025429195394,0.17467824231307408,5.9488641120314085,7.280141040461048,43.61442705798963
1760596821.3080812,16.973373328958917,0.3251362415966765,0.6643598426399528,0.20734403020077397,12.079974134144507,11.862303032956989,37.73510922798295
1760596821.3180954,17.34024246299798,0.3359451285946115,0.6831833431338084,0.2505558354062353,18.685625463880058,16.3000191288792,31.5401320202258
1760596821.3280919,17.644243795240335,0.35721883313755887,0.7023330988386124,0.302606145479259,25.54830789606475,20.66146378615415,25.186617649896853
1760596821.3381047,17.888542309922517,0.38680861743071654,0.7220181294427368,0.3605340735959927,32.359540293509276,24.91694447170555,18.851797629552184
1760596821.3480866,18.077196775032064,0.42061021620545,0.7415471691995428,0.42042778270236175,38.75134178105002,28.90634952916691,12.718282998618983
1760596821.3580909,18.214760549731,0.45330741840831706,0.7594396592144179,0.47783961224798915,44.336097687760336,32.3340661178609,6.9602718630396305
1760596821.3680851,18.306023075324294,0.4793619983859701,0.7737853031952493,0.5282604582454689,48.751515482992716,34.7928355266074,1.731345661165416
1760596821.3780968,18.35589458143012,0.49407712874603743,0.7827744933185088,0.5675989968117848,51.707050458071215,35.81309060380571,-2.845802858212916
1760596821.3881004,18.369402297199944,0.4945443237836967,0.7852733552959796,0.5926079961183981,53.0272435879615,34.93065725216634,-6.687468028588827
1760596821.3980722,18.35174611733512,0.48029870805385094,0.781309577753186,0.6011980586249417,52.68614013538639,31.76342071104893,-9.754563058787916
1760596821.4080904,18.30835140958021,0.45355757357433674,0.772369328324356,0.592591274086744,50.82643898744924,26.08663914813981,-12.055485953279712
1760596821.4181137,18.244854575930866,0.4189955269458411,0.7614571028162669,0.567299583444406,47.75824176566255,17.897131928022805,-13.64607051980555
1760596821.428098,18.166965838240294,0.3830953857668213,0.7529100793388205,0.5269547662957108,43.93523432725789,7.458465108195803,-14.626675590928853
1760596821.4380937,18.080176866695275,0.3531830135457671,0.7519772565930598,0.47404618944927474,39.90990053254472,-4.6781738964321615,-15.136528101744563
1760596821.4463181,17.989315535775233,0.33629081559429064,0.7641846563877019,0.4116225594184667,36.27276476197637,-17.680409875842866,-15.345317508962365
1760596821.458082,17.897986473943117,0.3379989542166842,0.7945272673881217,0.342992526642641,33.58295957801096,-30.469861717387623,-15.44194471364394
1760596821.4680955,17.80796504862309,0.36139073390172705,0.8465602955322807,0.2714393250767441,32.29852357473068,-41.786428039071104,-15.620564398489979
1760596821.4780757,17.718630736918357,0.40624619572122045,0.9215006797593948,0.1999606163879892,32.71503447114071,-50.280685737406074,-16.06476350478798
1760596821.4880743,17.62653105305205,0.4685883921223132,1.0174849371507808,0.13105013484269296,34.92077658062792,-54.6312510340913,-16.931701274600094
1760596821.4980826,17.525154530805146,0.5406792927082316,1.129149301606729,0.06653872599632037,38.77569712703666,-53.68089783215419,-18.338845915950127
1760596821.5081327,17.404961807980982,0.6115295923945928,1.2476904184040374,0.007506648389582478,43.91962884145422,-46.58144211839017,-20.35604174526289
1760596821.518126,17.253691306862535,0.6679413934860365,1.3615212490666788,-0.04572327125890607,49.812132835989935,-32.933181462171866,-23.004631382254562
1760596821.528093,17.056937333065036,0.6960450877945321,1.4575549989955512,-0.09349792527159571,55.80164946109261,-12.900753171863624,-26.263295925432818
1760596821.5380971,16.798997632088287,0.6832140284532253,1.5230310680698012,-0.13664113591652927,61.216087401799584,12.715049184202567,-30.07790339406495
1760596821.5480888,16.463990855802525,0.6201405760599246,1.5476484112569209,-0.1761696388715833,65.46188934454233,42.469144751496835,-34.371177417599746
1760596821.5583556,16.037231137726117,0.5027533942678032,1.5256196709965093,-0.21297182745051652,68.11532317061248,74.34221452390314,-39.04832608687632
1760596821.5680907,15.506803468147892,0.33358794490266525,1.4571615361764265,-0.2475336771576534,68.98914729904274,105.8936637834905,-43.996852154989355
1760596821.5780861,14.865211816874112,0.12223727529653426,1.34896741270288,-0.2797894664266157,68.16053634903561,134.48888542246274,-49.08169417210966
1760596821.5881119,14.11089122344418,-0.11535762192699356,1.213411754557092,-0.3091276097013066,65.95263435023912,157.5775686821251,-54.13946560861963
1760596821.5980768,13.249319441278926,-0.35877238398004047,1.0665742916695562,-0.3345249774089673,62.871640852530064,172.9869507067935,-58.97679640202266
1760596821.608086,12.293471574333353,-0.5858121177146457,0.9255225099586134,-0.3547538206006022,59.51149124678886,179.18621907449688,-63.37687402054975
1760596821.6181114,11.263451934710604,-0.775523029348673,0.8055026531596295,-0.36861079660248874,56.445577150749024,175.47874109549267,-67.11531947496121
1760596821.6280875,10.185290579432632,-0.9108857681627509,0.717679837232788,-0.37513620454613067,54.12707477477891,162.08905098753627,-69.98280755106295
1760596821.638412,9.08905382401087,-0.980716428854143,0.6678613952429875,-0.37380483279330706,52.81610495732545,140.1304204434041,-71.80918995505661
1760596821.6481078,8.006532860470449,-0.9805736330086606,0.6563341530928817,-0.364675359454429,52.54507083747825,111.46158434529602,-72.48349326246061
1760596821.6580997,6.968811911268431,-0.9127342344015266,0.6786593184501122,-0.34848506103636695,53.125619136441024,78.46082979414476,-71.96593927334553
1760596821.668125,6.003979782502441,-0.7854545310520403,0.7270811426157794,-0.3266703664135797,54.193351946899746,43.756735149942074,-70.2909466119043
1760596821.6783624,5.135167279474837,-0.6117612625031754,0.7921508828433317,-0.30128650204419777,55.280317815695035,9.956096496449142,-67.56249341232285
1760596821.6881194,4.37900996694267,-0.40797047006903403,0.864228884495917,-0.27480438533540813,55.90098365042716,-20.596833391604015,-63.94429489365473
1760596821.698074,3.744579579801099,-0.19208312343396827,0.9346543264278687,-0.24979017193157504,55.63566186481158,-46.006550402727036,-59.646955718204715
1760596821.7080896,3.2328010140855383,0.017812849893761994,0.9965068325572018,-0.22851624172907997,54.19686319488994,-64.94709366157194,-54.9133499181086
1760596821.718107,2.83636466160582,0.2050133820215024,1.044984004671209,-0.2125898697813445,51.468529629626694,-76.71770991397196,-50.0028022707347
1760596821.728097,2.5401476881889944,0.35545396768214,1.0774667532759843,-0.20269442865541254,47.51431134726799,-81.24120136101689,-45.17450651156868
1760596821.738103,2.3221668616855315,0.4587151845482648,1.093350591572033,-0.19850999365139088,42.55720794803698,-79.01568431377433,-40.67079058509121
1760596821.7480943,2.15508573623534,0.5087679121424783,1.093713444686608,-0.19882806799393204,36.93754911423356,-71.02975837152412,-36.70106780889351
1760596821.7580853,2.0082691820021368,0.5044157199949256,1.0808884417901905,-0.20182277919401567,31.05882103436295,-58.649139117087834,-33.42763040123621
1760596821.7681222,1.8503076503311542,0.44934607490879525,1.0580088898969287,-0.20540792161009291,25.331307043572494,-43.48198225985778,-30.954867143084876
1760596821.7780912,1.6518336632022812,0.35171362663426387,1.028579849473774,-0.2076007837854956,20.122251495929536,-27.23128781174166,-29.323655424701503
1760596821.7881095,1.3883496535794075,0.22325613093664723,0.9961100020247012,-0.20682460571662542,15.718771040391504,-11.545120008630576,-28.512161733150066
1760596821.7981346,1.0427103046771,0.07803369913456625,0.9638214321415552,-0.2021045632045857,12.306680282643784,2.122571920382115,-28.44314631888452
1760596821.808087,0.6068889364696654,-0.06905567937979012,0.934445104740177,-0.19314030555805578,9.965435856027543,12.627238462696003,-28.996593597113648
1760596821.8182507,0.08273281792909512,-0.20380005787192487,0.9100994477606182,-0.18026434495637286,8.676985932683992,19.21360332123308,-30.025522528998927
1760596821.8281226,-0.5184316829088378,-0.3140492633098688,0.8922383426004976,-0.16431452294314802,8.34464425633683,21.552742547329164,-31.37238424842855
1760596821.8381133,-1.1772939135299467,-0.39078458426729085,0.8816485805865252,-0.1464573941742219,8.81728807973953,19.73464451076166,-32.88360179781892
1760596821.8480904,-1.8689357458964189,-0.428783053831898,0.8784773242494629,-0.12799856869117693,9.914257224814547,14.220317621810288,-34.420504258315326
1760596821.858114,-2.5657563597534536,-0.42684393209921856,0.8822749720712699,-0.1102099150524296,11.447208677115016,5.762251680396514,-35.86593628944573
1760596821.8681176,-3.2405532701579567,-0.3876019499664972,0.8920463445571684,-0.09419521897717226,13.236572422630745,-4.694931766243789,-37.126852260632205
1760596821.8781264,-3.869370348756318,-0.3169942337913833,0.9063126019656882,-0.08080546457197212,15.121799453541605,-16.12079190140922,-38.13395152227372
1760596821.8881595,-4.433788201406223,-0.22347697549436632,0.9231955800900491,-0.0706018302442066,16.965977059830784,-27.500492537282913,-38.83974562117488
1760596821.8981395,-4.922448116997359,-0.11710081911430639,0.9405409834013917,-0.0638520614920705,18.656368141671418,-37.9220051245478,-39.21636478230411
1760596821.9081032,-5.331736061913485,-0.008545908010303239,0.9560929093474537,-0.06054134856687822,20.102854132375448,-46.64296455919619,-39.25398219129125
1760596821.9181259,-5.665668512311028,0.09180707284251571,0.9677189184908459,-0.06038625286097851,21.236093556582638,-53.134195793176175,-38.96008189775385
1760596821.9281304,-5.935093741745802,0.1747191932206162,0.9736670405354962,-0.06285483589412966,22.006544122430967,-57.09961311158119,-38.35909239476179
1760596821.9381287,-6.156351150266854,0.2328114559711487,0.9728209393746357,-0.06720780413343352,22.384543524138095,-58.47429538172002,-37.49138087135844
1760596821.9482605,-6.349531936678294,0.26112220819961124,0.9649119425191252,-0.07257530103827431,22.360754615292997,-57.40404819007926,-36.410475040686045
1760596821.9581206,-6.536474189646598,0.2574643855339334,0.9506482703481597,-0.07807086277598908,21.94585810530717,-54.210705193922465,-35.17775202400691
1760596821.96813,-6.738620274724616,0.22254544391411438,0.9317323114505363,-0.08292823457272522,21.168577080567054,-49.34786518312612,-33.854609480465314
1760596821.9781208,-6.974875373393589,0.15982586555507716,0.9107537345909399,-0.08663973190323467,20.071684161916288,-43.35182010547952,-32.493035893013264
1760596821.9881413,-7.259633971035018,0.07511655973861181,0.8909633324534088,-0.08907543075429883,18.70614689970266,-36.79222351014108,-31.126186831050358
1760596821.9981089,-7.601172724634631,-0.02405355958846296,0.8759433780494368,-0.09056191276199885,17.12380438046848,-30.226627430589915,-29.760813434586872
1760596822.008134,-8.000617958103232,-0.12923610053038895,0.8691956419309954,-0.0918957365775351,15.369059128225262,-24.16228918002382,-28.37313348822257
1760596822.0181432,-8.451658044319972,-0.23193570819288165,0.8736753900978078,-0.09426549264650773,13.470236663871061,-19.02748124491138,-26.909102466551705
1760596822.0281615,-8.941077829200154,-0.3244506623196335,0.8913135015444272,-0.09906196750455913,11.431566967061332,-15.152971338590831,-25.289206312014617
1760596822.0381417,-9.450065101851727,-0.4005853322198146,0.9225864658726565,-0.10757292807308041,9.227013187900893,-12.762702121799972,-23.417013933047457
1760596822.0481062,-9.956115457129004,-0.45616687412359835,0.966209016370291,-0.12059362496683265,6.797200904136841,-11.971470650640786,-21.189947176260816
1760596822.0581212,-10.435273239982381,-0.48933039866684575,1.0190312994249795,-0.13803715876814837,4.050424174974104,-12.787027517972307,-18.51024858159501
1760596822.0681257,-10.86440550128471,-0.5005598483419226,1.0762156017287392,-0.15867821561736825,0.8682450895881818,-15.114709001713212,-15.294153588107292
1760596822.078104,-11.223211366281515,-0.49248782777790967,1.1317361708267286,-0.1801613320489436,-2.8842731816434526,-18.764285618400027,-11.477861644393556
1760596822.0881293,-11.495715814697512,-0.4694759777319645,1.1791828175919064,-0.1993206574612682,-7.344113190636923,-23.46044872173791,-7.019878214361163
1760596822.0981946,-11.671081201548603,-0.43701997111308366,1.2127678108344517,-0.21273192188672393,-12.632561600841925,-28.859303833788314,-1.9003378501532135
1760596822.1081145,-11.74368367131643,-0.4010418082707277,1.2283682143894763,-0.21733136625158583,-18.835726338515176,-34.572756683799916,3.881325106873752
1760596822.118153,-11.712523104468977,-0.36714181003307234,1.2244101550719637,-0.2109326803132048,-25.985421991579585,-40.20085176890653,10.308758215615956
1760596822.128111,-11.580134709644947,-0.3398876671927015,1.202421703160923,-0.19252918767229596,-34.04282712523477,-45.369615871198924,17.349860653724253
1760596822.138116,-11.351227813193235,-0.32222253057102324,1.1671321713525262,-0.1623434886185407,-42.88725694910079,-49.7695899564104,24.95618966554603
1760596822.1481295,-11.031290942685356,-0.3150751858946564,1.1260612666124998,-0.12165405316168294,-52.312049941814394,-53.188760032673336,33.06080947353611
1760596822.158125,-10.625381508366505,-0.3172443919342738,1.088613184883476,-0.07247516407720278,-62.02902173965245,-55.53361184744328,41.57528678975316
1760596822.1681085,-10.137274236687167,-0.32559951127830294,1.0647646545121885,-0.01718800753868998,-71.68218666658069,-56.83372888909375,50.386647130270674
1760596822.1781213,-9.569082308950515,-0.3355901998917151,1.0635069173492122,0.04178236210481156,-80.87045447665484,-57.2283562544308,59.35495980178442
1760596822.1881518,-8.921392391433027,-0.3419972804945002,1.0912599506286087,0.10217187837606631,-89.17781285073964,-56.9368576342694,68.31212947831047
1760596822.1981225,-8.193872974446519,-0.3398001100738209,1.1505088791150058,0.16192866780180673,-96.20822436001228,-56.21807227714051,77.06264234641449
1760596822.208132,-7.386233378875434,-0.32500102060841124,1.238906085729421,0.21912344287449048,-101.62138367238313,-55.32547438149025,85.38733477185413
1760596822.2181554,-6.4993433852092215,-0.2952511770205731,1.3490385843080697,0.2717861801094019,-105.16506368121591,-54.46535585982836,93.05139215043663
1760596822.2281392,-5.536287356910919,-0.2501701272475244,1.4689879777006032,0.3177803168116897,-106.70028616364628,-53.76413010758731,99.81741898312109
1760596822.2381358,-4.503134364112076,-0.19132944585416808,1.583712341584549,0.3548322532569828,-106.21659896361649,-53.248931047987966,105.46340459788317
1760596822.2481694,-3.4092609061998855,-0.12194926250010221,1.6771481206610737,0.38078191184459326,-103.83565641553041,-52.84364692733463,109.80392061244564
1760596822.258153,-2.267156008778203,-0.04640542961170838,1.7347614932468454,0.39402134016695145,-99.80198717692647,-52.38060491960489,112.71144313708699
1760596822.2681375,-1.0917452159167051,0.03034930498910952,1.7460903388130775,0.39398664415391116,-94.46087047870073,-51.62618746737089,114.1338816021798
1760596822.2781613,0.10064010481310288,0.10337208640915516,1.7066828285700777,0.3815103122418465,-88.22494848063599,-50.31678667178483,114.10451135719234
1760596822.2881393,1.2934676664781821,0.16826844784314188,1.618892046115788,0.35886085410628893,-81.53292053782076,-48.20014826539544,112.7415030578387
1760596822.2984054,2.471186150913327,0.22162361674125194,1.4913028497943763,0.32940770556734295,-74.80436022811125,-45.07679121311004,110.23593031598057
1760596822.3081706,3.6202023533969543,0.2612638777578579,1.3370102442626821,0.2970067618420006,-68.39435699898449,-40.836743519876215,106.82925244601486
1760596822.318125,4.729517186866404,0.28631552160990625,1.1712787794551713,0.2653097645260359,-62.55159074916278,-35.48760693975063,102.78341867001409
1760596822.3281963,5.790955471558043,0.297088181828549,1.0091648048334465,0.237200789527158,-57.38457483093027,-29.170264706606865,98.34846040251044
1760596822.3381395,6.799010122050551,0.29485984517718405,0.8635500246301187,0.21448534170320108,-52.84239578728242,-22.158475990797104,93.73331843443088
1760596822.348135,7.750403416720624,0.28165629007419835,0.7438380949248468,0.19786447969431603,-48.71654695745024,-14.839043918280575,89.08543124047455
1760596822.3581998,8.643527099843425,0.26009571117457503,0.6553800176428953,0.1871482735682158,-44.66831609353083,-7.671094955614531,84.48322831029294
1760596822.3681378,9.477941459672472,0.23331745037365684,0.5995529034895238,0.1816017871591327,-40.28185684154766,-1.1264729232391961,79.94325108475743
1760596822.3781233,10.25408017994557,0.2049473280481333,0.5743313090677065,0.18028213493452844,-35.137440197456066,4.382194662242973,75.44049450005633
1760596822.3881376,10.973226889608204,0.1790003532990764,0.5751551619846907,0.18224157535087127,-28.893658504986128,8.574574677160006,70.93735954359987
1760596822.3981295,11.637724482003357,0.15961880498140812,0.5959048798792649,0.186547863101165,-21.36322576251407,11.36242657704718,66.41420119244918
1760596822.4081244,12.251284359193491,0.15060237752377834,0.6298349604342734,0.192174467187429,-12.566275686510247,12.881499637813508,61.89364130281804
1760596822.4181209,12.819211948450569,0.1547833172603386,0.6703742157022782,0.19787940628590803,-2.748571800066924,13.484800180061553,57.45202262265919
1760596822.4281304,13.34837596535271,0.17338923097178746,0.7117483038821952,0.2021869393809324,7.640921099951988,13.694067623494606,53.214528190590265
1760596822.4382007,13.846821433282228,0.2055816951053017,0.7494057745720154,0.20352653085290925,18.010089800046256,14.115623308588036,49.33487958124693
1760596822.4481378,14.323037602133146,0.24833902078865144,0.7802431888154869,0.2005082883762855,27.71050408922895,15.335205844360653,45.96483480089132
1760596822.45823,14.78500231656966,0.2967678600803862,0.8026431509523683,0.19225337735375914,36.13480452178267,17.811681733317307,43.221405807627555
1760596822.468142,15.239195759849894,0.34481147377411975,0.8163581728932696,0.17867039548691044,42.806529735564254,21.79032825593076,41.15986450552681
1760596822.4781199,15.689789128551997,0.386219529854073,0.8222797848929203,0.1605869113203904,47.44631697226378,27.252611038375857,39.75835807358168
1760596822.4881659,16.13817058573618,0.41558709731869686,0.8221270678011514,0.1397001338440815,50.00400136844899,33.912022274516474,38.916374319184236
1760596822.4981513,16.582889955940107,0.4292623858968145,0.8180862294074991,0.11836747453744818,50.65361891925061,41.25644797203217,38.46576013530478
1760596822.508135,17.02000967527997,0.4259529043329713,0.8124384667719807,0.09928939106683532,49.75538285089278,48.62872712963613,38.190586726370015
1760596822.5181532,17.443766890823348,0.4069178065430761,0.8072169959526798,0.08514714505336186,47.79370030977862,55.33015137059903,37.85130402494544
1760596822.5281913,17.847399043086835,0.3757123684510151,0.8039271401628306,0.07825907699332012,45.30279491739453,60.72768290790717,37.20910857348595
1760596822.5381644,18.22397180820757,0.33753791944793204,0.8033516053470796,0.08030817783155456,42.791844509634856,64.34529382154032,36.047670575739474
1760596822.5482328,18.567072108300067,0.298329428517057,0.8054562532413748,0.09217062546410754,40.6802445912983,65.92322016873709,34.1906954087652
1760596822.5581512,18.871279701740438,0.2637636296233959,0.8094080233605215,0.11385234813718192,39.25108742429944,65.43555651765982,31.51480977019629
1760596822.5681617,19.132393671221365,0.2383803989003564,0.8137087068802855,0.14452535611922956,38.627591271278824,63.06520201463393,27.957847086444314
1760596822.578139,19.34744832853243,0.2249767989329993,0.8164366401377795,0.1826430510985185,38.773550707233156,59.14378315172983,23.522837363380983
1760596822.5881355,19.514591989341582,0.22436559441811935,0.8155779071874502,0.2261040899802934,39.5155211484644,54.07074492646586,18.277971081542667
1760596822.5981407,19.63291414834717,0.23550791944773833,0.8094174696568547,0.27243290817681454,40.581828456473765,48.228915025637455,12.352594474219096
1760596822.6081488,19.70229395247478,0.25595662793990953,0.7969451605035279,0.3189512032798314,41.65179386205431,41.913276587446816,5.929085603404645
1760596822.6181595,19.72331458346368,0.28249906378234085,0.7782180054533003,0.36292403293342035,42.407929739741604,35.286111021977305,-0.7695128151814619
1760596822.628141,19.697254670882238,0.3118699078236287,0.7546193904565812,0.40167614301027416,42.584406163539896,28.3661162202149,-7.495847840152304
1760596822.6382296,19.62613724559937,0.3414100783783749,0.7289659465235241,0.4326893091898444,42.006615340478994,21.05270275253882,-13.997687504671042
1760596822.6481557,19.5127945570489,0.36956550776211294,0.7054236570172153,0.4537031639114974,40.61855790005955,13.18059457456827,-20.0388016996525
1760596822.6582475,19.360897486937215,0.39614337610596245,0.689202727124247,0.46283977037840157,38.49634622627538,4.595055716938187,-25.41913196302294
1760596822.6681523,19.17490204364614,0.42227318028880995,0.6860171319497864,0.4587545925314488,35.847037942318856,-4.765001171649974,-29.991980022568278
1760596822.6781533,18.959876510910213,0.45005700919865904,0.7013300309309181,0.4407941681248669,32.992464292884655,-14.790007863802055,-33.676405523722366
1760596822.6881397,18.721182449135053,0.48193693781777663,0.739456353764308,0.4091273565611489,30.338215073595673,-25.142292946324073,-36.46392290850978
1760596822.6981356,18.46398960808912,0.5198568786965858,0.8026420641231675,0.36481879919481564,28.32898164866612,-35.229534750270055,-38.419515381688
1760596822.708185,18.192618866343523,0.5643483603339307,0.8902691824093415,0.3098262596243754,27.393227385604018,-44.21706945796009,-39.67751742445409
1760596822.71816,17.9097407292916,0.6137141190371191,0.9983395041624367,0.24691807051467965,27.882426692397804,-51.082712357239735,-40.432893085439616
1760596822.7281442,17.61551059786736,0.6635039523194187,1.1193708178505983,0.17951415720256436,30.012370804379092,-54.712849588717766,-40.92803599857442
1760596822.7382052,17.3067805298107,0.7064591130729464,1.2428027465811404,0.11145232617796287,33.81563571425848,-54.03335047003864,-41.43486167348824
1760596822.748139,16.976567043339266,0.7330391050000303,1.3559554304203876,0.046678617936261727,39.1146154128529,-48.1636440065682,-42.2320709245949
1760596822.7581267,16.61395811164784,0.7325472689459068,1.4455080275064738,-0.011131796937461016,45.52305278532278,-36.57735437429893,-43.57817874706269
1760596822.7681665,16.204605596220308,0.6947587799314314,1.499362912377525,-0.058993531176788724,52.48050705692252,-19.248490368941265,-45.682011685741514
1760596822.7781572,15.7318775285443,0.6118440906583649,1.5086441285190486,-0.09500965946453879,59.31877985480716,3.240974429083683,-48.67349551370991
1760596822.788238,15.17864611862253,0.48028222762087436,1.469470304544401,-0.11867041090684464,65.35258801704491,29.656815274188627,-52.57840850989681
1760596822.7981942,14.529570582773763,0.30238587511391585,1.384087882343475,-0.13097666006540856,69.9800755160936,58.152349522965395,-57.301284158948164
1760596822.808173,13.773611241754399,0.08704599279592552,1.261006306555515,-0.13433943100739,72.77424145053604,86.40351798950299,-62.620746576806724
1760596822.818134,12.906405195917676,-0.1506110310904931,1.113973522398449,-0.13224334809646213,73.54626792450068,111.83538529827915,-68.20096998578909
1760596822.8281267,11.932078932600653,-0.3907560966290934,0.9599262547577322,-0.12870343269579787,72.36705854479804,131.91772060199528,-73.62119127737903
1760596822.838258,10.864107765652617,-0.6113904413904503,0.8163328343496445,-0.12759215864423987,69.54284592874832,144.48944543071053,-78.42199113578837
1760596822.8483775,9.7249739320578,-0.79140293459007,0.6985024008435883,-0.13196093215037655,65.55142701937298,148.0596522545122,-82.16285259799102
1760596822.8581352,8.544597297119195,-0.9135168734069913,0.6174148646208355,-0.14350509715395052,60.95393944079494,142.0315581054824,-84.48167804070091
1760596822.8681293,7.35774662172209,-0.9665437848775141,0.5784574637403003,-0.16230088565949183,56.30083476165366,126.80750653692749,-85.14518815587115
1760596822.878338,6.200813059748241,-0.9466035775505237,0.5812078487848823,-0.18687648168143195,52.049617925505245,103.75556085568213,-84.0804120605271
1760596822.8881726,5.108402263240575,-0.8572772990368829,0.6201638960279829,-0.2145934603923088,48.50732413368849,75.0446992702746,-81.38147190478004
1760596822.8981457,4.110180254455303,-0.7088845538320682,0.6861504691481766,-0.242238755604354,45.804364965662984,43.378713308346754,-77.29122682904082
1760596822.9081457,3.228320849915464,-0.5171504757278734,0.7680584554211028,-0.26667914683162125,43.89989942866762,11.673568143712062,-72.1624651265911
1760596822.918133,2.4757852052252884,-0.3014797559024976,0.8545822201066146,-0.2854210658188073,42.61357605127649,-17.272880476957972,-66.40694711919092
1760596822.9281495,1.8555448021726808,-0.08297967112985523,0.9356900762206614,-0.29695527552776435,41.67515315283007,-41.07566361655141,-60.442041555243115
1760596822.9381475,1.3607522664663265,0.11765136083879783,1.0036588559565949,-0.3008421343689679,40.78220491724959,-57.990965100350635,-54.6439229861486
1760596822.9481435,0.975775710888358,0.2822136921382874,1.053605492716163,-0.2975794146805818,39.656345526928654,-67.06029822392632,-49.313740642583866
1760596822.9582195,0.6779456088716431,0.39685818500843134,1.083538474222606,-0.28835016076625236,38.08960468208557,-68.16392382780688,-44.65964051053957
1760596822.9681435,0.43981996767352266,0.4534579709620767,1.094018371779927,-0.27475036721628515,35.97462813074971,-61.984688145026084,-40.794097822784465
1760596822.9781282,0.23175051621501622,0.45030046146900526,1.0875559892024549,-0.2585578755058456,33.31536574474107,-49.89002334794093,-37.74362483672798
1760596822.9881625,0.024523726421188465,0.39200309381705795,1.0678910915446669,-0.2415570636811636,30.21856711148112,-33.74667954672012,-35.46682424818417
1760596822.9981394,-0.2081487103582004,0.2886808474338336,1.039285580379822,-0.2254043338870613,26.869798700987413,-15.689659169127014,-33.8766028158473
1760596823.0081422,-0.4875047099123466,0.1544965868535266,1.005933362183433,-0.21151387951418146,23.499844373079952,2.1275810149295427,-32.862708441628385
1760596823.018137,-0.8281603521531987,0.005796362117915898,0.971541998046548,-0.20095326758411972,20.34793980198942,17.7717955852103,-32.311412195124305
1760596823.0281901,-1.2372308672064838,-0.14091881377977128,0.93909333241864,-0.19435179639699246,17.62765278661782,29.728777630413454,-32.120040421745585
1760596823.0382144,-1.7142100745786892,-0.2709099932825711,0.9107561351568614,-0.19183412718775564,15.499853657464792,37.039250456679824,-32.20508886397848
1760596823.0481505,-2.2515921809463797,-0.3727519978911063,0.8879088212483838,-0.1929948747331258,14.05554598978769,39.35805354982817,-32.50378692783568
1760596823.0581584,-2.836145207490458,-0.439333583245191,0.8712308493242853,-0.19692629529290542,13.309681810496409,36.9340590911525,-32.97018026565058
1760596823.068139,-3.4506843034994596,-0.46821738311117733,0.8608296111256507,-0.2023027151849871,13.205662601403045,30.51924404998726,-33.56785191619156
1760596823.0781512,-4.076140799889701,-0.46137350724713694,0.8563785391581333,-0.20751547056001807,13.629044129129017,21.224374049151375,-34.26195254770828
1760596823.088159,-4.693678332260003,-0.4243888249784822,0.8572488129472078,-0.21084416376955306,14.427951842819644,10.344639831257588,-35.01301395072776
1760596823.0981538,-5.2865871193164375,-0.3653158380543885,0.8626221102558679,-0.21064578452530322,15.436892432694101,-0.8192355110696522,-35.77415700206053
1760596823.1081598,-5.841716820459115,-0.29335647681170846,0.8715769866200389,-0.2055429112482451,16.500196959867424,-11.120426083102435,-36.492135923131336
1760596823.118125,-6.350296376207442,-0.2175791242469816,0.8831474198461468,-0.1945942566486744,17.491480348330338,-19.686754447628527,-37.111589484284806
1760596823.1281466,-6.808113168657636,-0.14584415950016566,0.8963582318668173,-0.1774324153795701,18.32632596708257,-25.990680398739745,-37.58115654754788
1760596823.1381469,-7.215141680386222,-0.08406575579247523,0.9102471127780999,-0.15435320723888538,18.966738539356502,-29.864675812491335,-37.85983908415132
1760596823.148149,-7.574789305106486,-0.035871927620309794,0.9238855820523596,-0.1263409399998132,19.41743607165965,-31.46615898257427,-37.92212084997177
1760596823.158156,-7.892953067148947,-0.002654433633385763,0.9364108039957877,-0.09501939624010061,19.715448722166503,-31.202860598636544,-37.76077331964066
1760596823.1681488,-8.177063762501625,0.016060533103327192,0.9470766312734812,-0.06253166558157003,19.91553051136816,-29.634044543564823,-37.38686791815306
1760596823.178139,-8.43524836025973,0.022031782814372215,0.9553256389025522,-0.03136840697808179,20.074436609267174,-27.364916790974103,-36.82710355338902
1760596823.1881444,-8.675681348689658,0.01764314683198067,0.9608743353771361,-0.00417384310407078,20.23708538269386,-24.950669229051456,-36.11899201970107
1760596823.1981294,-8.906133323709255,0.0052912511529669744,0.9637931236899984,0.01644515876577721,20.426971455023764,-22.82318877343361,-35.30464012247941
1760596823.2081347,-9.133673705593948,-0.013077430527267897,0.964556507341734,0.028095271183166605,20.64203358596596,-21.248311481447963,-34.42387667335678
1760596823.2181368,-9.364457541336876,-0.03622307805775171,0.9640427637506872,0.028759108606417342,20.855809942358878,-20.315795150998618,-33.50742846119744
1760596823.2281237,-9.603530693016822,-0.06365685014302232,0.9634739013112821,0.016950180011790664,21.02251268282118,-19.959054990018394,-32.570850790282094
1760596823.2381673,-9.854616850868286,-0.09550912306846775,0.9642985972669432,-0.00813388759595213,21.083921669099798,-19.99787386340743,-31.609945309809152
1760596823.2481298,-10.119887129841487,-0.13227965780281795,0.9680286626826516,-0.04645924361764429,20.975868170719906,-20.195004956964258,-30.59833671425643
1760596823.2581363,-10.399742455616247,-0.17453183094338376,0.9760452897263588,-0.09701500328094534,20.63252623553277,-20.316780363589864,-29.48764428915636
1760596823.2681599,-10.692652654286551,-0.22258739365189142,0.9893976552957351,-0.15770966544814963,19.98760976082527,-20.188377659068493,-28.210320734498133
1760596823.2781584,-10.995094083061247,-0.27626795150185424,1.0086220986185537,-0.22534452068363528,18.97268011816893,-19.736060483941884,-26.684885648073912
1760596823.2881477,-11.301613682668505,-0.33471557463887625,1.033610000895871,-0.2957054242274278,17.513839146371556,-19.011116429185396,-24.823055923879743
1760596823.2981467,-11.605027386648011,-0.3963090594152279,1.0635427737910137,-0.3637984606532455,15.52881061947296,-18.19286560935879,-22.538132138184093
1760596823.308151,-11.89674192944695,-0.45867867851946803,1.0968963601518624,-0.4242264549706636,12.92655696472065,-17.570629799530163,-19.753828297846205
1760596823.3181565,-12.167175952252697,-0.5188149922997781,1.131506305059162,-0.47167263754315564,9.61108029356268,-17.506842867015006,-16.412496232722642
1760596823.3281634,-12.406247207337817,-0.5732660322829655,1.164687303726186,-0.5014337959296196,5.490060814137564,-18.385628629664847,-12.481494080124177
1760596823.3381617,-12.603882064220684,-0.6184163852237783,1.193414781270547,-0.5099318285853345,0.48775270705864465,-20.55318060178505,-7.956451241156343
1760596823.3481665,-12.750491107308077,-0.650834487878034,1.2145832857114334,-0.4951314924154134,-5.439624527082727,-24.257934766645246,-2.860539176627673
1760596823.3581655,-12.837349719179654,-0.6676575860974207,1.2253410248544394,-0.4568041165433864,-12.288648060411548,-29.599432788670615,2.7603788770035367
1760596823.3681483,-12.856836135844894,-0.6669618362531338,1.2234642881591726,-0.3965995031621641,-19.99667035377904,-36.494503848479155,8.845797506055339
1760596823.3781886,-12.802511993520756,-0.6480496675255559,1.2077022708593625,-0.3179154812531462,-28.43588685934961,-44.667617666459996,15.329893084211708
1760596823.388161,-12.669070165855123,-0.6115903179651053,1.178015307324641,-0.2255820197206488,-37.415494789150536,-53.66885464537949,22.149655907013873
1760596823.3981395,-12.452207374068568,-0.5595772002482683,1.1356521093437484,-0.12540156882674544,-46.69249250970795,-62.918248165638076,29.249553150862518
1760596823.408138,-12.14849570599904,-0.49510943329395907,1.0830498420550858,-0.023605687528275986,-55.98997599272889,-71.77030186686561,36.581346240813765
1760596823.4181385,-11.755324740076915,-0.422046453929447,1.0235776269198416,0.07370409371726414,-65.0202756081448,-79.58865561905591,44.099017371411456
1760596823.428167,-11.270965161380289,-0.3446065823870608,0.9611706135319226,0.16106802724910482,-73.50922943521806,-85.81921794191477,51.75009980283525
1760596823.4381673,-10.694769661681002,-0.26697646114199497,0.8999155209063472,0.23408605729381932,-81.21751316944881,-90.0508883943403,59.465690602880116
1760596823.4481592,-10.027485291580266,-0.19297588733249402,0.843648989912759,0.2897185465163127,-87.9554714162591,-92.05583317208011,67.15186525144513
1760596823.4581342,-9.271614285880212,-0.12579753101546953,0.7956198826987894,0.3264654275119794,-93.5893918965518,-91.80527544182578,74.68503095458071
1760596823.4681513,-8.431739519227389,-0.0678277179899155,0.7582502559437593,0.3444246461971826,-98.03928192841384,-89.4609483934052,81.91292418084166
1760596823.478149,-7.514733017061276,-0.020554033953534945,0.7330084618017534,0.3452233612282221,-101.27018160259259,-85.34595304801273,88.66163645988325
1760596823.488196,-6.529787653805309,0.015435997623821762,0.7203828390366738,0.3318079100179002,-103.28008377409368,-79.901212862279,94.74766513308252
1760596823.498132,-5.488241431157727,0.04037536093217147,0.7199241750315449,0.30808667822472,-104.08737450308045,-73.63466187681219,99.99300476573228
1760596823.5081654,-4.4031902887982595,0.05518802899151021,0.7303209808939746,0.27845156867517273,-103.71986650285731,-67.06969948082855,104.24092661406101
1760596823.518126,-3.288906971022812,0.06135033804305277,0.7494864119283724,0.2472486427441267,-102.20675860473044,-60.69771443619795,107.3702488848073
1760596823.5281289,-2.160103446960238,0.06077423326825504,0.7746620648013987,0.21829788223989632,-99.57459382450529,-54.93741276961538,109.30639256554005
1760596823.5381787,-1.0310961326273624,0.05571789193092227,0.8025689887688037,0.19454935660619163,-95.84824312854482,-50.10211297609054,110.02816798224127
1760596823.5481315,0.08504436755239102,0.04870101362499135,0.8296419682767043,0.1779111154684299,-91.05751223289224,-46.37561734716078,109.5698741974392
1760596823.5584042,1.1772604150051453,0.0423858025606354,0.8523557521795697,0.16922635163714356,-85.24876591761637,-43.79769163440469,108.01877901815395
1760596823.568147,2.237089339699074,0.03938936427066245,0.8676032827272495,0.16834983129735373,-78.49920634407431,-42.2609964276919,105.50833199759151
1760596823.5782003,3.258972947473389,0.04201859859737299,0.873051626491126,0.17428372147491644,-70.92988594456286,-41.52168523574654,102.20761798796487
1760596823.5881906,4.240240363378619,0.05195611912147117,0.8674046996278604,0.18535719293986547,-62.71300125483606,-41.22517672655093,98.307737332207
1760596823.5981402,5.18075758319922,0.06996063294265252,0.8505323213193539,0.1994462234050445,-54.06991371946448,-40.94661799535392,94.00610706041059
1760596823.6081624,6.082290624239539,0.09566207694038419,0.823457494278916,0.2142246160991552,-45.258510289256755,-40.24259699444557,89.49008378697567
1760596823.6181536,6.947677699046192,0.12752220277244558,0.7882154977557229,0.22742587820772228,-36.551275743013214,-38.70759193922753,84.92167248242748
1760596823.628152,7.779938939746332,0.16299788148092112,0.7476110714992465,0.23708996035572555,-28.207851083257744,-36.02663684948795,80.42522573733399
1760596823.6381516,8.58146257631987,0.19889811631567514,0.7049078627699042,0.241771570785403,-20.447111238707475,-32.01564428315667,76.07980180571313
1760596823.6482084,9.3533912380154,0.2318798757167668,0.6634884901300983,0.24069198737387815,-13.423707679145155,-26.642885548169424,71.91719271034717
1760596823.65826,10.09529307465285,0.2589931379676015,0.6265233613630712,0.23381868753637078,-7.212939211123526,-20.0286578957744,67.92566959249845
1760596823.6681592,10.805146592514944,0.2781690666172995,0.5966813263436118,0.22186012484262477,-1.8062168518069717,-12.424212653868018,64.05846188118593
1760596823.678167,11.479607437962727,0.28855162367033377,0.5759059590068883,0.20617300347658363,2.8823948562394475,-4.174651206654754,60.245193205790095
1760596823.6881616,12.114474722357631,0.2906033710355971,0.565270158684926,0.18859557244298303,6.9997866574603425,4.326993761609191,56.40421619053977
1760596823.6981423,12.705246574930918,0.2859648625095126,0.5649128222546685,0.1712359797300901,10.730112583131524,12.686268527509887,52.45411976883255
1760596823.708154,13.247654817990359,0.2771005246664286,0.5740568119265369,0.15625289303252568,14.267038412677874,20.546725394435132,48.32343542453955
1760596823.7181387,13.738093565466192,0.26680707797964687,0.5911049051752952,0.14566249098796036,17.785249831402375,27.616449671955117,43.95835578219554
1760596823.7281625,14.173896485029207,0.25768348114733863,0.6138058389417439,0.1411927063545177,21.414245603818987,33.6785439871394,39.32876592245933
1760596823.7382085,14.553460441599263,0.2516626055548619,0.6394764594275693,0.14418746884402625,25.217028462373815,38.58536758081977,34.43294238214641
1760596823.748144,14.876248315088423,0.249688899056062,0.665263264081122,0.15554578419144446,29.175904365471425,42.23912421537883,29.300960354752604
1760596823.75814,15.142723590471096,0.25159862276023465,0.6884288559193515,0.17566840712723034,33.187253632879255,44.563737261179725,23.996379349101463
1760596823.7681456,15.354271200535333,0.2562233834123782,0.7066500740954277,0.2043866887643561,37.066868099977775,45.47454094806067,18.615423306212698
1760596823.7781498,15.513144612499268,0.2616971201124789,0.7183083846593812,0.24086826337038333,40.567131641186954,44.85292034657243,13.282820888825148
1760596823.7881484,15.622453437648229,0.2659082421722049,0.7227419845575268,0.28352511200183333,43.40648406074567,42.5325842477915,8.143771675606615
1760596823.7981303,15.686177707308088,0.26701201369685024,0.7204228919241609,0.32997580844674035,45.309695637651636,38.30269350330636,3.352119433954632
1760596823.8081684,15.709174883426508,0.26391113756139056,0.7130275870380023,0.37712120274092187,46.054634396198814,31.930618419449342,-0.944362797539113
1760596823.8181925,15.697140444210202,0.2566251013604295,0.7033825263843024,0.4213703929413006,45.51856252637361,23.203763173426363,-4.619896329955363
1760596823.8281667,15.656491173445614,0.24649318890178554,0.6952765287280642,0.45900236265482247,43.715817725143914,11.986137206976778,-7.585759226003348
1760596823.8381505,15.594154191298092,0.23618055574223157,0.6931372408268033,0.4865950869883876,40.81937192583279,-1.717919518744724,-9.802572780019947
1760596823.8481674,15.517256426040504,0.22947514694313967,0.7015751791102017,0.5014348479075021,37.160668226972774,-17.702309300157992,-11.288464314373723
1760596823.858157,15.432716661292954,0.2308784041951793,0.7248139921076056,0.5018405407465416,33.20472259844066,-35.50959831151449,-12.122429203898962
1760596823.8681521,15.346749360304496,0.24501022488162133,0.7660504020305287,0.48737287596348994,29.50066445817029,-54.401631461355194,-12.44268753490322
1760596823.8782551,15.264300318771346,0.27586939314236764,0.8268167397817838,0.4589187636203189,26.6118804637604,-73.35703353823116,-12.439971659261758
1760596823.8882055,15.188448560491086,0.32601239729878767,0.9064453776156972,0.4186426118458423,25.034488999809163,-91.10077130899872,-12.345627588983257
1760596823.898212,15.119823179168817,0.3957365064451668,1.001746936598135,0.36979267672844307,25.11692697637576,-106.16944729115284,-12.41448847264097
1760596823.908154,15.05609561017487,0.4823801447705342,1.1070008786122383,0.31635795043764803,26.99541701352256,-117.01380105821777,-12.902953370263393
1760596823.9181933,14.991617506820095,0.5798825209714654,1.2143124226790587,0.2625939444402597,30.558830504667995,-122.13618729243993,-14.043616873201756
1760596823.9281895,14.917281995045814,0.6787613659743026,1.3143243174551529,0.21246603346345672,35.45181500400909,-120.25526497760728,-16.01893949911695
1760596823.9382088,14.82068712417334,0.7666523594254011,1.3972117994694289,0.16908829582049842,41.117974308691146,-110.4833608054172,-18.937475089551572
1760596823.9482014,14.686667177906752,0.8294902377435786,1.453852056195517,0.13426079180561967,46.87711986990958,-92.49529107113116,-22.816659218892273
1760596823.9581666,14.498225621764615,0.8532952888708757,1.4770360841031047,0.1082201083278658,52.02404458794224,-66.66245097011823,-27.57568646629149
1760596823.9681602,14.237855296599195,0.8263737821498314,1.4625658115356763,0.0896950074107909,55.932290747614026,-34.12438418769026,-33.04035295824445
1760596823.9781575,13.88917406075555,0.7415823705619929,1.4100637900080353,0.07628080182859504,58.14555151083493,3.226510471856982,-38.95923358008127
