timestamp,angle,linear_acceleration_x,linear_acceleration_y,linear_acceleration_z,angular_velocity_x,angular_velocity_y,angular_velocity_z
1760679385.4750462,-7.806372547524145,-0.17124268251884966,0.9275739968972448,-0.43869496948378245,8.545599184910689,-10.656176856530339,5.587199976686335
1760679385.4849653,-7.843408643154471,-0.1690699934003679,0.9294555740480357,-0.4483204689116457,7.946963435199668,-9.944118355220091,5.483172155383753
1760679385.4952018,-7.8678280675625425,-0.16462011124021478,0.9311966631989179,-0.4558491759558805,7.206029284475101,-9.074112091885167,5.520679617237884
1760679385.5048835,-7.874272839074449,-0.15823672105769976,0.9326206716445431,-0.46090874227016654,6.331476460450169,-8.082655885126332,5.736156336942342
1760679385.5151834,-7.858460917370823,-0.15039444637219126,0.9335652922954151,-0.46330665903694623,5.334613275900505,-7.014073986652253,6.155756226016161
1760679385.5250237,-7.817390759326322,-0.14162273924149546,0.9338869493347789,-0.46303102525885503,4.227184121754298,-5.9203741640851995,6.792111503320295
1760679385.5348213,-7.7494016841228825,-0.13243301023947515,0.9334641853663859,-0.46023172824084585,3.020006027693583,-4.859160188071471,7.641812935930599
1760679385.5450141,-7.654121010024341,-0.12326368665870134,0.9322035830965456,-0.45518807165932146,1.7228765037342835,-3.8889953420574876,8.683977090580447
1760679385.555214,-7.532346461893498,-0.11445331536631886,0.9300500560604302,-0.44826996817767606,0.3458533380639978,-3.062310834532193,9.880229946116405
1760679385.564782,-7.385918285634526,-0.10624551359755961,0.9270004326302839,-0.439899506436598,-1.09839231662302,-2.4168001487105357,11.17633012895997
1760679385.5749135,-7.217627422981333,-0.09882202779219626,0.9231167245432952,-0.4305180539839961,-2.5918031785536924,-1.9670170257334556,12.505482713785893
1760679385.5847898,-7.031184241986609,-0.09235281091626849,0.9185345420475441,-0.42056143319365674,-4.1086121105438735,-1.6983546829857592,13.793186852183366
1760679385.595123,-6.8312408019705675,-0.08704667253037612,0.913462818191864,-0.4104428114361798,-5.614344083212887,-1.5655120154574542,14.96326389111013
1760679385.6049087,-6.623425746965963,-0.08318415584139734,0.9081726751423235,-0.40054044227845487,-7.066786545937653,-1.4968407331455935,15.944557515677685
1760679385.6150105,-6.41432454907234,-0.08111710550876182,0.9029754702071277,-0.3911859658445629,-8.419104511368435,-1.404680092913365,16.677680091368128
1760679385.6247928,-6.211329846430014,-0.0812274722030789,0.8981924892551256,-0.38264948116955716,-9.624672434437331,-1.2002026124293916,17.121083921069598
1760679385.6348886,-6.022304856584778,-0.08384999270918247,0.8941206861703571,-0.375120556087095,-10.642648457011685,-0.8098803240489398,17.25567306072586
1760679385.6450493,-5.855047693097324,-0.08917626447232423,0.8909995086292495,-0.36868890920524283,-11.44304355196485,-0.18993196879673183,17.087186637485164
1760679385.655017,-5.7166061989554295,-0.09716695089095065,0.8889832506147904,-0.3633322185728821,-12.010148326495933,0.6646562370888407,16.645733402828014
1760679385.66517,-5.612552301580334,-0.10750006105793516,0.8881223512600294,-0.3589189556735148,-12.34362977611777,1.7187199175603451,15.982183780952493
1760679385.6754003,-5.546358679802844,-0.11957459422642494,0.8883562370697535,-0.35523100375902555,-12.457244455903059,2.9034149056382517,15.161662728315143
1760679385.6851635,-5.519011403119995,-0.1325726835997942,0.8895196190962477,-0.3520054529763645,-12.37572514746604,4.128994350511772,14.255112473780814
1760679385.6950634,-5.528938137947178,-0.14556547993424904,0.8913630148213483,-0.34898876851309185,-12.130787363873885,5.300908207494219,13.33059147550154
1760679385.7051733,-5.572250868881023,-0.15763521468242866,0.8935860514512115,-0.34599131653844345,-11.757267039615781,6.3358382262666195,12.44617864468796
1760679385.714871,-5.643227196228702,-0.16798309511885967,0.8958792795792372,-0.34292885798048706,-11.290171239999083,7.174610161978224,11.64572844393997
1760679385.7252734,-5.7349120475659525,-0.17600009748332018,0.8979683431836875,-0.33984180792297425,-10.763015923911157,7.789801916395729,10.957601373176244
1760679385.7349274,-5.83971876090197,-0.1812910983691549,0.8996540768608219,-0.33689079008194445,-10.207380594072264,8.187167702245086,10.395640743066984
1760679385.744875,-5.949935893287444,-0.18365688754440665,0.9008425609608255,-0.33433366009567106,-9.65326248212412,8.40143749288689,9.961460919478052
1760679385.7549155,-6.05809066915272,-0.18304944894989425,0.9015600975430966,-0.33249148255178534,-9.129649288844943,8.488147357241347,9.647315722067463
1760679385.7650814,-6.157169055082864,-0.1795210242092109,0.9019505069939598,-0.33170933869733527,-8.664758228783121,8.513593146909416,9.43907252385577
1760679385.775049,-6.2407343970744575,-0.17318633115324178,0.9022562470044037,-0.3323151031878899,-8.285560178693999,8.544821048278445,9.318996829482543
1760679385.785033,-6.303011571384747,-0.16421079901597563,0.9027889297060622,-0.33457779939517907,-8.016458876585896,8.641031083758644,9.268167390604287
1760679385.7950385,-6.339004092094845,-0.15282708458207694,0.9038968970129774,-0.3386669461590604,-7.877272593288109,8.847146157467137,9.268422568677014
1760679385.80505,-6.344685242483841,-0.1393699128529644,0.9059369080869675,-0.3446140876711212,-7.880914497268848,9.189775526182727,9.303796930569685
1760679385.8151438,-6.317259115428738,-0.12431003055039366,0.9092544546933674,-0.35227694726342873,-8.031331467123048,9.675449691686026,9.361435137442298
1760679385.8250985,-6.255441067031706,-0.10826608022435337,0.9141742278593961,-0.36130658023126216,-8.322303134737538,10.290818080132885,9.43194723720815
1760679385.8347564,-6.159678131184857,-0.09197930709674114,0.9209996229677619,-0.37111977154480497,-8.7376192934982,11.004453972790396,9.509081459759507
1760679385.8450198,-6.03223027736743,-0.07624778979895057,0.930017287743607,-0.3808823027548216,-9.25296323193184,11.769963708807207,9.588457682009748
1760679385.8551269,-5.877065445798558,-0.06183092164097339,0.9414990152395862,-0.38951186193978116,-9.839566067649852,12.530180511673954,9.665008436336931
1760679385.86488,-5.699576673380377,-0.04934704368341889,0.9556904590939344,-0.3957107491755732,-10.469407937736227,13.22224982590792,9.7288481636713
1760679385.8748991,-5.50618751944432,-0.03919172784137089,0.9727777014024427,-0.3980373533593057,-11.121463582511922,13.783319286391324,9.759642895124603
1760679385.8851016,-5.303944776483105,-0.03149680218229932,0.9928301884519213,-0.3950211757885763,-11.788240809767164,14.156349582086365,9.720162056454773
1760679385.8947997,-5.100188018565554,-0.02613397786115239,1.01572890964679,-0.3853191078941573,-12.48164746517165,14.295396061401648,9.550378109021938
1760679385.904868,-4.902341152427168,-0.02275214939863573,1.0410965720552137,-0.36790221058921774,-13.237061998247722,14.169769399852498,9.163958253340292
1760679385.9148488,-4.717816312168951,-0.020832015456512865,1.0682487479624037,-0.3422541173472473,-14.11442431271926,13.766858492162868,8.449028393260953
1760679385.9250267,-4.553978949310917,-0.019745771981149567,1.096181762004675,-0.30855491346393205,-15.195293369936987,13.093928462365929,7.274611749821179
1760679385.9348474,-4.418107325080022,-0.018818472822584136,1.1236062360012125,-0.26781830549548186,-16.57521114746997,12.17952860226343,5.503257996768528
1760679385.9449158,-4.317289012318642,-0.01739465766231809,1.1490268799011136,-0.22194702611176528,-18.3513630771728,11.074971959059262,3.009264911378851
1760679385.955083,-4.258221032130512,-0.014913948046479204,1.1708613141569988,-0.1736743932937139,-20.60632935046802,9.855712778495802,-0.29928621776906394
1760679385.9648883,-4.246908184956021,-0.010993285642097781,1.1875846331932665,-0.1263704713442055,-23.389544656251413,8.621667097113788,-4.457571031326229
1760679385.9749668,-4.288281853645437,-0.005507065480692874,1.1978825373145412,-0.08371031114126899,-26.698825939964454,7.4949667929670065,-9.42389587695827
1760679385.984788,-4.3857891098783055,0.001345570686474149,1.2007943257784137,-0.04922961713249946,-30.464905027640455,6.61355327324644,-15.06655726740902
1760679385.9949894,-4.541027106876159,0.008994457879445628,1.1958273229482534,-0.025826529088749446,-34.542187562667834,6.119479960501686,-21.161528723047702
1760679386.0053146,-4.753512657291731,0.01647840214646622,1.1830253666783324,-0.015296601383268764,-38.708763032390486,6.141749981194562,-27.4036387742154
1760679386.0148146,-5.020670618142783,0.022458430709033545,1.1629765613703231,-0.017997583899501585,-42.6778228989696,6.774826735223901,-33.43184862152137
1760679386.0249388,-5.338090320079525,0.025278571763816017,1.1367531406932807,-0.03272315276152777,-46.121041313764394,8.055387817273617,-38.8665695202606
1760679386.034808,-5.700040574692543,0.023095351900623045,1.105790923347816,-0.05682326001996969,-48.70232682990668,9.941111982630728,-43.3542791077102
1760679386.044976,-6.10016581579522,0.014094001326852262,1.071732533500937,-0.08655495269608139,-50.118114016123855,12.295932076404947,-46.61277406700827
1760679386.055258,-6.532229201557924,-0.00320973170122604,1.0362679707779185,-0.11759729163617479,-50.138574556146146,14.886015944159933,-48.46981592895633
1760679386.064928,-6.9907411786437095,-0.0296139995750198,1.0010024329758438,-0.1456328259552313,-48.64323599189565,17.389737408089605,-48.88880184545653
1760679386.07516,-7.471324217308088,-0.06488321922433085,0.9673663208537805,-0.16689441359908783,-45.64478738649933,19.423226250646177,-47.97711108595276
1760679386.0849712,-7.970716708001465,-0.10748670007353134,0.93656359005729,-0.1785969083225887,-41.29640986439229,20.58092269703658,-45.975466370333436
1760679386.0948308,-8.486404184305067,-0.15450173445872029,0.9095407379808333,-0.17920622347614523,-35.88056456814375,20.488031732117914,-43.22955475578312
1760679386.10503,-9.015970535744398,-0.20174723907304493,0.8869555728509908,-0.16853041951225514,-29.780236482065614,18.858978548164135,-40.14786657677816
1760679386.1148863,-9.556362266767435,-0.2441890517661839,0.8691339790199649,-0.14764164343723069,-23.436514913346087,15.553192771055897,-37.15184646369283
1760679386.125097,-10.103319054553493,-0.2766079800337037,0.8560213154596877,-0.11865507389415347,-17.298605585022674,10.617593848601013,-34.625637027058474
1760679386.1348732,-10.651205870870697,-0.29444456731220914,0.8471550778410237,-0.08440644399631654,-11.773609934881586,4.305305351714027,-32.87262453792694
1760679386.1450233,-11.193371046462948,-0.2946584366190498,0.8416950606107477,-0.04808271473069786,-7.18343620665719,-2.936654698595451,-32.08459523943732
1760679386.1550765,-11.722981602958685,-0.2764073348086509,0.838536737969296,-0.012862638519703883,-3.734887065837081,-10.512040247834209,-32.326916250617884
1760679386.1651666,-12.234123863140487,-0.24138310310034022,0.8365041069187524,0.01838985013001086,-1.5064489090044795,-17.7467871082744,-33.5404104535056
1760679386.175054,-12.722876667791974,-0.19372423949379133,0.8345832894338394,0.043358968249976045,-0.45212856798092804,-23.97568130957156,-35.55813540524019
1760679386.1850693,-13.188091686846164,-0.13952110177365218,0.832135128701068,0.06043525962329276,-0.41962955516707956,-28.629660999521967,-38.13349508119195
1760679386.1951013,-13.631717353726154,-0.08600692411029426,0.8290243815398786,0.06880553876888236,-1.1779974291966269,-31.309408749136857,-40.97514219334427
1760679386.2053049,-14.058623543882797,-0.04057095222155706,0.8256244406210616,0.06848255495508185,-2.44913364654114,-31.834151979161607,-43.78393647907695
1760679386.2148516,-14.4759829686608,-0.009742309761177815,0.822691891539267,0.06027832989463506,-3.938396576448254,-30.25961100918329,-46.28768302892007
1760679386.2251046,-14.892329834663517,0.0017125477263070467,0.8211438516418872,0.04571721620816477,-5.361375241117176,-26.864455950357403,-48.270236371625806
1760679386.235048,-15.316450885503508,-0.00855204983082711,0.8218009228623399,0.026876560534809784,-6.465846741787,-22.10936891473628,-49.592470270519016
1760679386.2452943,-15.756274721854702,-0.04015782563891112,0.8251688861198482,0.006143496269248687,-7.049015951544068,-16.57619815596383,-50.20333739856923
1760679386.255141,-16.217912994610586,-0.090117593038911,0.8313177518163275,-0.014104087338352257,-6.970163205648963,-10.896519062093152,-50.13986978423112
1760679386.2651258,-16.704970638282308,-0.1533479355784573,0.8398815073021959,-0.0318471280372929,-6.158305840223977,-5.679254013742124,-49.51585193589179
1760679386.2750874,-17.218188854411597,-0.22346757219932237,0.8501605464274826,-0.04572645385005636,-4.61417507636306,-1.4460309894010202,-48.50028350032255
1760679386.2848537,-17.755430333770022,-0.29371761973296234,0.8612801705075799,-0.055213355762046626,-2.40612605190771,1.41902363768972,-47.288484074035814
1760679386.2954302,-18.311974784804026,-0.35784367820439744,0.8723524725471204,-0.0606029508726161,0.33963892778660854,2.700903769432597,-46.07025483201844
1760679386.3048787,-18.8810669288536,-0.4108177410718765,0.8826011466052518,-0.06283810614700866,3.4534063821528993,2.3651779478148094,-45.000322591131734
1760679386.3147943,-19.454645535968545,-0.44932601572828057,0.8914289969851246,-0.06321911968303143,6.739289006475839,0.5499023883885596,-44.17603973558391
1760679386.325093,-20.02417786499129,-0.4719952725138379,0.8984279670163596,-0.06307838447571623,9.993876350506154,-2.4597467432506854,-43.62603583041275
1760679386.335208,-20.58152501736113,-0.4793685876849482,0.9033472556245475,-0.06349712458313009,13.02451585163386,-6.270699190153703,-43.31149730994853
1760679386.3450305,-21.119764132516433,-0.4736660564523984,0.9060446800251353,-0.06511954900144207,15.665597359936502,-10.430743820649377,-43.139401265298254
1760679386.35509,-21.633890528923295,-0.4583782600139875,0.906447830737607,-0.06808839313091693,17.791371324666887,-14.481682671522519,-42.98480992229521
1760679386.3650916,-22.121321941818383,-0.4377466506708992,0.9045431536004146,-0.07209424593430855,19.324171320517497,-18.01116697903177,-42.717690711367865
1760679386.375078,-22.58213563071629,-0.41619039534669305,0.9003951170307357,-0.07650690598939364,20.237460165378096,-20.697401280578397,-42.229015133255416
1760679386.3848598,-23.01899075262272,-0.397743130745613,0.894180897863465,-0.08054544410006091,20.553821105061598,-22.34156473287292,-41.45126449397019
1760679386.3949766,-23.4367217891641,-0.38556321542113786,0.8862166021818161,-0.08344610413506301,20.3387256490831,-22.884221721220158,-40.369816912916875
1760679386.4051259,-23.841630493930655,-0.38157546440164203,0.8769538691209071,-0.08460008110095975,19.69139646818964,-22.403944014731486,-39.02364543698847
1760679386.4149487,-24.240548522467616,-0.38628903064044284,0.8669390841281167,-0.08364879397090523,18.73414868875136,-21.09854904522985,-37.49584056048384
1760679386.424907,-24.639783966785508,-0.3988146875244066,0.8567432915363294,-0.08053471847639443,17.601260662351873,-19.251514827594885,-35.896247744815675
1760679386.4349883,-25.0440953631348,-0.41707810704269105,0.8468809020791784,-0.07550856796205135,16.42797174639527,-17.188056950875996,-34.33970977619632
1760679386.4451382,-25.455848708344952,-0.4381979105848869,0.8377367297411957,-0.06909234768861362,15.339924646289154,-15.226866967931096,-32.923920872811
1760679386.454901,-25.87449869230499,-0.4589716718434003,0.8295161747172383,-0.06199849353044711,14.4433500203908,-13.634391009573916,-31.710732202401445
1760679386.4649136,-26.296490153679347,-0.4763932416863811,0.8222260613906018,-0.05501132093177749,13.81643521044883,-12.588493691095508,-30.713961343346966
1760679386.4749112,-26.715603707383465,-0.48811569049268067,0.8156866573228949,-0.04884753632238134,13.502503559895844,-12.157173429606592,-29.895499726106685
1760679386.4850175,-27.123685207122424,-0.49278086889434447,0.8095713267375692,-0.04402329859931237,13.505765583041928,-12.295639844049147,-29.170018907899394
1760679386.4950724,-27.51162351263669,-0.4901607769717707,0.8034704625481446,-0.04076019607891254,13.790407636236075,-12.861832100073851,-28.417130420659895
1760679386.504996,-27.870395457648286,-0.48109338222741793,0.7969788284286465,-0.038956629717126164,14.283597197862019,-13.647009122711646,-27.498716369490726
1760679386.5149193,-28.191993463528917,-0.4672371019922872,0.789805606370011,-0.03823431569064189,14.882609796896658,-14.415233332652054,-26.27849871937431
1760679386.5249379,-28.470089651672335,-0.4507034460622126,0.781900925532436,-0.03804784035361917,15.465792628762019,-14.944116674269459,-24.64081408889783
1760679386.5351324,-28.700357935209475,-0.43364813583827383,0.773582169192421,-0.03782727964562589,15.906567030208498,-15.05938817352475,-22.505952387133455
1760679386.5450308,-28.880453673501524,-0.4179036786168782,0.765632347271127,-0.037116599746878746,16.08920050820305,-14.657485553374453,-19.840172746680295
1760679386.5551848,-29.00972141983527,-0.40472205487699486,0.7593371321913192,-0.03567575905675903,15.924675126113028,-13.712987486273956,-16.6594653729616
1760679386.564954,-29.088751417324943,-0.3946693707566877,0.7564310440259822,-0.03352929305664267,15.364667627310206,-12.270732711422664,-13.027104984497418
1760679386.5751934,-29.118924415818334,-0.3876804409873275,0.758937117996454,-0.030962432082402652,14.411508851725484,-10.425394572630896,-9.045876441913201
1760679386.5848713,-29.10206534452425,-0.38324560975218425,0.7689047869382623,-0.028479588212569094,13.122142169712065,-8.293592812593442,-4.846423764217426
1760679386.595294,-29.040270667136273,-0.3806716059997652,0.7880727226831438,-0.026743185900903844,11.604711289081168,-5.984835000987082,-0.5734038126360724
1760679386.6048787,-28.935897890540637,-0.3793427260253513,0.8175030522028268,-0.026503552141103486,10.007531249948748,-3.5773499437357774,3.6289776185829203
1760679386.6150494,-28.791639683817397,-0.3789164992387307,0.8572483942972923,-0.028520818740436216,8.501642617801382,-1.1032893417746363,7.630758043792555
1760679386.6249373,-28.6105805344521,-0.379417198804674,0.906121190097776,-0.03347692884464149,7.259492625274739,1.4545845237190898,11.328291287901965
1760679386.6350265,-28.396160370835037,-0.38122599431706655,0.9616316221286209,-0.04188301862682127,6.433090696624733,4.154939722386284,14.653602918914142
1760679386.6451252,-28.152027738543417,-0.3849897380906386,1.0201408913937728,-0.05400027660971401,6.135048082489266,7.080589246479699,17.57993521776462
1760679386.6549141,-27.881821180403637,-0.3914733100965196,1.0772384062388531,-0.06980186732215665,6.425304732482198,10.314863534832712,20.122382550327877
1760679386.6652482,-27.58894534369367,-0.40137123557127347,1.1282987638231705,-0.08899843001929188,7.305265972791579,13.915284674985756,22.332914855731126
1760679386.6750154,-27.27640248026344,-0.4150906102345825,1.1691194346229978,-0.11112437131713183,8.71970889626493,17.888770267693737,24.29005625277141
1760679386.6848896,-26.946713212335247,-0.4325309483782047,1.1965022827095726,-0.13564910466777205,10.56539183829893,22.172997052565037,26.08477156770345
1760679386.6950803,-26.60193121348797,-0.45291061589930776,1.208643880581258,-0.16206281087318108,12.704180826026565,26.62829380148262,27.805069492694226
1760679386.7048311,-26.243736994545774,-0.474704293891687,1.2052527655869227,-0.1899033894045182,14.978183215968368,31.04309634981858,29.521962909478226
1760679386.7150707,-25.873587978304027,-0.49574752977439046,1.1874013442116613,-0.21872576801698002,17.2250325749693,35.15356037484037,31.278865785977462
1760679386.7250624,-25.492898953986842,-0.5135309052034277,1.1572051725176489,-0.24804299845142513,19.29253741315335,38.674809101781065,33.08574239176122
1760679386.734923,-25.10321992557221,-0.5256479041599585,1.117459241771255,-0.27727754824310596,21.052412553388343,41.33836633715656,34.91861770988106
1760679386.7448664,-24.706364323604447,-0.530283423767833,1.0713322895705193,-0.3057495673537432,22.412338125226995,42.92867864839984,36.72435725199881
1760679386.7549222,-24.30442828977679,-0.5265694489330311,1.0221491633883224,-0.33270563690593385,23.324711844298484,43.31192824366514,38.429881514171484
1760679386.7649484,-23.899648037733968,-0.5146525484529948,0.9732278578211921,-0.3573740693700887,23.790112437702383,42.45240161653411,39.95428927999152
1760679386.7749338,-23.494078219090966,-0.49543993971477046,0.9277199794105874,-0.3790320385080228,23.854130987567274,40.414721040554085,41.22191099712471
1760679386.7848542,-23.089132006504727,-0.47014727525309885,0.8884269655018576,-0.39707702580777604,23.597606885278587,37.353278423754375,42.174267314744306
1760679386.7949917,-22.685078769147434,-0.4398499864862054,0.8575975924903737,-0.411094745698394,23.121810150171555,33.492320438739526,42.77926189080817
1760679386.8052096,-22.280624434906674,-0.40520399576213967,0.8367335750477087,-0.4209077380050651,22.531180210414337,29.10085211295059,43.03650046381379
1760679386.8149776,-21.87269482200538,-0.36640755980174883,0.8264387804352781,-0.42658789734098657,21.91659885176809,24.46609095325161,42.9782315726737
1760679386.824949,-21.456508252076386,-0.32338877432579005,0.826347441140802,-0.4284301302662558,21.34188416044096,19.868282991701403,42.666008584993584
1760679386.8351543,-21.02596991697208,-0.2761445421081053,0.8351571923301117,-0.4269025471369261,20.835448206462793,15.558837779812684,42.18374484929577
1760679386.8450384,-20.574357203356307,-0.22512382837359474,0.8507744350998856,-0.42259517013483444,20.388086839921137,11.743130879867534,41.62826638272065
1760679386.8552814,-20.095204535875638,-0.17153842496947108,0.8705576387894052,-0.41618074679018335,19.95685339694111,8.568888110949331,41.09866446272996
1760679386.8652341,-19.58325080176071,-0.11749924059744156,0.8916256997696186,-0.4083877318460711,19.47406686560211,6.120696657828931,40.685715603041984
1760679386.8751333,-19.03529137386781,-0.06591365740720888,0.9111880693461553,-0.39997640229730397,18.85983409437905,4.420816695425074,40.46244593874703
1760679386.8850129,-18.450784453204935,-0.02013422890779439,0.926852375707657,-0.3917063563629336,18.036079302824994,3.4360371522461417,40.476668444947485
1760679386.8949819,-17.832100061282755,0.016583994279794144,0.9368728373394378,-0.38428630240517453,16.939978889279534,3.0897787965598007,40.74609577628379
1760679386.9049928,-17.184368946290974,0.041690482355195284,0.9403152378369111,-0.3783055527365484,15.534879468284286,3.277989128833777,41.25645246739615
1760679386.9152079,-16.514974812318346,0.05384038559254778,0.9371250503436742,-0.3741599396679815,13.817201718838154,3.886682737767428,41.96281503924936
1760679386.9251866,-15.832808769475005,0.05314181716163964,0.9280921819454719,-0.37199642895829765,11.818451459916677,4.808483955804574,42.79410771095019
1760679386.9350932,-15.147445130434516,0.04109163033982356,0.9147156083712902,-0.37170137889582416,9.602199541542012,5.955532216640744,43.660279297090156
1760679386.94514,-14.468395832867023,0.02025043926015995,0.8989876319238114,-0.372942928979229,7.25664930644677,7.2667674771568755,44.461302959479745
1760679386.9550884,-13.804561784512503,-0.0062236625347505264,0.8831305730940147,-0.37525461415445066,4.884044081079326,8.708756295035048,45.09689583379885
1760679386.9649925,-13.163934842994504,-0.03505487469285441,0.8693188478650181,-0.3781300779738857,2.5885511401743,10.27049797782273,45.47579140188692
1760679386.9749641,-12.553534614917373,-0.06325220465438833,0.8594120319977286,-0.38109957477220524,0.46435654259836423,11.953769698063246,45.5235128453327
1760679386.9850423,-11.979511332184725,-0.08839592670364675,0.8547194246449331,-0.38377451300606696,-1.4144296862637642,13.761347516871222,45.187891110605996
1760679386.9952195,-11.447319237826557,-0.10880899660449235,0.8558149958146672,-0.3858630996302637,-3.000759593905968,15.6857494416915,44.44201254670586
1760679387.0052035,-10.961861562749023,-0.12363191806831987,0.8624201995894435,-0.3871688003161494,-4.27765702298522,17.700926013878544,43.284762691060216
1760679387.0153458,-10.527521386432378,-0.1328194277994973,0.8733699022162935,-0.3875831351331461,-5.256903247888406,19.75863687002363,41.7395216345968
1760679387.0249074,-10.148016853930313,-0.13706935885774818,0.8866739849480868,-0.3870793133115873,-5.973582085478089,21.79026703191156,39.85175262394182
1760679387.0349474,-9.82605254150084,-0.13768727964005642,0.8996836377425358,-0.385708732582503,-6.477148055987938,23.71374491223902,37.68613782755271
1760679387.0451572,-9.562782400387213,-0.13639114181035963,0.9093652933193513,-0.3836020965106344,-6.8201241343716035,25.44418960009995,35.32356140330328
1760679387.0548275,-9.3571531369233,-0.13506955400073561,0.9126737014212817,-0.3809793585130983,-7.045997925701742,26.906092687719717,32.857765071853954
1760679387.0650063,-9.205252209732906,-0.1355217804699023,0.9069961957656306,-0.3781713317853418,-7.178352378524443,28.0444012971244,30.391150506914684
1760679387.0750494,-9.099825834068806,-0.13922069856385835,0.8906140729977468,-0.37564514519929276,-7.213567336174459,28.83197844958075,28.029177836631746
1760679387.0852015,-9.030141170237119,-0.14714321512783649,0.863103621618493,-0.37400987427763743,-7.119263155464259,29.27165206042585,25.873139698153274
1760679387.0949166,-8.982329985014683,-0.15969506748705378,0.8255948503145366,-0.37397193561868886,-6.8397827393472745,29.39233756540436,24.011623824598125
1760679387.105121,-8.940267243954464,-0.17671670535410958,0.7808295148163904,-0.37622347767306474,-6.308458222033593,29.24027743971368,22.51149439170842
1760679387.1151433,-8.886924668141884,-0.19751791150407383,0.7329996561134464,-0.38127533194677504,-5.464579443849663,28.86792961418484,21.409564955537117
1760679387.1248925,-8.806029056699565,-0.22088556952578586,0.6873802923813812,-0.389271341482243,-4.271478352955334,28.324044003810855,20.70624062341547
1760679387.1348944,-8.683779420533428,-0.24504869678695576,0.6497859851309284,-0.39983125702418454,-2.731507604803416,27.648542949168636,20.362257094400803
1760679387.145018,-8.51035290665974,-0.2676416247597282,0.6258911177129515,-0.4119666434058367,-0.8942070853952915,26.874618086492102,20.29923508489206
1760679387.1548333,-8.280962245729222,-0.2857485971612917,0.6204708751608549,-0.4241046767163068,1.1444113352272913,26.038006480545143,20.40414909189335
1760679387.164975,-7.996311432636004,-0.2961188378421475,0.6366496999903545,-0.43423912626894023,3.2511385500397747,25.1903673142177,20.537151527588172
1760679387.1749535,-7.662411095301472,-0.2955975736021895,0.6752873339938336,-0.44020377949297834,5.27064235945769,24.411228592335547,20.541757469832568
1760679387.1853952,-7.289829438032071,-0.2817278489470668,0.734669659014657,-0.44003146890448147,7.0419983351712805,23.812294854213444,20.256338989332207
1760679387.195169,-6.892539864479721,-0.2533704673169132,0.810639805236366,-0.43232604073304515,8.412312570342577,23.529577343472123,19.52611823059759
1760679387.2052379,-6.486567391458067,-0.2111351260689551,0.897161382851405,-0.4165541839474953,9.24470785801858,23.70251286399187,18.215159436730715
1760679387.215158,-6.08863567031738,-0.15747848432406963,0.9871318455170124,-0.39318967654447273,9.420548241811531,24.443758044414732,16.218026730988544
1760679387.224895,-5.71498260219833,-0.09646406254911417,1.0732047908982132,-0.3637057266229239,8.838047510090442,25.806823813211793,13.470654792310308
1760679387.2349038,-5.3804446830980455,-0.03327686391134649,1.1484610812809712,-0.33045076580238386,7.410137022196041,27.759588596496023,9.959597377648796
1760679387.2451794,-5.097817573139191,0.026395175697884056,1.2068844079918215,-0.2964265911256781,5.063454029601609,30.169860134255817,5.7283802751162485
1760679387.2550285,-4.877420932694116,0.07700089164146665,1.2436617854691945,-0.2649542486368342,1.738579525745272,32.805874177882835,0.8793890253930966
1760679387.265012,-4.726771463979055,0.11367047674736977,1.255347538381816,-0.23921414156073897,-2.6092885094187954,35.35160745113935,-4.4303088241184545
1760679387.2750838,-4.650311548188029,0.13257117088401354,1.239943454257228,-0.22169405071244472,-8.009286541893308,37.43495718699119,-10.000393502804956
1760679387.284934,-4.649230514332246,0.13103572542266648,1.196974217268767,-0.21364514297168316,-14.471540263264025,38.6659925886161,-15.606173002904546
1760679387.295121,-4.721502470980104,0.10749900785520916,1.1276420419494815,-0.21468565732580083,-21.978118072838555,38.681809139974945,-21.023708951717616
1760679387.3050265,-4.862286074521132,0.06136311214499999,1.0350827268351306,-0.22267657180003128,-30.465541691881196,37.19353766532845,-26.05852374998186
1760679387.3148837,-5.064756656098121,-0.007034121334648575,0.9246275020852965,-0.23394025058988602,-39.79909727758033,34.030012438899625,-30.573981873183197
1760679387.3248923,-5.321306518009564,-0.0962239761869519,0.803874005160793,-0.24382977940506764,-49.74328696452234,29.171974962304912,-34.514606220327074
1760679387.3351228,-5.624926686171848,-0.20322174383371205,0.6823576584217842,-0.2475788604667418,-59.936535571687415,22.770710394921327,-37.91943995506829
1760679387.344936,-5.97051640613439,-0.3231416301284048,0.5707051079045445,-0.2412657474495329,-69.88069981419753,15.1457639192861,-40.92137146143417
1760679387.3548245,-6.355855736518509,-0.4490420282866851,0.47930244243458275,-0.22265420528617202,-78.95615875726561,6.758212957785631,-43.73012940679574
1760679387.365206,-6.782012149153999,-0.5721695353127133,0.41667515550542483,-0.19168796591643675,-86.47028487594766,-1.8405386533277877,-46.59914933614724
1760679387.37509,-7.253035903509198,-0.6826771540913044,0.38793219105429155,-0.15051765943498993,-91.73993536357327,-10.079157443018726,-49.779338256276375
1760679387.3850672,-7.774931452305791,-0.770792699562806,0.3937309520426299,-0.10307826024662782,-94.19731369880357,-17.444481408554463,-53.46565059282147
1760679387.3951802,-8.354051149201478,-0.82827816583404,0.43016046602904406,-0.05434798310700247,-93.49616338460034,-23.551060341349636,-57.745251697603244
1760679387.4049742,-8.995201722661035,-0.8498595939400353,0.48964228268524274,-0.009472097158899757,-89.58865070876664,-28.185549801896087,-62.558584564946024
1760679387.4149978,-9.699845890167481,-0.8342336220643832,0.5625556676641873,0.02707143704945837,-82.74895292073828,-31.315385420012184,-67.68535616278787
1760679387.42515,-10.464795575442457,-0.7843763823361289,0.6390687093766415,0.05213044570089107,-73.53636439772825,-33.061993605086734,-72.76382939594382
1760679387.4349775,-11.28171026251805,-0.7071189632452853,0.7106993793761733,0.06428085433861899,-62.70945792665442,-33.649675883406495,-77.34333594456655
1760679387.4450881,-12.137537931492213,-0.6121323816685412,0.7713285368894292,0.06394160936268517,-51.11444431611203,-33.3473091625654,-80.96014868139876
1760679387.4550903,-13.015815021168674,-0.5105218715017533,0.8175979470082761,0.05321020805809329,-39.57289923524377,-32.41911674981957,-83.22051486678191
1760679387.4650748,-13.898548726568329,-0.413238759282591,0.8487762048972669,0.03545826016672691,-28.789144953190213,-31.09443112254306,-83.87354613407422
1760679387.4750807,-14.768295020122203,-0.3295385148078434,0.8662469662282207,0.014754831440463861,-19.289438670553125,-29.55792172317251,-82.85958409278048
1760679387.4851384,-15.610038330696279,-0.2657331235545759,0.8727884558251381,-0.0047901788882634515,-11.396489653144467,-27.95452262161006,-80.32496394546719
1760679387.4950712,-16.412561863683475,-0.22446506099955715,0.8718020671613396,-0.019657830010929286,-5.235559396425906,-26.399529123656222,-76.60073894364936
1760679387.5051389,-17.1691384018913,-0.20464723537820972,0.8666241607862859,-0.027427294652864927,-0.7636492615676028,-24.984859252400387,-72.14991866583361
1760679387.5151536,-17.87752825867459,-0.20207922325648403,0.8600171838753428,-0.027078802214133755,2.1885259603993985,-23.776506759530243,-67.49383356150719
1760679387.5251136,-18.539404679600572,-0.21060172215816894,0.8538857230159521,-0.019044962474579385,3.8712974042640336,-22.8036791047054,-63.13204230553151
1760679387.5350816,-19.15941112284606,-0.2235346526604624,0.8492122544901309,-0.00500646272797232,4.574598520470871,-22.044695367035303,-59.470863194190805
1760679387.5451171,-19.74408211462469,-0.23509589118097307,0.8461703731242056,0.01252122056752985,4.594312623197397,-21.416898060806325,-56.77307504821949
1760679387.5551302,-20.30083755899948,-0.2415239517550079,0.8443552643280903,0.03071727774692104,4.207600761250925,-20.77724923099759,-55.136333929838145
1760679387.5651898,-20.83720217776434,-0.24170627832221506,0.8430675269293373,0.04698262008869615,3.656437494196495,-19.937459211877105,-54.50160011301047
1760679387.5750854,-21.3603206176176,-0.2372176819138336,0.8415910040055679,0.059352092740282344,3.1376821336318024,-18.693436801670416,-54.686759754723205
1760679387.5851552,-21.876751869164703,-0.2317858288482734,0.8394149144761164,0.06671695449324141,2.798027631645339,-16.86469599542376,-55.43596781366939
1760679387.5951273,-22.392454340092847,-0.23031060736482784,0.8363638194827012,0.06883916168218013,2.7326995092866455,-14.336148968741673,-56.4729514427036
1760679387.6052153,-22.91283267623053,-0.23765273348802426,0.832615761595109,0.06619554549880266,2.987379019564844,-11.093261191151218,-57.54695698588254
1760679387.6151595,-23.44271828831048,-0.25745391929214123,0.8286108543372205,0.05972825808280685,3.563199192533318,-7.24227871685586,-58.462985784218695
1760679387.6250384,-23.98619516126421,-0.2912422686795602,0.8248784040445934,0.05058621344067126,4.424705954886173,-3.010049316251266,-59.09264494663633
1760679387.6350837,-24.546246860366704,-0.33800804589203404,0.8218325192513561,0.0399216038081528,5.5104045621529085,1.2778472221895316,-59.36705203453744
1760679387.645086,-25.12426834384134,-0.39431895089418645,0.8195944864581167,0.028769699929618874,6.745009525086256,5.237407222188731,-59.257377004274744
1760679387.6552916,-25.719536927249028,-0.4549127035082603,0.817891272343797,0.018006806292830777,8.051966134707511,8.47788565266014,-58.750756544036875
1760679387.6650712,-26.328759022413344,-0.5135989204077201,0.8160571087231264,0.008361313570974823,9.364474068837977,10.655613698726574,-57.829138916128734
1760679387.6750712,-26.945802842010288,-0.564252815987157,0.8131373268283016,0.00044727028934659263,10.633339286729502,11.520721906996073,-56.45650496570418
1760679387.6851149,-27.56169968544688,-0.6016991861545316,0.808069929410403,-0.0052054878625645,11.830567036789747,10.94964695849806,-54.57678871378338
1760679387.6950998,-28.16495737167398,-0.6223518019793255,0.7999077623088664,-0.008140690235704483,12.948539768006253,8.959734663156247,-52.121750735960575
1760679387.7050698,-28.74218632703965,-0.6245584061360203,0.7880430306608383,-0.007989162394631332,13.995601462437376,5.705877208470025,-49.02581468405225
1760679387.715029,-29.278995789219206,-0.6086701090641089,0.7724014566210269,-0.00450161422204232,14.98957275405693,1.4619067537957469,-45.24375812866293
1760679387.725125,-29.761077052940344,-0.5768878483771499,0.7535806106819882,0.0024095952624614654,15.950949939488728,-3.4090993298344485,-40.76706622925317
1760679387.735116,-30.175357050640873,-0.5329431315975326,0.7329136210836587,0.012630202582113103,16.89728845257874,-8.491194071885117,-35.63544774335972
1760679387.7452314,-30.511086248116197,-0.4816630305145132,0.7124450790024406,0.025812886535689302,17.839675413154424,-13.354570570395454,-29.94119096240876
1760679387.754822,-30.76072686938307,-0.42846329033949987,0.6948107744065461,0.041360539390494645,18.78145542840497,-17.593643048140088,-23.825456808919192
1760679387.7648578,-30.92053263852962,-0.37881155650783005,0.6830187366223813,0.05842931486591345,19.718708304122682,-20.861073997970472,-17.46707129430749
1760679387.775151,-30.99075483754514,-0.33770338159278396,0.6801386457020216,0.07595676980608755,20.641589131290157,-22.895084914122208,-11.06571186052013
1760679387.784886,-30.975462757796837,-0.30919424131799106,0.6889203578922753,0.09271661013070794,21.53563244096136,-23.53800183157418,-4.822369458705541
1760679387.7951024,-30.88201910546415,-0.2960274158061824,0.7113768824974506,0.10739387825372404,22.38244446310222,-22.744803642952824,1.0796464368907377
1760679387.8049219,-30.720291737256698,-0.2993868204827744,0.7483797292560334,0.11866792431871294,23.159717978464624,-20.581411280135328,6.490287880269456
1760679387.8148954,-30.501704014456543,-0.31878815181915293,0.7993249821605092,0.12529100567536713,23.841040861178993,-17.213444181082036,11.303151708487128
1760679387.8249025,-30.238226668104435,-0.35211078416936575,0.8619360157393954,0.1261582547647492,24.396359635061124,-12.887006178866603,15.46029738043473
1760679387.8348522,-29.9414029541387,-0.395774310549148,0.9322688912097298,0.12037386366860324,24.79402656413576,-7.9036415481588485,18.952374539657253
1760679387.8449547,-29.621486445458277,-0.44507160460251,1.0049732022437796,0.10732140243766265,25.005000260271377,-2.5919516094104393,21.815580654597404
1760679387.855073,-29.286760638105847,-0.49466748322237675,1.0738298665551405,0.08674107761860246,25.00903719168484,2.721413594569607,24.126814733269022
1760679387.8651562,-28.943097277614477,-0.5392435355348372,1.1325345771771205,0.05880724390187807,24.801796762205853,7.738508765562809,25.99759755270271
1760679387.8749793,-28.593789314913902,-0.5742154383773509,1.1756227319496964,0.024191525098107982,24.40095098604302,12.211667057816593,27.566381615297068
1760679387.8851326,-28.23966244811857,-0.596389699800538,1.1993559697392502,-0.01590553302578101,23.848957521892725,15.957284536010402,28.988361518949304
1760679387.8949084,-27.87943154096681,-0.6043985856342086,1.202350931708084,-0.05976858375470763,23.210462457055318,18.86018941035206,30.42217317613032
1760679387.9048522,-27.510234742995742,-0.598785664417527,1.1857691132209096,-0.10523835126814853,22.56354607934799,20.868705353252253,32.013860255015004
1760679387.9152727,-27.12825787229235,-0.5817084072746391,1.1530075081775841,-0.14985035606545868,21.98601239352235,21.982671185951798,33.87976649011522
1760679387.9250267,-26.729360240457336,-0.5563404890949624,1.1089830924348991,-0.1910514952401124,21.539948374247963,22.238543655816006,36.091061460200024
1760679387.934896,-26.309632405182,-0.5261450904364399,1.0592175815636298,-0.22648976701481485,21.258878827207084,21.69639611880202,38.66295389491564
1760679387.9450505,-25.865850012299003,-0.49421761853678964,1.0089591432384755,-0.2543400225188307,21.141347045547015,20.432492680968263,41.55100416332924
1760679387.954881,-25.395819561135905,-0.4628537779121959,0.9625285630123795,-0.27359488165359147,21.15276592284057,18.538408618152303,44.65545778867731
1760679387.964909,-24.89862616557138,-0.4334066536570961,0.9229799993297653,-0.28423942296492377,21.234749561660742,16.12463622658259,47.83280016276728
1760679387.9749787,-24.37478974772213,-0.4063974213211329,0.8920597926418979,-0.2872511558559126,21.318900802577616,13.324698472651917,50.912452731068555
1760679387.985228,-23.826326855414184,-0.38178101959078314,0.870368938343961,-0.28441371536566573,21.340954491357085,10.295668449402466,53.71594968893579
1760679387.9952536,-23.256710971003113,-0.35925501788040876,0.8576107589320312,-0.2779851424929134,21.251533535432678,7.2124368755280015,56.075901523670076
1760679388.0051908,-22.670725896080125,-0.3385213387384328,0.8528325413938358,-0.27030063637261087,21.02131724632753,4.255371236712733,57.85237427385146
1760679388.0150976,-22.07421034591754,-0.31944381227349467,0.8546216572148746,-0.2634018030213939,20.64046787377512,1.5933311671116812,58.94494526440696
1760679388.024854,-21.47369531735956,-0.30207940343688416,0.8612623270281229,-0.25876781527500337,20.113913224358654,-0.6343624971230543,59.29959678802898
1760679388.034946,-20.875942437230762,-0.2865966943467018,0.8708813047236822,-0.25718862218884153,19.454992204119314,-2.3328608469206413,58.91057294856327
1760679388.0449178,-20.287406324582626,-0.2731277406535651,0.8816071614725799,-0.2587808873590248,18.679881378184543,-3.460094307338305,57.81805134254442
1760679388.0552583,-19.71366759347708,-0.26161842115808165,0.8917465180991979,-0.26311539106964554,17.804329837728147,-4.026502092159776,56.10278974344107
1760679388.0650778,-19.158908908580944,-0.2517399366857086,0.8999556548305745,-0.2694068088961619,16.842983295179327,-4.086298594418629,53.8788302165442
1760679388.0749009,-18.625522981611905,-0.24290110970284426,0.9053720119273657,-0.2767147267716818,15.810500260188313,-3.722355102963784,51.2850346443178
1760679388.0851195,-18.11393782188,-0.2343658470586963,0.9076738645241689,-0.28411567001324894,14.723128644297704,-3.0281484265267316,48.475854923784766
1760679388.0949395,-17.622716429174876,-0.22544381001383068,0.9070538697475728,-0.2908236274823286,13.599511691420744,-2.0907505351098834,45.611463713092746
1760679388.1050386,-17.148938931594685,-0.21569599134141113,0.9041139030131892,-0.29625406432767953,12.460059711061865,-0.9784351102540275,42.847322142577305
1760679388.115038,-16.688815595685046,-0.20508915607262623,0.899706258231396,-0.3000393956479225,11.32494512254429,0.2647667078713543,40.323482104523045
1760679388.1249292,-16.238426043292485,-0.19404816103812852,0.8947552070453476,-0.30201143720989115,10.211329908236932,1.6170707687082604,38.154300591228356
1760679388.1349306,-15.794451827117589,-0.18338908559855638,0.8900927052689259,-0.3021685727872506,9.130629136042593,3.0709967997506986,36.4195752149985
1760679388.1451006,-15.354776138244128,-0.17415473342389048,0.8863352740250434,-0.3006421347303881,8.086485332601386,4.622493971168038,35.15822652324031
1760679388.155076,-14.918860867822243,-0.16740042831355778,0.8838186739294166,-0.29766908395318853,7.073863117199804,6.260692957840423,34.365496369326976
1760679388.1651042,-14.487862583142627,-0.163984716220845,0.8825950765403887,-0.29357027407999065,6.079441490342248,7.961229992261177,33.994246088395066
1760679388.1751256,-14.064499284383212,-0.1644104481139341,0.8824856275822763,-0.28872940059979213,5.0833238988778735,9.684632109151575,33.96043759432748
1760679388.184846,-13.652716874231936,-0.16874327466805022,0.8831706697634567,-0.2835682280671453,4.061940052756545,11.379584114339863,34.15238283706116
1760679388.1948845,-13.257222328918756,-0.17661255221406347,0.8842920021310002,-0.2785165734672415,2.991816507385552,12.98960987278712,34.44290533181434
1760679388.2052522,-12.882952156960457,-0.18728076663518647,0.8855394228218019,-0.27397801655647214,1.8536691345662872,14.46107661714956,34.70317105364773
1760679388.2148547,-12.53453762366625,-0.19975719514469845,0.886699993991915,-0.270293917739599,0.636114804400858,15.750446479699425,34.81662813002484
1760679388.2252233,-12.215819530037797,-0.21293067181459074,0.8876622106750066,-0.26771048025944744,-0.6617000444877529,16.829185758537157,34.69132008778952
1760679388.2351384,-11.929458282817187,-0.22570233308253831,0.8883838402539218,-0.2663565929102812,-2.029066532228182,17.68551355844152,34.26893918996192
1760679388.244895,-11.676677203458116,-0.2371060703730736,0.8888444128933991,-0.2662411304305168,-3.444435962612128,18.32305362218221,33.52947238358991
1760679388.2550051,-11.457161510635324,-0.24640572714026027,0.8890054895101914,-0.2672736672616323,-4.877634828659059,18.757262878293087,32.49111048903393
1760679388.265223,-11.269108178194735,-0.2531547627458379,0.8887948318778521,-0.2693033612535617,-6.292967401192262,19.011045196857694,31.205995756558817
1760679388.2748752,-11.109389215336488,-0.25720467767827515,0.8881210637310472,-0.2721637680079045,-7.6524806180845255,19.11105023309547,29.753070449436674
1760679388.2848601,-10.973766670977918,-0.2586589007960357,0.8869184553479003,-0.27571157581468964,-8.918807757211589,19.085760946051384,28.229559263195398
1760679388.295796,-10.857095444139278,-0.2577869296729031,0.8852172616911543,-0.279852406353591,-10.057335962301186,18.965710704643676,26.742409966332875
1760679388.304868,-10.753477347950382,-0.25493155842680976,0.8832312165445692,-0.28455069873761213,-11.037814241889025,18.785279396197733,25.400382987048314
1760679388.314902,-10.656380780168895,-0.2504480123199633,0.8814468067813346,-0.2898200697196149,-11.835772675566314,18.584779902417456,24.306637295637454
1760679388.3252854,-10.558790442091958,-0.2446972671035162,0.8806872104177222,-0.2956884939193045,-12.434140343573919,18.41122632252123,23.551023820262706
1760679388.3351216,-10.453469787983574,-0.23808196357576078,0.8821147978716803,-0.3021359105593385,-12.825231289385167,18.316416475599112,23.20130056264121
1760679388.3452868,-10.333389854804425,-0.2310843367548708,0.8871435554875511,-0.30901263252205813,-13.012965350330676,18.351704561364752,23.293229445256006
1760679388.3549895,-10.19231353419324,-0.22426102260882522,0.8972596345806385,-0.31595840207757553,-13.014987215099472,18.55988578367009,23.820665106805997
1760679388.3650875,-10.025455530595103,-0.21817084930844832,0.9137802466557523,-0.322345933464777,-12.864300485306968,18.965710932018727,24.727755509838893
1760679388.375122,-9.830097167487455,-0.21324533023809653,0.9376018141314965,-0.3272687903251319,-12.610062760408239,19.567372196325255,25.905777393376013
1760679388.3854444,-9.606036074600429,-0.2096400729243624,0.9689922454718365,-0.3295860435457504,-12.317197392653219,20.331500757811447,27.196687648406343
1760679388.3949234,-9.355784812082906,-0.20711615737020997,1.007472031206729,-0.32802776480987555,-12.064451874293816,21.19362165876151,28.404261783958884
1760679388.4053338,-9.084479641627484,-0.20499213999371918,1.0518076706995152,-0.32135568901406214,-11.940529749090508,22.06477100849091,29.3121024744673
1760679388.415288,-8.799505874709709,-0.20218798178697556,1.1001131394779207,-0.3085623205912193,-12.038025416524409,22.84347550794695,29.706344582642444
1760679388.425069,-8.509884190973088,-0.1973614608548617,1.150030284064062,-0.2890803255269381,-12.44515550526636,23.43096728794268,29.399936806084966
1760679388.4351733,-8.225491444928506,-0.18911968040740867,1.1989476199507016,-0.2629643650692169,-13.235698402537473,23.746718572665863,28.255086262422957
1760679388.4449399,-7.956207473589049,-0.17627318753934626,1.2442205736358467,-0.23100390950600833,-14.458057796064308,23.74127915336095,26.200752500820364
1760679388.4551644,-7.711084843880976,-0.15808811767557207,1.2833671917190868,-0.19473247148343562,-16.12486246509364,23.403900462275878,23.242790766714176
1760679388.4650395,-7.497632748675004,-0.13448533277331212,1.3142255240432763,-0.15631598374276331,-18.204888929878198,22.763374669791872,19.465271704604252
1760679388.4749324,-7.321293014683627,-0.10614117667901443,1.3350719629021133,-0.11832513833234697,-20.61920241193591,21.881810448913335,15.022519694131901
1760679388.4850838,-7.185169261383425,-0.07446788579496944,1.344711209761408,-0.0834177071751394,-23.243113218436477,20.842583929173717,10.122454983101688
1760679388.4950268,-7.090050487148881,-0.04148654894024664,1.342548738019077,-0.053975481863554164,-25.914783592857603,19.735112067427035,5.002851330183214
1760679388.5051496,-7.034743749544324,-0.009632288259608022,1.3286411541919938,-0.03175516762444608,-28.45019183561125,18.639879166715378,-0.09689923853971659
1760679388.515118,-7.016692258963861,0.01846534716818734,1.3037014733480012,-0.017618009004081916,-30.66289881884781,17.616883802476472,-4.965029852532832
1760679388.524892,-7.0328066433395335,0.04020013358180744,1.2690343279671326,-0.011393850099397319,-32.38594576685587,16.699387488808238,-9.443531864652453
1760679388.5349212,-7.0803890979881015,0.05319800699273845,1.226395475832619,-0.011912593904142631,-33.492499432609144,15.893099542902453,-13.447046597936442
1760679388.5451856,-7.157998202597206,0.055520046105953305,1.177798975688918,-0.01720510354947917,-33.911760777361096,15.179478068241604,-16.971318620942395
1760679388.5552032,-7.2660991023869865,0.0458610315164949,1.1253182622939486,-0.02484234863155303,-33.637268808913106,14.521136885831258,-20.08981034861214
1760679388.5651789,-7.4073731068567845,0.023735652351375366,1.0709317297058374,-0.03235219018926967,-32.72598459119395,13.867454480066517,-22.939173675115224
1760679388.5750942,-7.586615806412885,-0.010367593742774253,1.0164443796119835,-0.03763468908007665,-31.28817308540717,13.159136787188748,-25.695981628122702
1760679388.5850873,-7.81022098350654,-0.054895836314311684,0.9634827254522559,-0.03929494211240276,-29.46976603018328,12.331377733803901,-28.54806320702742
1760679388.59503,-8.085316304250176,-0.10724237235390614,0.9135298005009731,-0.036828977187599185,-27.430267909786448,11.316123320396544,-31.664037690648225
1760679388.605087,-8.418674697443247,-0.16389252963129336,0.8679565928800161,-0.030630524960034114,-25.32011476990246,10.044563233887642,-35.16456219067107
1760679388.615126,-8.815561762519298,-0.22071934367495258,0.8280153778930559,-0.021827740498805644,-23.26151312592244,8.451159515391248,-39.09869286060406
1760679388.6251292,-9.27868882257282,-0.2734108181253535,0.7947802238659253,-0.011997950180132111,-21.336038268951107,6.480146563201754,-43.42868582503237
1760679388.6351242,-9.807427228696795,-0.3179780147259984,0.7690449314863259,-0.002832154366369938,-19.580733611574313,4.094532317158926,-48.026337510654166
1760679388.645115,-10.39740993489757,-0.35127119984696087,0.7512128227575071,0.004178143185774933,-17.992514176822674,1.2864419634338067,-52.683185441705966
1760679388.6551116,-11.040603326205268,-0.37142023796367646,0.7412237155065835,0.007977975693268824,-16.538911939506086,-1.9134301638802882,-57.13516194684848
1760679388.6652172,-11.725873414867278,-0.37811522468042147,0.7385523802666363,0.008084054977166799,-15.172106562343021,-5.430052929280506,-61.09960101513712
1760679388.675404,-12.439998032699824,-0.37265956340485173,0.7422847011218812,0.0046184431770585135,-13.842988472979693,-9.14453660094666,-64.31944447447712
1760679388.6851215,-13.169001744844637,-0.35776431919541474,0.7512477166159381,-0.0017429594395061419,-12.512595412785558,-12.902335836038047,-66.60708106455095
1760679388.6949716,-13.899629264691347,-0.33710489471067306,0.7641537851105594,-0.009888059394993529,-11.159290618402078,-16.528891730374173,-67.87938349103068
1760679388.7052052,-14.620741113210586,-0.31471602122995873,0.7797245702902645,-0.018437926331411194,-9.78111378319215,-19.850394717439517,-68.17660160298405
1760679388.7152467,-15.324420674764061,-0.29434169246617436,0.7967794419813102,-0.025955142600046017,-8.393607532460395,-22.715662627278732,-67.6606478635347
1760679388.7250335,-16.006624706777995,-0.27886797181628253,0.8142890548344572,-0.03117087908160556,-7.024065736009304,-25.014432088225956,-66.59229098739748
1760679388.735023,-16.66728213149574,-0.2699444566667746,0.8313999131289741,-0.0331962477872799,-5.7035789675617385,-26.68806517247292,-65.2909076338713
1760679388.7451544,-17.309835376476364,-0.26785424474953556,0.8474346450588076,-0.03167300798025906,-4.4584515570769625,-27.73066073972814,-64.0838193640446
1760679388.7551577,-17.940308313201914,-0.27163879184996925,0.8618734589508478,-0.02682369412273077,-3.302546130088788,-28.181110379550056,-63.25418339801508
1760679388.765146,-18.566058977972716,-0.2794368097305073,0.8743255870843036,-0.019384985695503273,-2.2319434055898957,-28.10876943812181,-62.99656831001262
1760679388.775201,-19.194421687778608,-0.2889626198668462,0.8845009042889985,-0.010440747666324102,-1.2230260235290593,-27.5964640804048,-63.387793146357005
1760679388.7849967,-19.83145524518282,-0.29803093199713715,0.8921889114260588,-0.0011973315584235217,-0.2346460874240702,-26.724498997697197,-64.3777577028364
1760679388.7949142,-20.480990028314295,-0.30503079181062365,0.8972471406843333,0.007245469593372346,0.785656712723317,-25.558577013153002,-65.8014359994163
1760679388.8049765,-21.1441101202061,-0.3092605020770607,0.8995976331157657,0.014078866110746279,1.8922876351975404,-24.14351961281114,-67.40955207929302
1760679388.8150566,-21.819126162515353,-0.3110587930656074,0.8992298641806474,0.018891793041671216,3.1307809385924514,-22.503592402504104,-68.91225971034338
1760679388.825185,-22.502005199127076,-0.31170624312271555,0.8962089587797428,0.02168926904038613,4.527683214411277,-20.649118650660352,-70.02790892257076
1760679388.8349268,-23.187143877180063,-0.31311979978711585,0.8906862266542324,0.022834020577758626,6.0832215453836795,-18.587924018261674,-70.52815823082368
1760679388.844905,-23.86831770413858,-0.3174098841785779,0.8829059504379109,0.022937085071941463,7.7683118226199905,-16.339117820573886,-70.27155996094594
1760679388.8550808,-24.53962110397746,-0.3264004077629685,0.8732021375418187,0.022725243825729966,9.52663998389946,-13.946005161606676,-69.22019715199515
1760679388.8650887,-25.196231150266208,-0.3412184491926795,0.8619827888946168,0.022906904303792705,11.281620708469575,-11.484785663868431,-67.43743756412711
1760679388.8751688,-25.83487519494405,-0.36204034251284783,0.8497034065961726,0.024051000396040068,12.947141756069069,-9.066296872814341,-65.06859294317572
1760679388.885194,-26.45394757809656,-0.3880393121825754,0.8368326700278426,0.026490529429055304,14.440269739341042,-6.829404430595598,-62.3094004614831
1760679388.8951807,-27.053288870902897,-0.41752820064969176,0.8238124788535767,0.030262832489092662,15.693696812871849,-4.926491856580985,-59.36909544775036
1760679388.9050138,-27.633698579923657,-0.4482453972233107,0.8110149972544658,0.035099076322262744,16.665788983089797,-3.5034097813598497,-56.435081717433924
1760679388.915152,-28.19628907892063,-0.47770715474487474,0.798702687534606,0.040471977743343934,17.346634102317346,-2.6776785641549408,-53.644979074542526
1760679388.925256,-28.74180122114969,-0.5035499751716401,0.7870018690256414,0.045700756241858584,17.759282648440557,-2.5192695418998987,-51.06967347364856
1760679388.9350479,-29.269992796061437,-0.5238060420444586,0.7759009173153818,0.050096514582560904,17.95619152499715,-3.0377290591536554,-48.70854423103477
1760679388.9449637,-29.779186190201326,-0.5370818808327604,0.7652780629368499,0.05311659129156652,18.011588964718523,-4.177882279079702,-46.49581549723413
1760679388.9549656,-30.266029722774732,-0.5426376898478112,0.7549561330937096,0.05449042434760111,18.01105681399649,-5.824296313998291,-44.31534683956152
1760679388.9649158,-30.725494735088724,-0.5403864590967588,0.7447795530764406,0.054284130420507545,18.040050876637686,-7.81273957155857,-42.02034109581905
1760679388.9748757,-31.15110035318533,-0.5308428009182806,0.7347108084714703,0.052884515372093856,18.173239145172566,-9.945690375364395,-39.45440289332039
1760679388.9852571,-31.53533082437392,-0.5150496826540292,0.7249414666616916,0.050903341268050045,18.46630599251039,-12.008871007240423,-36.4709598938492
1760679388.9951715,-31.870188260285637,-0.494500699163165,0.7160037527900897,0.049024951850887344,18.951251897915345,-13.786671034847226,-32.949023933497365
1760679389.005345,-32.147809500323675,-0.47106212396977293,0.7088575828891319,0.04783674145865477,19.635386398346625,-15.075644633420328,-28.804367756111134
1760679389.0150943,-32.36107249140889,-0.4468875308945039,0.7049214718997655,0.047685110423268735,20.503417601551217,-15.696415517312671,-23.996178167297828
1760679389.0249476,-32.50412628427061,-0.4243107555700793,0.7060163915408096,0.04858852935013045,21.52149570572382,-15.50488787071423,-18.529927850591847
1760679389.0349,-32.57279817216005,-0.4057012662012799,0.7141987681451425,0.05022005276356421,22.641884700517032,-14.40351368372192,-12.457491965905398
1760679389.0451343,-32.56485759652948,-0.39327036192393244,0.7314724745456549,0.051952381815931994,23.807141455021522,-12.352626611264808,-5.87541429058724
1760679389.0549202,-32.480142384851554,-0.38882749942761274,0.7593918935110715,0.05294555390826296,24.953227168680854,-9.38080845785812,1.0782327362849309
1760679389.0650427,-32.32057044525726,-0.39350290496477547,0.7985998531197246,0.052253295443595055,26.01172158981176,-5.592272080311198,8.228580367221278
1760679389.0749142,-32.090063696286165,-0.40747401009357304,0.8483815962981262,0.048928576289577405,26.912006670427175,-1.168673613653358,15.37100751434878
1760679389.085062,-31.794401625403324,-0.42975576946591626,0.9063487047094118,0.042117913769631324,27.584640856661046,3.6371289495130656,22.281391743073105
1760679389.095107,-31.44100626812465,-0.45813040068428107,0.9683798360882595,0.03114115441842016,27.966953299984652,8.516938452108455,28.73014145606649
1760679389.1052055,-31.038647618867305,-0.48928763619724314,1.0289227083898769,0.015555024696004846,28.011138256556634,13.132593777381471,34.49977215034838
1760679389.1149452,-30.59705523012277,-0.5192107134849134,1.0816951806665562,-0.004802506108336474,27.69401632722598,17.148611704641404,39.40468229720026
1760679389.1251855,-30.126429295173033,-0.5437755334799439,1.1207170440240612,-0.029787518279438086,27.026473528013028,20.267774755734514,43.31075965268893
1760679389.1351268,-29.636859765372755,-0.559448404841864,1.1414799683950712,-0.058938346839709256,26.059764104816843,22.26397118322535,46.151882204686736
1760679389.1451626,-29.137681774999503,-0.5639061846117174,1.1419628268505007,-0.09146743325827171,24.885747838719105,23.00654989797582,47.940411467204385
1760679389.1552017,-28.63681798865288,-0.5563989002979274,1.123181119552494,-0.12625877731550614,23.62903970758134,22.47208398191302,48.769327484074786
1760679389.1650999,-28.140180230072538,-0.5377463015767396,1.0890659282009776,-0.1618910671008514,22.431015323693245,20.742377356546733,48.80465258474549
1760679389.1750405,-27.65121720516654,-0.509984986171077,1.045679587344996,-0.19671335891149322,21.428138943945285,17.990641918525608,48.268282492066206
1760679389.1851645,-27.170694385100674,-0.4758052123149626,0.9999959068587219,-0.22898711156723917,20.729158003464093,14.45972315717646,47.413149993846154
1760679389.1949146,-26.696770877300473,-0.43797449905573216,0.9585921237374603,-0.25708391319383284,20.396367361693525,10.436534366922283,46.49427406344799
1760679389.2048974,-26.225395852831,-0.39891301490952974,0.9265760287748344,-0.2797052579111288,20.43510795123805,6.225949262568563,45.74010408214641
1760679389.2152085,-25.750989841872286,-0.3604921794815661,0.9069479848343764,-0.29607656187832926,20.79347033389398,2.1262029491607124,45.32843176513563
1760679389.225279,-25.267318171118227,-0.3240309980613307,0.9004477795696729,-0.306065751676747,21.371706445435656,-1.5930004298464155,45.37018120008555
1760679389.2351177,-24.768423752953286,-0.2904091472984664,0.9058133543484714,-0.31019000345593895,22.038829111368546,-4.708821865867557,45.90289167212487
1760679389.2450545,-24.24947776703506,-0.2602110667163043,0.9203061913485561,-0.3095020606921531,22.652713546643145,-7.059202168402578,46.89396705124765
1760679389.2551887,-23.70743048929199,-0.2338433059321717,0.9403418030350581,-0.30538187458738236,23.07985999401717,-8.551398841788805,48.252100116196374
1760679389.2650006,-23.141390917610625,-0.21160270373108167,0.9620933212480985,-0.2992861160635469,23.211703703318797,-9.164299380789037,49.84404296325745
1760679389.2749662,-22.552718072579328,-0.19369742415892782,0.9819888465272304,-0.29251618145622704,22.97558401818831,-8.94417807082527,51.51338984438889
1760679389.2851799,-21.944853733483612,-0.18023163398087821,0.9970736768403028,-0.2860531993816028,22.339747502861893,-7.994416868952154,53.09839157018178
1760679389.2949572,-21.322955662883157,-0.17116506867984901,1.0052402300617074,-0.2804841670639144,21.312739465938275,-6.4605996956688205,54.44685504945897
1760679389.3052735,-20.69340052439711,-0.16626086656353442,1.0053389021842816,-0.2760178506969963,19.938144849811373,-4.512960977504753,55.427449210544594
1760679389.3153179,-20.063222107885853,-0.16504033066663676,0.9971816045458008,-0.2725698456734508,18.285960752714043,-2.3282641516535207,55.93774064736636
1760679389.3252692,-19.43954076019901,-0.16676548170233363,0.9814491647506424,-0.2698850552899502,16.442053095631,-0.0729048890324927,55.90971539775289
1760679389.335122,-18.82903056964289,-0.17046568945335774,0.9595207621668473,-0.2676632212706813,14.49722826715209,2.111403037217038,55.31339889183268
1760679389.345867,-18.2374651501538,-0.1750157789921696,0.9332544956966847,-0.2656597156302278,12.537384771394091,4.1184187228934945,54.15869033944219
1760679389.3552365,-17.669379519905604,-0.17926274665212277,0.9047544509950924,-0.26374692236255404,10.63591235291987,5.884019481758394,52.49499906433596
1760679389.3649168,-17.127879861634703,-0.18218678634965035,0.8761560534835722,-0.2619346193259537,8.848968583145828,7.388304034722889,50.40798443593226
1760679389.3749447,-16.614620747737245,-0.18307055048358092,0.8494497072506914,-0.26035596210786743,7.213613997667978,8.65297311833644,48.012809107271636
1760679389.3851688,-16.12995062847095,-0.18164249984493291,0.8263486129530481,-0.2592291532357762,5.748245475413524,9.734120711536358,45.44381136764083
1760679389.395103,-15.67320451879188,-0.1781602360742524,0.8081957865202424,-0.25880576498181485,4.45451325881536,10.711033587116308,42.84124118217152
1760679389.4050107,-15.243101709578948,-0.1734085920575098,0.7959002207888652,-0.25931600251455883,3.319969012946018,11.672169361506226,40.33646398942582
1760679389.4152057,-14.838188649732215,-0.1686021886130769,0.789892934740854,-0.2609195991794653,2.3209543819993956,12.700041222738887,38.037597550980834
1760679389.425135,-14.457255492432186,-0.16519952640243446,0.7900993570089864,-0.26366929032975905,1.4255383100769077,13.857128259019326,36.01776537415508
1760679389.4350824,-14.09965184401828,-0.1646520041502868,0.7959327210582184,-0.2674915348262406,0.5965279827115018,15.175019885168625,34.307987569817165
1760679389.4451697,-13.765434974691518,-0.16812393605588696,0.8063199321324884,-0.2721854691003325,-0.205335483104711,16.648712030215638,32.89621396818321
1760679389.455211,-13.455304629837809,-0.17622941238525724,0.8197734333148136,-0.2774374880863466,-1.017927822257025,18.23729421369624,31.733159227735914
1760679389.4652085,-13.17031603218438,-0.1888412617964101,0.8345194989385863,-0.2828489231437915,-1.8741148479973924,19.871252057950336,30.744451093429426
1760679389.4751294,-12.911415756256593,-0.205032326505345,0.8486855178626223,-0.28797837636787127,-2.7982243444946273,21.465351652888195,29.8472675641895
1760679389.4852352,-12.678901768948894,-0.2231954002657624,0.8605345973572978,-0.29240244205209404,-3.8030703335070424,22.934753204163073,28.96841313923241
1760679389.4951851,-12.471946728077935,-0.2413440525311338,0.868715553846295,-0.2957925433627195,-4.888038788429041,24.210972062914095,28.060121430677146
1760679389.5051725,-12.288320691458997,-0.25753205749656705,0.8724799138816924,-0.2979936628136598,-6.038609911421742,25.253996774777946,27.11016841916496
1760679389.515331,-12.124397535167615,-0.27027503344624426,0.8718195311227885,-0.29908233947060064,-7.227401667681824,26.05754547399338,26.1441765392318
1760679389.5252514,-11.975442247168242,-0.27884478773720456,0.8675008918346585,-0.29938266935105984,-8.41651660070043,26.64603701322784,25.219865834478362
1760679389.5351768,-11.836087276402807,-0.28334532936309753,0.8609999094424129,-0.2994280481283556,-9.560816568236893,27.064022370790035,24.41482617295354
1760679389.545041,-11.700854680244987,-0.28455468792263955,0.8543579382185181,-0.299867948578076,-10.611779148403832,27.36095468330818,23.810619455588014
1760679389.5549788,-11.564590478096283,-0.28359582946012274,0.8499827564548891,-0.3013303669240721,-11.521719952821295,27.575538912272016,23.47642797478465
1760679389.5650184,-11.422739596129087,-0.2815493161921565,0.8504137560535879,-0.3042602690999937,-12.24828906249094,27.7239870031365,23.45508318214686
1760679389.5749607,-11.271468084325495,-0.27912358246671326,0.8580655779842888,-0.3087605382087266,-12.759208655197845,27.79530240394922,23.753390014031574
1760679389.5852213,-11.107696080028667,-0.27646395638333937,0.8749633797383457,-0.3144637752443324,-13.037193372420269,27.754671038608155,24.337557971965754
1760679389.5951688,-10.929122334694746,-0.27313101029116016,0.9024873587428088,-0.3204624805981876,-13.084873867135812,27.553819355839575,25.133598906191605
1760679389.6049163,-10.734301845440829,-0.26823167033272516,0.9411517285111974,-0.3253229992931887,-12.929313059650475,27.14550820149167,26.031980949165355
1760679389.6150188,-10.522795912543863,-0.2606525692571258,0.9904479837017031,-0.32720253160768836,-12.625371269547662,26.498637533191026,26.895678079777877
1760679389.6249495,-10.295367265206629,-0.24932919565165415,1.0487786635714795,-0.32407421710721934,-12.256829947153701,25.610765484472246,27.570860399554153
1760679389.635098,-10.054160458584027,-0.23348799052160418,1.113496803297919,-0.31404332078508534,-11.934019638683104,24.515787613010566,27.899563332833438
1760679389.645013,-9.802800358912053,-0.2128170321425268,1.1810538751631956,-0.29571376254464177,-11.786922568047792,23.285576781995164,27.73356228991002
1760679389.654969,-9.546357860912574,-0.18754588432138575,1.2472495214160446,-0.26854447167170886,-11.953400011953834,22.025299555695856,26.9483723137148
1760679389.6651351,-9.291163038963042,-0.15844013313070354,1.30756934955593,-0.23312319054387412,-12.563200736964076,20.8629109850669,25.455963402699666
1760679389.675397,-9.044481378575465,-0.126735997907683,1.3575899405493594,-0.19128543345937948,-13.719489020169748,19.9340253331235,23.21461104744091
1760679389.6849334,-8.81409925784938,-0.09404822190493473,1.3934188938682799,-0.14602286825492913,-15.480519748771478,19.36391190742538,20.23437276508352
1760679389.6953883,-8.607883115422943,-0.062276238569368196,1.4121191278577951,-0.10116091896591746,-17.84455844551541,19.248724543808933,16.57701227075816
1760679389.7050886,-8.433379240127678,-0.03351525237927632,1.4120481764139348,-0.06083600387226603,-20.7410518723361,19.638272098298934,12.34977256439121
1760679389.7152383,-8.297509126318566,-0.009962329314804858,1.3930427163881056,-0.02885545991543899,-24.030362895422044,20.522674433042585,7.693171627671565
1760679389.7249634,-8.206393352824955,0.006199800175868271,1.3564061878581708,-0.008059969061750312,-27.51316737699271,21.82499412852828,2.763855199690061
1760679389.7352793,-8.165310182301925,0.012957515636490164,1.3047038478522544,0.00018361411349159808,-30.949059105867008,23.40126362042082,-2.2856281939066925
1760679389.7449594,-8.178768366781581,0.008669426866033217,1.2414158686046766,-0.003746691410876873,-34.08231400242888,25.04832772215433,-7.327579732147654
1760679389.7551105,-8.250651299132384,-0.007684667554678282,1.1705286957783256,-0.017753899712203893,-36.67146036703693,26.518889901242364,-12.27743972430747
1760679389.7650378,-8.384375100258342,-0.03623135686069301,1.0961477353327183,-0.03834882736764827,-38.518544088105216,27.542385999551094,-17.106482457962063
1760679389.775208,-8.58299866863621,-0.07595573521115434,1.0221903841877724,-0.06122327234819515,-39.493878685921594,27.849935148964352,-21.845991444100342
1760679389.7850013,-8.849230314489057,-0.12454879926380596,0.9521793575021924,-0.0819663649212784,-39.552618517893485,27.20156290323093,-26.58068348105433
1760679389.795173,-9.185293996441512,-0.17842797504875962,0.8891201017609702,-0.09679244063820251,-38.740585124690355,25.413930302919862,-31.43054499517385
1760679389.8051264,-9.592648075462078,-0.23299055710730257,0.8354269355271416,-0.1031467664554901,-37.18823644166249,22.38661436174126,-36.52240388197377
1760679389.8152893,-10.071587370779474,-0.2831153074340575,0.7928640545736629,-0.10007903905826859,-35.09331207881064,18.124349508410376,-41.955150485772286
1760679389.8251364,-10.62079635279122,-0.32386412024431765,0.7624829322767485,-0.08831949702948068,-32.69436536202808,12.751728048166138,-47.764823081188936
1760679389.83529,-11.236946093802601,-0.3512706054533776,0.744557377461269,-0.07005208364412965,-30.238913976799104,6.516306187820749,-53.89697138870618
1760679389.8451972,-11.914432763396567,-0.3630596107456791,0.7385359212386253,-0.048441151148912724,-27.950972786855267,-0.2233993451081471,-60.19326094780307
1760679389.8552094,-12.645341315432544,-0.3591395144959126,0.7430445733696771,-0.027015882214273125,-26.002890710215706,-7.026635954674599,-66.39713952521066
1760679389.865317,-13.419688804582176,-0.34174761715360863,0.7559751665392594,-0.009036369497428361,-24.495548669170315,-13.414606832417082,-72.17997515997011
1760679389.8749506,-14.225960580630748,-0.31519265186635465,0.774679767774418,0.0030452246085913635,-23.44934980162278,-18.925825657778486,-77.18503369942444
1760679389.8849123,-15.051902157147554,-0.28521099710993997,0.7962618420530165,0.007946676243651526,-22.80657218005953,-23.175774466481908,-81.08270039272321
1760679389.8951843,-15.885476748968424,-0.25802531342804264,0.817920958261025,0.005699043370330207,-22.444032219829754,-25.912308565074763,-83.62729275441244
1760679389.9051669,-16.71585607284497,-0.23925882849091595,0.8372835829971953,-0.0024318720441518188,-22.193843906370176,-27.057618601775115,-84.70455602451558
1760679389.915164,-17.53429424906659,-0.23290295502737793,0.8526480594867273,-0.014217441464401868,-21.869306192146706,-26.728246622858425,-84.36006048479662
1760679389.925136,-18.334749102832994,-0.24054392174632463,0.863091607495625,-0.02688021572369888,-21.29243063695846,-25.2269858938597,-82.80209633108427
1760679389.9349985,-19.114157765391067,-0.2610154708163336,0.868427192847823,-0.03758209941215344,-20.319275051900004,-23.004632848472593,-80.37746129638057
1760679389.9449944,-19.87233188535198,-0.290564785551181,0.8690433651257695,-0.043905294951750586,-18.859291843797855,-20.595110021034643,-77.52363625097964
1760679389.9550362,-20.61149859588454,-0.3235162141680248,0.8656900749531677,-0.0442395054548278,-16.885672493187137,-18.533246085093005,-74.70519543874364
1760679389.9653304,-21.335566112585905,-0.3533151123995882,0.8592754096137337,-0.038003392391838864,-14.435290133579658,-17.26879964191535,-72.34512594320577
1760679389.9750388,-22.049230753464048,-0.3737555454809496,0.8507156507388156,-0.025665709574984857,-11.59897098826738,-17.09177821673401,-70.76260390835685
1760679389.9851549,-22.757062206377725,-0.38015961664873504,0.8408495801281285,-0.00857971394734258,-8.504758925229522,-18.082315353974895,-70.12758625473234
1760679389.9952154,-23.46270429693191,-0.3702886607557059,0.8304039798742302,0.01131535480031699,-5.297910142448058,-20.093919249625458,-70.43954956317177
1760679390.005145,-24.168307518655165,-0.3448196546729609,0.8199885444375606,0.03185156347402462,-2.121342632905314,-22.773022473311926,-71.53344112217071
1760679390.0152118,-24.874268396729285,-0.30730174098426205,0.8101014626012659,0.0509746700773387,0.9005557922194705,-25.611762294424402,-73.11127400581928
1760679390.025127,-25.579296986163214,-0.2636045578825983,0.8011329481240846,0.06701404575997948,3.672981650400492,-28.02577577009402,-74.7936543366825
1760679390.035217,-26.280778793010903,-0.22096418166875967,0.7933575668057524,0.07884660003593535,6.13589558144971,-29.445057164375175,-76.18245977732872
1760679390.0449235,-26.975349325195946,-0.18680311322454138,0.7869087295368901,0.0859451440041197,8.263481508999089,-29.403964698631626,-76.92412899824926
1760679390.0552406,-27.65955990584439,-0.16753308409596188,0.7817350603714445,0.08832193304589687,10.058899242724607,-27.616578792726724,-76.7625646102776
1760679390.065135,-28.330483514703623,-0.1675407461756792,0.7775502338201878,0.08639633415774993,11.54615361698305,-24.025886051865104,-75.57172988024455
1760679390.0751343,-28.98610157306664,-0.188513936227494,0.773800153538415,0.08083045747759722,12.761367383303357,-18.819388688547022,-73.36149655479115
1760679390.08502,-29.625347533070684,-0.22920194681084152,0.7696757285144112,0.07238057590710287,13.74556502558015,-12.409019860976022,-70.25654218608501
1760679390.0949528,-30.247766115784696,-0.28562955870900575,0.7641917032947881,0.06180017030805885,14.54025629596453,-5.378722787919641,-66.45514874990666
1760679390.1052034,-30.85285240039184,-0.3517137085990434,0.7563344620574625,0.049807107176657685,15.185978285455997,1.5922112374341937,-62.179259373234665
1760679390.1149554,-31.439223597948658,-0.42017385183324846,0.74526153775328,0.03710293439229274,15.72295540074505,7.818610437336362,-57.62751363807847
1760679390.1251445,-32.00382232899826,-0.4835886661619347,0.7305202744607908,0.02441574587569769,16.192505716238955,12.698694359899992,-52.94029004547422
1760679390.1351018,-32.54134757434452,-0.5354360582186937,0.7122462025428504,0.012534803030693202,16.637851431802297,15.79053781579656,-48.18187263116833
1760679390.1452358,-33.04406486744489,-0.5709626893837699,0.6913022614578785,0.0023145528752029766,17.103425054552936,16.865380819682457,-43.34091872803155
1760679390.155217,-33.5020735168798,-0.5877628568043902,0.669327149048088,-0.0053588891136799694,17.63235044883867,15.931202723442766,-38.34706223860539
1760679390.1652188,-33.90402120068533,-0.5859984632083974,0.6486751486448422,-0.009633110134742735,18.262327291935375,13.224632451015083,-33.09907237852574
1760679390.1753407,-34.23817241751181,-0.5682516315619506,0.6322480767556298,-0.009775776501698615,19.02055263791691,9.174026760302665,-27.49861161201822
1760679390.1851792,-34.49367439536956,-0.5390578610069131,0.6232356076221889,-0.00527167309559466,19.918528628469954,4.340571282901175,-21.483270523716072
1760679390.1953154,-34.66183413340431,-0.5042100763633399,0.6247878103577847,0.004078580583503264,20.94766236152045,-0.6531383056878937,-15.053099281697737
1760679390.205236,-34.73722509915999,-0.469945655274624,0.6396444381195726,0.01806836492406362,22.076547085500245,-5.196761084902082,-8.286148651134074
1760679390.2153165,-34.71847489083843,-0.44212859549663136,0.669745545363011,0.03601763479545803,23.250747742718755,-8.758804016860044,-1.3403882552963764
1760679390.2251692,-34.60863470675113,-0.4255217989402146,0.7158535696846071,0.056746227963703676,24.395717716778936,-10.939134738016557,5.558451580379243
1760679390.235119,-34.41508534376805,-0.4232180221035494,0.777229933635294,0.07860539672319877,25.423077084451506,-11.503352034230367,12.141398236871664
1760679390.245035,-34.14898360950787,-0.43627261373257026,0.8514250189329859,0.09957753089717912,26.239935217861273,-10.397788965048385,18.129601033580467
1760679390.2551012,-33.824296869339236,-0.4635654371082245,0.9342496976680988,0.11744072580547153,26.760371635566198,-7.7461007996549816,23.27181749337877
1760679390.2652373,-33.45651794934645,-0.50191429558409,1.0199900714997698,0.1299804872653467,26.917713235761475,-3.8296771736737014,27.38070204318892
1760679390.2752323,-33.061199817918,-0.5464570635089042,1.1018999448046,0.13522002185482015,26.675932218396127,0.9453497451206653,30.362546529109686
1760679390.285275,-32.652489236594754,-0.5912968858866167,1.1729581344024516,0.13163563722547864,26.038368553866402,6.091522335712335,32.23564145156342
1760679390.295113,-32.241853388937244,-0.6303535030620205,1.2268129549699343,0.11832685098603558,25.052057713839517,11.090539494537275,33.133570171589554
1760679390.3050241,-31.837171694040407,-0.6582943936853277,1.258762520471007,0.09512306531191533,23.806231730744667,15.446628385092342,33.29165124664016
1760679390.3150442,-31.44230874839808,-0.6713640684967065,1.2665596478087735,0.06262504219431773,22.42414321691005,18.73760208145108,33.01740752244304
1760679390.3258922,-31.057206710638006,-0.667924390553356,1.2508225973087241,0.02218830240981684,21.048382839074964,20.657795626945166,32.648983420816215
1760679390.3351686,-30.67845319115643,-0.6485799078216965,1.2149102353567574,-0.024149733909990364,19.821345551317897,21.047541296402738,32.508088305014155
1760679390.3449845,-30.300210210356305,-0.6158748052873179,1.1642725579383955,-0.07380835031832063,18.864101731755895,19.90554370059793,32.85546998150436
1760679390.35506,-29.915345172299922,-0.5736683767760409,1.1054498368401353,-0.12387840900880623,18.257947832985987,17.382962029550924,33.85658544739597
1760679390.3651907,-29.51659292148897,-0.5263717163893306,1.0449868072645336,-0.17140663192540542,18.032730799574328,13.760422839070682,35.56305842456759
1760679390.3749545,-29.09759387648464,-0.47823107966491113,0.9885183305858829,-0.21371454629450454,18.16456444273967,9.411064944807924,37.91226793482906
1760679390.385209,-28.653685201990296,-0.4327850370023956,0.9401935389599624,-0.24869630334799012,18.583234292116856,4.754050789503739,40.74389429865914
1760679390.3949158,-28.182362053841892,-0.3925416008814796,0.9024837810184716,-0.2750369311054424,19.18715686040106,0.20399201264477854,43.829357555788114
1760679390.405279,-27.683372919433225,-0.3588566449946905,0.8763091116213765,-0.29230784074573374,19.86198452751233,-3.8774796496454584,46.90841393512049
1760679390.4149709,-27.158466055782963,-0.3319668506929649,0.8613524513162039,-0.3009241360999072,20.498393271095335,-7.221411354472594,49.72683447570866
1760679390.4252994,-26.61085693612289,-0.31113498803153056,0.8564257176400336,-0.30198195003382805,21.005401792403187,-9.676446604380157,52.069780951497926
1760679390.435056,-26.044529586217458,-0.29488147106593127,0.8597960763684657,-0.2970229533644321,21.31737784148685,-11.214792072994221,53.78679856028516
1760679390.4455187,-25.46350872981827,-0.28128439170187003,0.8694406303804494,-0.28778564427178344,21.394949145281963,-11.91830134294821,54.8059199186143
1760679390.4560287,-24.871239755004154,-0.2683246432147963,0.8832425366195268,-0.2759943998097579,21.221574271235465,-11.947641304745094,55.13601096417074
1760679390.465072,-24.270189049635327,-0.2542388081146365,0.8991551047123109,-0.26321308803793075,20.79808710589018,-11.500963743518312,54.85807095976859
1760679390.4753904,-23.661731943231015,-0.23783044037063575,0.9153469948046742,-0.2507628493239676,20.13714670357042,-10.770534461678913,54.10760319775471
1760679390.4854276,-23.04633780422553,-0.2186891612835946,0.9303187015292258,-0.23968592609318723,19.258626931304185,-9.90586723523715,53.051225118741705
1760679390.4952495,-22.42400380563644,-0.1972794900345035,0.9429675795497205,-0.23073438487807896,18.186098313921836,-8.990133941384183,51.86123662734635
1760679390.5055628,-21.79484204451749,-0.1748833872080683,0.9525858784961668,-0.22437051055003912,16.944075016252334,-8.033508503831195,50.69186351807619
1760679390.515159,-21.15969650236586,-0.1534049569789475,0.958798603830761,-0.22077628969827018,15.555736925108437,-6.983436599866168,49.660380081039605
1760679390.5257554,-20.520659976599493,-0.1350673211312176,0.9614699260716465,-0.219875985876026,14.041216331153572,-5.748413859080069,48.835396504507145
1760679390.5354173,-19.881377479808684,-0.12204815389877617,0.960614783081623,-0.2213760292430178,12.416914247784645,-4.229369426734642,48.23342392424962
1760679390.5455532,-19.24706044324131,-0.11611108092534361,0.9563441015054903,-0.22482161098777223,10.696382178460668,-2.3516160123875256,47.82356276122023
1760679390.55516,-18.62419019083859,-0.11829393944248277,0.948854917642308,-0.22966299559097822,8.892983631930916,-0.0906705152141036,47.53894463611364
1760679390.5652332,-18.01994964215916,-0.12870927582278463,0.938458895256679,-0.23532088627396858,7.02395463200728,2.5131029033996843,47.2925506464649
1760679390.5751598,-17.44147606350768,-0.14649491719866675,0.9256292200367596,-0.24124144517947932,5.114836807848976,5.353543986447542,46.99441192307816
1760679390.5852313,-16.895062071985322,-0.16992363026078372,0.9110390304446296,-0.24693640224761432,3.2028176013494205,8.271121470703497,46.56713893094418
1760679390.5949364,-16.385438865870842,-0.19664758142861477,0.8955656134850465,-0.2520090241230558,1.3375108332354073,11.075879174222127,45.957283737206126
1760679390.6051328,-15.915255676788878,-0.22402739201299304,0.8802434383945202,-0.25617049446994034,-0.4217544730177216,13.576311022281882,45.14108669169213
1760679390.6150756,-15.484831851074214,-0.24948620764100615,0.8661641884482021,-0.25925264975619566,-2.0121209296628844,15.608875598011304,44.12439684794433
1760679390.62513,-15.09221365311541,-0.27083537943659575,0.8543397762142498,-0.26122163557887007,-3.375799807167958,17.06317244758955,42.937658677724095
1760679390.6351748,-14.733523670811325,-0.28653124341208497,0.8455590689666368,-0.26219317574062345,-4.469228822154188,17.89886933601161,41.627622950937216
1760679390.644942,-14.403549414858416,-0.295834785629096,0.8402745615661311,-0.2624450924364994,-5.270695098291669,18.151974176314187,40.24780112093261
1760679390.6550794,-14.096481909940335,-0.29885715946791996,0.8385485885205515,-0.2624184411543663,-5.7846884199737465,17.929742511868234,38.84964630726727
1760679390.6650667,-13.806689755026,-0.29648724931641113,0.8400721914879259,-0.26269701945864055,-6.042053409888241,17.39522015772011,37.47605940400898
1760679390.674926,-13.529406126325553,-0.2902139817328394,0.844250176367039,-0.2639572299360225,-6.095953782277372,16.7439366423478,36.158179058846024
1760679390.6852021,-13.261220373695704,-0.2818726927515017,0.8503309991629479,-0.26688635581703085,-6.014472252155851,16.176349786453358,34.91564742514883
1760679390.6951435,-13.000300152422751,-0.27335582645982687,0.8575545247086186,-0.2720761470857055,-5.871196941222049,15.870108635869592,33.7598047022774
1760679390.705013,-12.74631499961949,-0.2663299059881925,0.8652936422532113,-0.2799080159848868,-5.7353601744772975,15.95600829169749,32.69871065887184
1760679390.7152655,-12.500077270804173,-0.2619948095517304,0.8731725680598429,-0.29045283749827666,-5.6630382664304015,16.50077465786292,31.74261528103671
1760679390.72511,-12.262956166292117,-0.2609131626916894,0.8811505310734431,-0.3034089465762884,-5.6906559306567575,17.498751863294256,30.908489781744336
1760679390.7352173,-12.036155929369615,-0.26293108280464017,0.8895621977865543,-0.3180947980673936,-5.831637613762732,18.873364484207382,30.2223880994087
1760679390.7455611,-11.819981484461046,-0.2672060212460476,0.8991063980699827,-0.3334991227359251,-6.076594939538326,20.487994521738578,29.7186472235427
1760679390.7552142,-11.613238731059377,-0.27234806432310493,0.9107746615559731,-0.3483752441122447,-6.397032338541374,22.164704088333004,29.435262061333404
1760679390.7649796,-11.412918562130065,-0.2766625187549688,0.9257139572528672,-0.36135423921300885,-6.752245728656142,23.70816882348999,29.405326857069625
1760679390.7752159,-11.214277896452169,-0.2784552735689339,0.94502809879406,-0.37105065241550633,-7.098801842650823,24.93146935329391,29.645350607421978
1760679390.7852051,-11.011353978852227,-0.27633897957810716,0.9695412142501685,-0.3761449949092297,-7.401546517899881,25.680179455991755,30.142399018157214
1760679390.7956083,-10.79784651923182,-0.2694707037224079,0.9995681121084993,-0.37544200808934297,-7.644479137121515,25.851511367956032,30.842947020661313
1760679390.8050535,-10.568207836301582,-0.25766630524118267,1.0347473534373495,-0.3679152519601584,-7.839336786832634,25.40606934440164,31.646563063492128
1760679390.8151827,-10.3187266291126,-0.24136918728968265,1.0739839439233843,-0.3527548096419126,-8.02974484799185,24.370930459794472,32.40688814469006
1760679390.825243,-10.048393852556158,-0.22149039778172516,1.1155219462036117,-0.32943555480629133,-8.289456875050679,22.8341425049958,32.94097768231502
1760679390.8353062,-9.759394120825762,-0.1991702551311627,1.1571344865633262,-0.29781723913878083,-8.714346912957954,20.93202908786646,33.04634706063137
1760679390.845053,-9.45715049194938,-0.1755290567782714,1.196392302370983,-0.2582740637239455,-9.409094079826541,18.831639532793215,32.523470884713156
1760679390.8551593,-9.149937988069825,-0.1514728582500078,1.2309593482247654,-0.21183269370964858,-10.47058301007035,16.71108254465513,31.200399504004874
1760679390.8649943,-8.848151902928448,-0.12760158843552316,1.2588643872366374,-0.16027940066137353,-11.970695126533391,14.740296515009694,28.955760441018658
1760679390.8751245,-8.563360507945664,-0.10423593937806576,1.2787059122119095,-0.1061866953042743,-13.941276342712092,13.06419571440486,25.736707243680282
1760679390.8853972,-8.307286426214356,-0.08154555089638778,1.2897606551336702,-0.05281370212759833,-16.363670254132522,11.78941738998115,21.569201744619576
1760679390.8953207,-8.090851427896403,-0.05973551483604532,1.2919820566850064,-0.003854412688142896,-19.164441019953014,10.975399057200264,16.559112663648968
1760679390.9052267,-7.923394120844702,-0.03923924375841092,1.2858925393255822,0.03695953693750489,-22.21796403725957,10.630324165348906,10.883746918689914
1760679390.9151778,-7.812137481276146,-0.020871898168840566,1.2723908775630537,0.0663568626057212,-25.355613826210487,10.712337917532594,4.774464298415566
1760679390.9251425,-7.761948600333091,-0.005909842862390678,1.2525137396943136,0.08204623426194667,-28.38043929303309,11.135936821219342,-1.5080462920415691
1760679390.935164,-7.775397179771556,0.0039310115475070795,1.2272063954521795,0.08315726191566217,-31.085538074041903,11.782406610774899,-7.703364399449361
1760679390.9452367,-7.85308119905871,0.0066403150750715175,1.1971638741486361,0.07050275833653147,-33.27390455373198,12.512009032468853,-13.582494667653432
1760679390.9550958,-7.994149513899278,0.00019200767288065656,1.1627921811322905,0.046585974639476634,-34.77744865538215,13.175062171268875,-18.976580955914343
1760679390.965054,-8.196918392244838,-0.017060383235596922,1.124307982716761,0.015321075591778237,-35.47318276797873,13.619711134739203,-23.79886179339006
1760679390.9752386,-8.459461440149608,-0.04592850377707305,1.0819522610416918,-0.018506770622882193,-35.29509457834512,13.696010215731725,-28.05585185269188
1760679390.9853358,-8.780057908136659,-0.0859692743406564,1.036253400968767,-0.0499557549231763,-34.240741283555984,13.258207826320955,-31.84485787169364
1760679390.9950874,-9.157415245363945,-0.1352154920753477,0.9882532626440658,-0.07468489938468845,-32.37199955298538,12.168716152621451,-35.33689208437128
1760679391.005193,-9.590632399481024,-0.19015930250906152,0.9396150600701055,-0.08960594133107624,-29.809760333020492,10.307182518422444,-38.746542861633465
1760679391.0151396,-10.078927856183714,-0.24604250784361337,0.8925631924920019,-0.093299523896538,-26.722846367259397,7.5861398529740525,-42.292889510642595
1760679391.0250218,-10.62120441574322,-0.29743495866212677,0.8496520268212898,-0.08611907329742366,-23.312116653295583,3.971677063115768,-46.1575218393253
1760679391.035181,-11.215549596472629,-0.3390092916560596,0.8134079215263058,-0.06998019326932318,-19.791435583254213,-0.4952210526990772,-50.44667352083755
1760679391.0452347,-11.858776650148714,-0.3663733908056172,0.7859232130760017,-0.047903845976325556,-16.36765604848237,-5.682445869482946,-55.16420630641536
1760679391.0552747,-12.54610472645974,-0.37681280806221235,0.7684943941659177,-0.023425160543250362,-13.22185750417039,-11.361110764994157,-60.2007556477495
1760679391.065289,-13.2710614204074,-0.3698145523158654,0.7613864840753669,1.1186015229056146e-05,-10.493860774174046,-17.21413998704323,-65.34193559862702
1760679391.0751667,-14.025661469386794,-0.34727479521826665,0.7637746271919635,0.019566382498931327,-8.271651943766997,-22.860132274276612,-70.29533718567527
1760679391.085105,-14.800867020203015,-0.31333095187472576,0.773872095366685,0.03336473639991882,-6.586823315347097,-27.890732378755242,-74.73259345829604
1760679391.0950758,-15.587273991989145,-0.2738097678326802,0.7892141095922891,0.04066165342038781,-5.416424386563535,-31.917289816424322,-78.33974158215258
1760679391.1051126,-16.37591273611728,-0.23535136011150512,0.8070380210099217,0.041823880993472055,-4.6907539780656595,-34.62067401053341,-80.86722763386129
1760679391.1152532,-17.15901888633866,-0.20434454735049382,0.82468452460767,0.03814601760294189,-4.305820124292983,-35.79678078193951,-82.17065639911793
1760679391.1252153,-17.93063438865102,-0.18586779560328515,0.8399425766559617,0.031541587053677114,-4.138624666515519,-35.38973112153929,-82.23490854168641
1760679391.1353722,-18.686938330588823,-0.1828470313915539,0.8512762831671847,0.02415874060124678,-4.063097137918923,-33.50561751431041,-81.17729151472408
1760679391.1452193,-19.42626832557036,-0.19560414589290573,0.8579059587778908,0.017982036891238434,-3.964364551250969,-30.402461738505156,-79.2293668431375
1760679391.1550224,-20.148856110540812,-0.22188694431772724,0.8597567263945376,0.014488658441036762,-3.749227110036558,-26.45662417551709,-76.70113248478884
1760679391.1653914,-20.856349614489126,-0.257366021841156,0.8573174966701509,0.014422624966562818,-3.351443061707629,-22.11101083260532,-73.93439246702798
1760679391.1751516,-21.551220022862164,-0.2964843884581881,0.8514600764468326,0.01772925269456269,-2.7316997394324622,-17.814362813896125,-71.25372629743323
1760679391.1851306,-22.23615568513673,-0.33347711713055966,0.8432577698419234,0.023656787681907706,-1.8735485976314303,-13.962480926286343,-68.92327993764694
1760679391.1952944,-22.913529827890052,-0.3633571772717029,0.8338273366819542,0.03099298183085103,-0.777537091442322,-10.85120868787425,-67.1159048610053
1760679391.205258,-23.58500320853276,-0.3826902226901371,0.8242044931360436,0.03837386367732926,0.5440784961244044,-8.647965315222702,-65.89848841584012
1760679391.2151914,-24.2512927673924,-0.3900405213504604,0.8152523962827413,0.04458872856108088,2.0703060163443467,-7.3845917510625245,-65.23423516216369
1760679391.2251928,-24.912107643087875,-0.38604196114786526,0.8075960668147942,0.048811913619274935,3.7715204997322314,-6.970269967219574,-64.99973604255008
1760679391.2349734,-25.56622740334104,-0.37311575066480535,0.801575375555199,0.05071550138107247,5.6074216494451425,-7.220081543076111,-65.01236697520898
1760679391.2450638,-26.211675887377204,-0.3549108039865954,0.7972137247618566,0.05045121208127128,7.524496914661171,-7.892854978029172,-65.06222626683177
1760679391.255415,-26.845929904914833,-0.3355799798370776,0.7942053337661256,0.048524860099509196,9.454904433063344,-8.731456565039396,-64.94262721696902
1760679391.265174,-27.46609867537021,-0.31902436775001325,0.7919290798712564,0.04561235767349895,11.318275316777319,-9.499399615138215,-64.47409404447453
1760679391.2751117,-28.06902123598266,-0.3082385198668859,0.7895003863790837,0.042375234229001676,13.027082037535521,-10.009118562791018,-63.51866407221059
1760679391.2851312,-28.651256396343882,-0.30487112908524255,0.7858731733162698,0.03932492106641543,14.495236499681564,-10.13902886715739,-61.98370991629934
1760679391.295185,-29.208978087009775,-0.30907702938287673,0.7799995489424522,0.03676270815946253,15.648713423373186,-9.83834297533705,-59.816943667256844
1760679391.3052254,-29.737826334456383,-0.3196793078383401,0.7710446671043997,0.03479464296314745,16.43642205359226,-9.120465928388533,-56.996154397813214
1760679391.3153439,-30.232787313937163,-0.3345942595063971,0.7586384560943922,0.03339858140289023,16.839384682906054,-8.047510729533162,-53.518076546536655
1760679391.3252096,-30.688177052610815,-0.35141409535839313,0.7431274786839076,0.03251137504604442,16.87650571826692,-6.7097490974946625,-49.39041743889877
1760679391.3351457,-31.09778260264079,-0.36800947524971034,0.7257735032414311,0.03210607132114858,16.605682262151085,-5.204327125746949,-44.62967344716537
1760679391.3453538,-31.455178755599775,-0.383014138191428,0.7088353029035926,0.0322352881731106,16.11957670294482,-3.617191497502032,-39.2653652487606
1760679391.3552659,-31.754198192785193,-0.3960857188819053,0.6954723193957082,0.03302503930488446,15.536027956124748,-2.011010142262988,-33.34924321736147
1760679391.3650672,-31.989498828961874,-0.4078919155791735,0.6894298478493935,0.034616154731141484,14.9838725663002,-0.42027311423328934,-26.966355633677498
1760679391.3750014,-32.157149906921745,-0.41983574907216636,0.6945090954025758,0.03706815532376658,14.585847578214358,1.146812730711172,-20.244030677794434
1760679391.385079,-32.25514807909289,-0.4335919864001772,0.7138854286007985,0.040255644667694615,14.441066523048516,2.7011679159774773,-13.35499138335243
1760679391.3953218,-32.28377503917703,-0.45056699184124427,0.7493957456403362,0.043791430187319756,14.610023228624398,4.262507037340327,-6.511939455533814
1760679391.4052708,-32.245722232251815,-0.4714106801181282,0.8009487626978068,0.04700185772792894,15.104959917410973,5.8479534099786585,0.04726974706148927
1760679391.4152608,-32.145940232209114,-0.4956997627215309,0.8662065877881335,0.04896360416859354,15.887674831046386,7.461488047441397,6.082692407074241
1760679391.425152,-31.991217965986987,-0.5218756118912645,0.9406433606852589,0.048595010421477375,16.87557761275376,9.085803019623082,11.380548626779408
1760679391.435014,-31.789547452110973,-0.5474612039696907,1.0180175024116591,0.04478435408021221,17.95529980872407,10.677797147964412,15.782204811209597
1760679391.4450634,-31.54936693130255,-0.569510347836395,1.091210381760164,0.036534419850774984,19.00172439487119,12.168545654137912,19.2087264303529
1760679391.455182,-31.27878958447281,-0.5851787002396421,1.153298188222883,0.023106695306544807,19.899152882619568,13.468033456929781,21.676054149853243
1760679391.46526,-30.984918336041897,-0.5922745658862272,1.198651822934797,0.004154560248281677,20.560687087293488,14.474280867425444,23.297130331854852
1760679391.4749784,-30.6733278560968,-0.5896613148678118,1.2238252890012749,-0.020165864934457,20.94197250437985,15.085805535145578,24.269511165796153
1760679391.4850032,-30.347768362042583,-0.5774317794083174,1.2280228230872552,-0.049129177181283366,21.04641121373016,15.21579095374316,24.84968509485654
1760679391.4952621,-30.010113264242456,-0.5568350275603121,1.2130388840451434,-0.08144997412606393,20.920798714575934,14.805989702960469,25.317894657589353
1760679391.5049899,-29.660537345945286,-0.5299919795240333,1.1827135992804494,-0.1153925375814674,20.642665252519873,13.83832733977421,25.939192812732497
1760679391.515261,-29.297882269225735,-0.4994813936331712,1.1420773947134422,-0.14897971003999158,20.30263452649211,12.342361720718841,26.927301573953226
1760679391.5250328,-28.92014830184638,-0.4679015358916197,1.0964197656461372,-0.18026716197108072,19.986121822987634,10.397146822311031,28.41730275425038
1760679391.5353115,-28.525044470636733,-0.4375051452508108,1.0504968258387093,-0.2076247355922989,19.758405762323452,8.126644336523784,30.451370549235687
1760679391.5452406,-28.110529899595473,-0.4099698648727878,1.0080135065408025,-0.2299599201957543,19.655757317625827,5.68863658179297,32.97911556130342
1760679391.555176,-27.675285389983486,-0.386320486195175,0.9714161164431553,-0.24683192685569413,19.683441014644618,3.2580797249737863,35.87127986845723
1760679391.56528,-27.219066198747857,-0.36698043220038384,0.941945512540979,-0.258433519951407,19.81963799936553,1.0068557663024007,38.94315847344377
1760679391.5755236,-26.742903030442065,-0.3519063142270875,0.9198537807533822,-0.26545318296083514,20.023171523296142,-0.9172674549358548,41.98279956097923
1760679391.585309,-26.24913596162811,-0.3407510838018572,0.904681743911302,-0.2688619148444135,20.24256488356517,-2.4091805045640204,44.779018508388546
1760679391.5951943,-25.74128269252705,-0.3330050316737454,0.8955190154503989,-0.26968618867131244,20.424353931859255,-3.419258913074337,47.14531953999624
1760679391.6050198,-25.22375680561187,-0.32807871584346093,0.8912060016320896,-0.2688250051913402,20.51941622642462,-3.9579605337664385,48.93738164415738
1760679391.615256,-24.70146514387382,-0.3253176829070096,0.8904733422662019,-0.2669471872909866,20.486996532072602,-4.090990222449312,50.06327197604792
1760679391.6253343,-24.179329030787382,-0.3239698778648601,0.8920378249109738,-0.26447548526034736,20.296795545688,-3.9254996487661438,50.486681280247744
1760679391.6352775,-23.661792281424262,-0.323150987182972,0.8946798518063279,-0.2616387270672589,19.92978430952751,-3.5894811407707374,50.224166166884466
1760679391.6450353,-23.15239470652686,-0.3218584509047513,0.8973189542486026,-0.25855973577555014,19.378325234023077,-3.207895287818499,49.337732039780676
1760679391.655161,-22.653493255346852,-0.31906588096638683,0.8990893509528814,-0.25534571319179433,18.645880207039056,-2.879870206957005,47.92425325290258
1760679391.6650338,-22.166194708045747,-0.3138923158078245,0.8994059386672819,-0.2521550723116621,17.74627785478243,-2.661314847076357,46.10330826167171
1760679391.675278,-21.69052222016475,-0.30580237398865623,0.898006599496964,-0.24922565252377626,16.70235666369394,-2.5563981941430534,44.00499480941865
1760679391.6850166,-21.22578262874539,-0.294772290331309,0.894958852004474,-0.24686118362229867,15.543851904433238,-2.519638790884001,41.75908626426426
1760679391.6951172,-20.771049856863538,-0.2813616805078013,0.8906251106223083,-0.2453839761762272,14.304597091658449,-2.468124450479783,39.48644305133614
1760679391.70536,-20.32564993477325,-0.2666583094423024,0.8855885291663883,-0.24506983688850895,13.019341208111344,-2.3011558019423957,37.29299190593432
1760679391.7151155,-19.88953560997024,-0.2521017989352775,0.8805488757777872,-0.24608425366606304,11.720617816843196,-1.9229970731100936,35.26601104448991
1760679391.7249768,-19.463471871552457,-0.23922784605191752,0.8762041741796625,-0.24843677567233555,10.436090401637221,-1.2638998200514457,33.472068562733185
1760679391.7350266,-19.04900569279815,-0.22939480586763228,0.8731375996605728,-0.25196450439180307,9.186677487652444,-0.2952425434293098,31.955838611576585
1760679391.7451265,-18.648246709958222,-0.22355370098982177,0.8717285405586523,-0.2563476611177015,7.9856021538470126,0.9638016955585752,30.739182347522625
1760679391.7550647,-18.263525742566767,-0.22210449052252818,0.8721014286752017,-0.26115262434631215,6.838358243134898,2.4487304970674044,29.820273920627915
1760679391.7654722,-17.89701775608503,-0.22485626905675682,0.8741178008426519,-0.2658928041768408,5.743456476459842,4.060214158485406,29.173041841889393
1760679391.7753458,-17.550415272530927,-0.23108702707513065,0.8774089321387871,-0.2700962390386412,4.6937266688234285,5.680283380563163,28.747603823650362
1760679391.785176,-17.224721294877018,-0.2396837216190483,0.8814405140004103,-0.2733702051165155,3.677935245741081,7.191175269071612,28.47254452260846
1760679391.7955153,-16.92020159154803,-0.24933438225905583,0.8855980466715311,-0.2754556922854276,2.6825369977327918,8.49364142391005,28.259743303005738
1760679391.8052106,-16.636498665878822,-0.2587385009823317,0.8892810495307666,-0.2762665967979909,1.6934775879339456,9.521777593294791,28.01202031654393
1760679391.8150246,-16.3728704562545,-0.2668001180131393,0.8919941759702771,-0.27590909597465324,0.6980319035744708,10.252058618171407,27.633242899007733
1760679391.8252242,-16.128485984211675,-0.2727719647128467,0.893422741248716,-0.27467645185313,-0.31335106439365407,10.705200185532414,27.039884800564636
1760679391.8349771,-15.90269724379836,-0.2763292079377376,0.8934796958706674,-0.27301496948136156,-1.345329037868816,10.940631548697741,26.17251699265481
1760679391.8450963,-15.695213453815205,-0.277564434087305,0.8923130963991143,-0.27145944391388194,-2.396338514339369,11.044596405826715,25.005452501916277
1760679391.855161,-15.506124213654516,-0.2769077093100516,0.8902696747763507,-0.2705417288699743,-3.45799559991234,11.113997139010165,23.552848146788552
1760679391.8653896,-15.335745984080189,-0.27498671560167504,0.8878203965335404,-0.27068360627973576,-4.515513108193821,11.238868311077972,21.869993317396602
1760679391.8753002,-15.18430144977428,-0.2724539817028135,0.8854643720702744,-0.27209333062238983,-5.549258066705187,11.486669970222854,20.049208207007126
1760679391.8851163,-15.051484015593184,-0.2698193157836727,0.8836341129234419,-0.27469115639938996,-6.537351927387693,11.891346394597235,18.2105962071898
1760679391.89525,-14.936001153286613,-0.2673289703003502,0.8826254575763558,-0.2780891148899151,-7.4589891367167835,12.44928528414949,16.48871614724688
1760679391.9051633,-14.835213536917214,-0.2649234732192783,0.8825694670282198,-0.28164142159298383,-8.297957626824163,13.12302066346024,15.016933555373893
1760679391.9152267,-14.74497867060788,-0.26228557139767705,0.8834531272409277,-0.2845648105302724,-9.045730230576261,13.851964208045548,13.911645291210586
1760679391.9252548,-14.659768199190855,-0.25896631200902503,0.8851834608260867,-0.28610822159652477,-9.703503101299972,14.567958546212566,13.258647614662856
1760679391.9351935,-14.573069688787015,-0.25455852209982327,0.8876782788105321,-0.2857360746091657,-10.282700609661445,15.212386776486758,13.103598303003032
1760679391.9452612,-14.47802257392114,-0.24887616945815821,0.8909589457137168,-0.28328354993759786,-10.803714952558746,15.751197619789767,13.44784941240628
1760679391.9553378,-14.368186897544948,-0.24209527421993243,0.8952185636731739,-0.2790458018235867,-11.292946594459526,16.18457930580883,14.250019801607964
1760679391.9650643,-14.238311400588593,-0.2348176080787079,0.9008441926303149,-0.27377356207337483,-11.778512091818255,16.549049605150636,15.432712877186605
1760679391.9751873,-14.084962930384105,-0.2280342554798671,0.9083835670106934,-0.26856383322374655,-12.285260670488814,16.911234866456343,16.89294850228042
1760679391.9851408,-13.906907273932676,-0.2229906982395229,0.9184620757871615,-0.26465541693116235,-12.829955737998185,17.354298539583873,18.514327419343424
1760679391.9951527,-13.705186541929395,-0.22097985681192875,0.9316690219725017,-0.26316147702300335,-13.417575930352783,17.959492451403293,20.178794966436286
1760679392.0051982,-13.482902072681279,-0.22310422921501602,0.9484383589437747,-0.2647890069393446,-14.039613632270855,18.786318961356148,21.776152426047073
1760679392.0152555,-13.244764050852904,-0.23004960078082298,0.9689469977073746,-0.26960220001589186,-14.674969231757926,19.855118597107403,23.21011587715075
1760679392.025508,-12.996497906561503,-0.24190537530324444,0.9930460564593032,-0.2768812858431022,-15.293582168072048,21.135515523356855,24.400587889946948
1760679392.035274,-12.744203038336206,-0.25805697190655164,1.0202312332953571,-0.2851125831699896,-15.862392003200128,22.543190536397983,25.282661940185527
1760679392.0452523,-12.493748958075775,-0.2771675899343186,1.0496515258900667,-0.29212358239391584,-16.352715239979194,23.94611305582623,25.80349868752662
1760679392.0552547,-12.250276346868828,-0.2972594716360452,1.080152755540005,-0.29535271260417684,-16.747779510042946,25.179843242606097,25.91846850022022
1760679392.065379,-12.017851003692437,-0.3158950869721219,1.110352900825975,-0.29221993311567807,-17.04903711046679,26.069966384563728,25.58785979291854
1760679392.075186,-11.799298111505326,-0.3304436773686144,1.138746861517634,-0.2805445309609682,-17.27998140865452,26.458319686953484,24.775129503664118
1760679392.0850627,-11.59622220539806,-0.3384005145986269,1.16383561093594,-0.25894476825079776,-17.486490033452426,26.228691172678147,23.447261537421404
1760679392.0949876,-11.409196191653574,-0.3377120037786663,1.1842679611418556,-0.22715329612641313,-17.73320108527445,25.327449130793514,21.577385342013503
1760679392.1054347,-11.238083853606287,-0.32705655029128305,1.1989754310337288,-0.1861916017062952,-18.09605188903515,23.775310672761343,19.149407966874886
1760679392.1152225,-11.082447024426171,-0.30604130005822955,1.2072767473118573,-0.1383640474776462,-18.651777248644454,21.668072374749,16.1640236392141
1760679392.1252158,-10.94198178843756,-0.2752936749919731,1.2089306390428487,-0.08705739584336816,-19.465741937940354,19.166185745515886,12.64509341594027
1760679392.135245,-10.8169271123109,-0.2364452194286803,1.204123246544787,-0.036363982497163896,-20.579848285188707,16.47504161951106,8.645075379428546
1760679392.145276,-10.708393464714417,-0.1920175927818512,1.1933890135647125,0.0094207832417054,-22.0023397203239,13.81930165323025,4.2480177095966765
1760679392.1550307,-10.618568298749473,-0.14522640478586754,1.1774800235183687,0.04635242349840101,-23.701110742990384,11.415322612173446,-0.4312910025943397
1760679392.1652882,-10.550770436795109,-0.09972095337797973,1.1572136091664134,0.07136004338438823,-25.60170611014759,9.445587509358734,-5.253016439727376
1760679392.175424,-10.509346795920912,-0.059279807491489214,1.133335369216208,0.08266088823917764,-27.590653491271233,8.038218829243679,-10.063105820610804
1760679392.185167,-10.499430906385168,-0.027485321697775462,1.10643125620891,0.08000680108848118,-29.524181298197828,7.253417616616269,-14.70859525195309
1760679392.1954613,-10.526607662682688,-0.007403805642628492,1.0769096165771377,0.06472516791858221,-31.241713203177266,7.077440178988277,-19.055719322816387
1760679392.2051435,-10.59654386573034,-0.0012993090527213382,1.045056337594822,0.03954334257930979,-32.58280244713332,7.4238026983378465,-23.00823676847332
1760679392.21502,-10.71464266837815,-0.01040617591090278,1.0111486053742842,0.008215602014993653,-33.405468618438746,8.140906542818573,-26.522830915984603
1760679392.2255723,-10.885762323848052,-0.03478030770920562,0.9755988733803445,-0.024996955919954624,-33.6034097155276,9.025114846905248,-29.61841906546465
1760679392.2350688,-11.114012518386806,-0.07324399260920757,0.9390921135800798,-0.05591650752064851,-33.1194756733183,9.838281279998375,-32.376784233075924
1760679392.2451208,-11.402614567918407,-0.12343438173479723,0.9026773043433706,-0.08101616757695224,-31.953212235096654,10.328639804622906,-34.933105949557174
1760679392.2552776,-11.753792912730884,-0.18195896660139432,0.8677798326181668,-0.09787294112924569,-30.161163624485656,10.253732649296223,-37.456580328621065
1760679392.2656236,-12.168658432673634,-0.24465093156234838,0.836115567136664,-0.10543101726532032,-27.8497731729112,9.40375810047183,-40.123129890050585
1760679392.2753773,-12.647049165270824,-0.3069045433041665,0.8095083389381654,-0.10403388031994233,-25.16191103501014,7.623497735806877,-43.08389161096229
1760679392.2853057,-13.187310500216888,-0.36406058063548197,0.789637293753132,-0.09522765246061196,-22.25905554013869,4.83090316011258,-46.434403564132786
1760679392.2953877,-13.786025113141045,-0.41180890347656013,0.777763289921588,-0.0813825984968483,-19.30176875344253,1.030464823641656,-50.18988909186718
1760679392.3051631,-14.437740531635344,-0.44657915925446234,0.7744953022352303,-0.06521344695473788,-16.431266943678562,-3.6803649322435343,-54.27158358675972
1760679392.3154354,-15.13477955155444,-0.4658938544542475,0.7796513258860313,-0.049293418284967444,-13.754648770666847,-9.113106026646923,-58.50764378010247
1760679392.32502,-15.867239226827927,-0.4686533507233172,0.7922448518072697,-0.035649266543753146,-11.335790968741424,-14.999368227009263,-62.64994974581716
1760679392.3355086,-16.623273033450165,-0.45531249455348477,0.8105977237698712,-0.025499796525375682,-9.193098193524492,-21.011073966174795,-66.40533892222187
1760679392.3452363,-17.38970391372447,-0.4279044342265196,0.8325540307665715,-0.019166290232372794,-7.30424481501528,-26.788554857693086,-69.47696451992236
1760679392.3552763,-18.15294291124479,-0.3898777153151386,0.8557525536146374,-0.016148393615597584,-5.616882906143553,-31.974068136345725,-71.60914648350592
1760679392.3655753,-18.900109835507116,-0.34574001979501484,0.8779074471093697,-0.015330590065299764,-4.063212484003796,-36.247209746119744,-72.62789224991324
1760679392.3752813,-19.620192840352082,-0.30054081702980495,0.8970492374258523,-0.015267264446305752,-2.5755650965141794,-39.357985916348916,-72.46965202332204
1760679392.3851976,-20.30505959811408,-0.25926343341170954,0.9116923742781533,-0.014489567973501266,-1.0999628932601542,-41.153111556107284,-71.19290386950577
1760679392.3953354,-20.950147793986662,-0.2262196604739228,0.9209179030583355,-0.01178254636128101,0.39489589487165305,-41.59158486370923,-68.97041740877134
1760679392.405337,-21.55471102767296,-0.20453928420629236,0.9243804641531377,-0.006392405301992626,1.9146570474557632,-40.74684494195858,-66.06374606764628
1760679392.4154034,-22.121567756007746,-0.1958272077344062,0.9222590311866141,0.0018621167751657946,3.4422849568397043,-38.79476336190514,-62.78477654695907
1760679392.4252884,-22.656383593653725,-0.2000324776365057,0.9151698273754734,0.01258485018172996,4.9455261123268315,-35.98899178039253,-59.45129323715871
1760679392.435849,-23.166596377374848,-0.21554341522992573,0.9040543850311394,0.02489717837087872,6.386484859960208,-32.62727328606949,-56.344102918185015
1760679392.4451306,-23.660152753963594,-0.2394927582362556,0.8900532995362809,0.03760845886949191,7.730740875935142,-29.013759945752653,-53.67236091486087
1760679392.4553256,-24.144252861375556,-0.2682278651465038,0.8743781750011522,0.049423544372244894,8.953881974234248,-25.422872852183936,-51.55175704784792
1760679392.4650784,-24.624292802084387,-0.2978776471885801,0.8581953386968315,0.0591449892746945,10.044175271045962,-22.069744253783416,-49.997715738954675
1760679392.4751208,-25.103156197279667,-0.32493213907911184,0.8425311638214918,0.06583527740296236,11.001128836336813,-19.09100937003133,-48.93324322761412
1760679392.485135,-25.580941709711222,-0.3467426898880839,0.8282026349923087,0.06892002390928495,11.83072169063404,-16.53803517197401,-48.208872614796576
1760679392.4953036,-26.055132443583958,-0.3618553303220274,0.8157728334404359,0.06822929689949972,12.53891594397291,-14.382876544069335,-47.63054109556516
1760679392.5065446,-26.521131554321336,-0.37011507487146417,0.8055308741087649,0.0639851095333607,13.125503873601533,-12.535457515679568,-46.990352484295826
1760679392.515303,-26.97302548113893,-0.37252515332737596,0.7974972728555061,0.056747547817619017,13.580228029756553,-10.868787115908388,-46.09515234798219
1760679392.5252926,-27.404406615511178,-0.3708999395894833,0.7914556096749559,0.047332435790115195,13.882462641504823,-9.247695336454829,-44.788670003518206
1760679392.535296,-27.80909497650102,-0.36739552228969746,0.7870087244624477,0.036712493443298265,14.00479540466766,-7.555986431860276,-42.96449177413945
1760679392.5453546,-28.18163648954317,-0.3640236189351067,0.7836545368778006,0.025912943580985472,13.919920652658861,-5.717309297722579,-40.56902126565209
1760679392.5552166,-28.517510862770873,-0.362248806960643,0.7808755101588464,0.015912452686856187,13.609557042248086,-3.7064047221911687,-37.59548260471899
1760679392.5653212,-28.81304328836453,-0.3627418280117163,0.778236876700424,0.007560830586524204,13.073669988731485,-1.549392670287056,-34.07156439838931
1760679392.5750272,-29.065073971809703,-0.3653244131142715,0.7754888875968714,0.001523528237371188,12.338075952562214,0.6860679143923901,-30.04421376076597
1760679392.5850232,-29.270492304016813,-0.36910383992866647,0.7726639195829544,-0.0017422012710139822,11.458549389360543,2.9080726767888367,-25.565257977151333
1760679392.5951092,-29.425780826537892,-0.3727635212767695,0.7701506496868056,-0.001982109373247596,10.519921696546099,5.0213860517621765,-20.681018162382717
1760679392.6050715,-29.526726933387206,-0.37495054883727436,0.7687206338474496,0.000879725233565031,9.629403413178359,6.947792327811302,-15.428075591105946
1760679392.6150784,-29.568436613054654,-0.3746832732460868,0.7694846209774107,0.006770990705839324,8.904412726517748,8.642099309030506,-9.836066940598998
1760679392.6251788,-29.545722845291316,-0.37169553463183425,0.7737687984031443,0.015491727110110747,8.456370246350088,10.101016316714906,-3.9369854374587074
1760679392.6350884,-29.45385530602205,-0.36664354040629793,0.7829201337815794,0.02671438455071556,8.372952965448937,11.363521878430713,2.220883831420226
1760679392.645108,-29.28957131605381,-0.3611259936928738,0.7980673341919456,0.03996033611698526,8.70189639048727,12.502834797628664,8.557381858005341
1760679392.6552868,-29.052181083174236,-0.3575010238976116,0.8198740472214511,0.05455936405697648,9.439392481828143,13.611453618913522,14.94695811029542
1760679392.665221,-28.744563768950016,-0.3585171493600757,0.8483230048545303,0.06960752178790934,10.52546486460995,14.781782268329666,21.211115586246372
1760679392.675166,-28.373847618696733,-0.3668067205675392,0.8825672203328385,0.0839453626712958,11.84762113337949,16.085527975181982,27.12021457162815
1760679392.6851065,-27.951597936852817,-0.38431933487402387,0.920880640023354,0.09617995817107924,13.252843304054247,17.55527249320385,32.40675393236783
1760679392.6953418,-27.493400612725566,-0.4117976049310431,0.9607353399108625,0.1047676444989912,14.566771316050147,19.17133592458248,36.79028126008214
1760679392.7050645,-27.017820281212664,-0.448409539479376,0.9990208873991625,0.10816091323470348,15.617860064864267,20.856290338982358,40.01169673041227
1760679392.7151673,-26.54481564696972,-0.491637989283456,1.032399950859017,0.10500694452549413,16.263386813758398,22.47833281647564,41.872327867789046
1760679392.7251792,-26.093788923477504,-0.537482639701319,1.0577638807549146,0.09437129050916233,16.41350803242597,23.863366124945156,42.271299220014114
1760679392.7351675,-25.681514816798153,-0.580963281630999,1.0727197693772867,0.07594899435932666,16.049269116422938,24.814283762389703,41.233949919837826
1760679392.7452931,-25.32022948863519,-0.6168435620533398,1.076016905322234,0.050217458621526975,15.230807402763723,25.1348486571344,38.92471096254612
1760679392.7552807,-25.016159272168213,-0.6404402354278627,1.0678163166310464,0.01848612124430881,14.093170635856527,24.654878820909587,35.639969582010615
1760679392.7651043,-24.768730086192868,-0.6483576360911283,1.049728841635312,-0.017185772071084564,12.829188895816394,23.25329865004714,31.779760711099204
1760679392.7751071,-24.57061903275666,-0.6389997175712924,1.0245931873067382,-0.054202895117222157,11.661344868979306,20.87598921086204,27.80111991965282
