timestamp,angle,linear_acceleration_x,linear_acceleration_y,linear_acceleration_z,angular_velocity_x,angular_velocity_y,angular_velocity_z
1760679884.8012643,-29.257620441162913,-0.49485269403626225,0.767980711226687,0.08778872143647924,11.018873433690443,2.3488421068927288,-1.5122155228993994
1760679884.8110304,-29.30471317278347,-0.4937794236785491,0.8118901556534273,0.1010807316498884,12.085051917700513,0.5664388167285463,3.493159932633719
1760679884.8207266,-29.28482042418526,-0.4914556761780435,0.8641062762617062,0.10911656921496296,12.82961442546461,-0.6832743491433345,8.008477565677337
1760679884.8309193,-29.199401479732522,-0.4869188847919079,0.9222443434874055,0.11017090663153908,13.250129485368333,-1.331246553650566,11.967689855350818
1760679884.840761,-29.05069399255966,-0.4791490205337481,0.9829372737558932,0.10303127174367678,13.378175645559718,-1.3465258043980453,15.357476979161387
1760679884.8509452,-28.841481571693148,-0.4673037573535984,1.042088070782463,0.08718913143666132,13.276482643650176,-0.7378017024320102,18.213561236768474
1760679884.8607082,-28.57502828789448,-0.45096970949637016,1.0953148783087256,0.06295628976607873,13.032436491832279,0.4464787706588687,20.61196326147056
1760679884.8707993,-28.25517907985799,-0.43036677740205637,1.1385368165814285,0.031477273368777446,12.74849667538511,2.1199145176797547,22.656552378815086
1760679884.880929,-27.88655852829186,-0.406438698145187,1.1685867717199923,-0.005371588358441545,12.530344209868797,4.162474045648512,24.464605143708415
1760679884.89094,-27.47475781477607,-0.38078592703637587,1.1836999758781983,-0.04518415963606732,12.473790035493199,6.427886786540176,26.15217452707271
1760679884.9009678,-27.026395222820955,-0.35543966760509993,1.1837430046418498,-0.08530060980488442,12.651768426851879,8.754362328073487,27.82082084385655
1760679884.9109752,-26.548970915207622,-0.3325230256617748,1.1701226626235686,-0.12312260424015325,13.103183782849591,10.978333993264968,29.546819929345666
1760679884.9209428,-26.05050302739774,-0.3138812851412297,1.1454187889347167,-0.1564268662592272,13.825758901988019,12.95011085253215,31.373590658716118
1760679884.9306824,-25.539008039025212,-0.30077438234862014,1.112868399365288,-0.18363284766063415,14.774907263304764,14.549442453386982,33.307871497763
1760679884.941024,-25.021942850849577,-0.29370392339115015,1.0758526004737423,-0.2039816836227724,15.869702729178435,15.698398924796562,35.320026969409824
1760679884.9510744,-24.505734545035896,-0.2924024695833181,1.03750075528504,-0.2175920210075735,17.005375597645877,16.368992176595643,37.348625863124646
1760679884.96106,-23.99548565806506,-0.2959641767974022,1.000457254159891,-0.22537534050796498,18.069983838066516,16.58372343050762,39.309012317431865
1760679884.9710832,-23.494880015111892,-0.3030619997559504,0.9667909672281986,-0.22881954265513804,18.961682796071056,16.408553346791717,41.10499662545149
1760679884.980741,-23.00625581639129,-0.31218621011691117,0.937991275109644,-0.22968006631376933,19.602829989440913,15.939310584448938,42.64215383224037
1760679884.9909134,-22.530778948387617,-0.3218498134413844,0.914994823941804,-0.22964278844183872,19.948103039278937,15.283929790435254,43.840772191532146
1760679885.002341,-22.06864495979807,-0.3307293546497722,0.8982133661210382,-0.23003240256383167,19.985558764152405,14.543839516216867,44.64647120012539
1760679885.010737,-21.61925479274159,-0.3377340950743582,0.8875642617220227,-0.23162817801493404,19.731509374974433,13.798074590370529,45.036980126284845
1760679885.0209801,-21.181335197602937,-0.34201617064523393,0.8825226647433023,-0.23461810861222157,19.22156369930716,13.093143590016783,45.02438944813907
1760679885.0307653,-20.75300099931046,-0.3429469038828719,0.8822116770014381,-0.23868370464400243,18.50072921265142,12.440401321310565,44.65307911074691
1760679885.0406618,-20.331778856218726,-0.34008819151966263,0.8855304112798034,-0.24317586455037224,17.615059867788325,11.820959472275097,43.994205166150024
1760679885.050899,-19.9146278136033,-0.3331808050880767,0.8913021134273476,-0.24732692550233584,16.606291534042636,11.196491227506645,43.137935027133544
1760679885.0611234,-19.497996949076274,-0.3221558386203717,0.8984145776525803,-0.2504461252034426,15.509695528014289,10.523115116157614,42.18459096794816
1760679885.0708327,-19.077953063358063,-0.3071598486351691,0.905926174185217,-0.2520606651020532,14.3544031929371,9.76515801739341,41.23564090984329
1760679885.081047,-18.650394559949614,-0.2885767635710105,0.9131213168777239,-0.2519854000586875,13.164953461174463,8.906008080477546,40.385219590017385
1760679885.0908465,-18.211346588651274,-0.2670318024360572,0.9195149584039893,-0.25032378199042277,11.962840905954891,7.954256421213861,39.71266355873235
1760679885.1006742,-17.75731184918025,-0.24336972267654985,0.92482060273281,-0.24741617918764847,10.767263954592885,6.944554334522332,39.27642006180687
1760679885.110787,-17.285634966907715,-0.2186064759224966,0.9289038047326017,-0.2437575969143887,9.594857978478768,5.933756481454728,39.109618251034505
1760679885.1206796,-16.79482998775274,-0.19385795337481143,0.9317400496992974,-0.23990603310283215,8.45871773450205,4.993754245515054,39.21753475223127
1760679885.1309154,-16.28482429019298,-0.1702535802178966,0.9333856173555077,-0.2363976586115641,7.367318336234566,4.20280590026349,39.57710922492195
1760679885.1412108,-15.757089402152276,-0.14884765589791984,0.933959933961435,-0.23367909076290924,6.323978931965048,3.6371139933482466,40.13854842689665
1760679885.1510646,-15.214654411671395,-0.13054515910054318,0.9336329702832151,-0.23206236924013718,5.327307410496853,3.363963308165519,40.82891844874213
1760679885.160761,-14.66201959459019,-0.11605679016505185,0.9326108514992172,-0.23170450535569673,4.37270439045196,3.437079311301582,41.55751905561572
1760679885.1709602,-14.104997275708527,-0.1058897296227983,0.9311141832568426,-0.2326097376605988,3.4546064777050844,3.8941878394324627,42.222800476017326
1760679885.1810522,-13.550502414129499,-0.1003696732911669,0.9293460508059703,-0.23464940150855987,2.5688401651782637,4.7562239964683695,42.72059440186305
1760679885.190926,-13.006301564772727,-0.0996801115952069,0.9274515433224537,-0.23759321136751332,1.7143524599024016,6.027380762430433,42.95339795883325
1760679885.2008567,-12.480712704048416,-0.10389997672843897,0.9254775434718355,-0.24114746332160406,0.8937321549089862,7.6952564009672875,42.84028151905259
1760679885.2108803,-11.98223805035441,-0.11302325988126068,0.9233468458348227,-0.24499825560875949,0.11228968789074145,9.730697014926708,42.32667241414873
1760679885.2209861,-11.51911424798855,-0.1269526710465417,0.9208607381208508,-0.2488580103239861,-0.6240961638823709,12.08738373144093,41.392888506450646
1760679885.2307434,-11.098780652735636,-0.1454689574722102,0.9177383085481844,-0.252510416254142,-1.3117684886691754,14.701602060676853,40.06002287071788
1760679885.2407742,-10.727292091554654,-0.1681839357672902,0.9136912673454297,-0.2558447951077639,-1.9519034822241683,17.492831875833616,38.39176931595072
1760679885.2508147,-10.408729036723916,-0.19448757611507167,0.9085232092708199,-0.2588688308274979,-2.5521402960754065,20.36578034403356,36.4910976610152
1760679885.260672,-10.144678576286688,-0.22349943492443952,0.9022344766926873,-0.26169041284772226,-3.1266678207439176,23.21427023855676,34.49129941418653
1760679885.2707202,-9.933870011968736,-0.2540348876679747,0.8951101476646925,-0.26446577099669805,-3.6946103927457137,25.927029651818742,32.54172285528503
1760679885.2806952,-9.772046081210476,-0.28459658400443916,0.8877708449387681,-0.26732107643919634,-4.277021868344162,28.39496917057208,30.78937433545933
1760679885.2909467,-9.652131114028913,-0.3133989535240694,0.8811733677305058,-0.270264768737315,-4.893203970392767,30.519090324841525,29.358347976379264
1760679885.3009524,-9.56472134029926,-0.3384290702098397,0.8765569771590657,-0.2731137034649336,-5.557282737346163,32.21788025794758,28.329639384671257
1760679885.3110707,-9.498876352580414,-0.3575437677326909,0.8753383222430162,-0.2754551407591847,-6.275931546060219,33.43301813127829,27.72421433766435
1760679885.3207314,-9.443142736314998,-0.36860118302930456,0.878963424692172,-0.27665916422793196,-7.0478379490902014,34.132494509882164,27.49217143098641
1760679885.330976,-9.386698723653673,-0.3696232359621845,0.8887301590933206,-0.2759455564354265,-7.86506876044729,34.310790389188604,27.510392647407983
1760679885.3407054,-9.320479619636092,-0.3589828642568551,0.9055992889520526,-0.27249882187459123,-8.716021213476607,33.9864325473067,27.59019994342073
1760679885.3510358,-9.238133994064233,-0.3356057132693697,0.9300155417683117,-0.26561630102560374,-9.589278337136458,33.19781348143633,27.495299702855625
1760679885.360953,-9.136673796909857,-0.299170132133205,0.9617624050172298,-0.2548668917688603,-10.47748948407696,31.998446870240475,26.96884233404635
1760679885.37098,-9.016717105375665,-0.2502823000608278,0.9998756794835643,-0.24023180215582948,-11.380379919119303,30.4527571731437,25.766937850946825
1760679885.3809276,-8.88227546336186,-0.19059685872556156,1.0426403814978686,-0.22219553470008951,-12.306116472519586,28.633135809138675,23.694664999474334
1760679885.3906906,-8.740101212174022,-0.12284989887625004,1.0876903251156238,-0.20175740215578605,-13.270481616761286,26.618467411929505,20.639708285461232
1760679885.4006734,-8.59867527486266,-0.050772960177218884,1.1322158825682358,-0.18034311068455086,-14.29363422626359,24.49378611612982,16.598442884648236
1760679885.4109807,-8.466973856649696,0.021133665998690557,1.1732617860995052,-0.15961282837927918,-15.394679199131376,22.35031361791533,11.689698974384658
1760679885.4209318,-8.353194436043431,0.08797082059194507,1.2080686666502367,-0.1411859467471342,-16.584807668279147,20.284985089563143,6.15263020140081
1760679885.4306934,-8.263638304363612,0.14492787216792194,1.234391463512087,-0.12633017297058974,-17.86029826290414,18.39870466457367,0.32703370752246347
1760679885.4410589,-8.201932577258122,0.1878287375799784,1.2507272066731474,-0.11568554600794073,-19.197011085653365,16.79284383590939,-5.383046250059782
1760679885.4507532,-8.168728924663013,0.21364666106627078,1.2564076296619426,-0.10910008132337375,-20.54797764351935,15.5637082477371,-10.558860849459034
1760679885.462282,-8.161945584779197,0.22088165764966716,1.251550892804194,-0.10563326322422598,-21.845201696962075,14.79480613319073,-14.82355036153396
1760679885.471298,-8.177533230511848,0.20970989457882722,1.236906620184967,-0.10373920931447778,-23.005918821370408,14.54691754391587,-17.897882261927126
1760679885.480876,-8.210654382673901,0.18186852719866212,1.2136543389392147,-0.10159058369316426,-23.942548844971874,14.846422690204541,-19.64646906326214
1760679885.4911165,-8.257082589693686,0.1403136986232856,1.1832175940171497,-0.09746853081436835,-24.57469123055113,15.673219499752797,-20.10630666830594
1760679885.5011933,-8.314567486863812,0.08874706548828706,1.1471348519150604,-0.09013301230174546,-24.8409819060113,16.95069385518613,-19.491461622845893
1760679885.511336,-8.383893117765744,0.03112318431208036,1.10699525777646,-0.07909736302058602,-24.70858428471559,18.541109454066437,-18.1712654607676
1760679885.520787,-8.469394331410008,-0.028771469042036892,1.064418369761353,-0.06475157424854637,-24.17856584669088,20.24977569810235,-16.623985551852364
1760679885.5309157,-8.578794108306452,-0.08762041460103964,1.02104306427422,-0.04830734871876531,-23.286324948521724,21.839983030816327,-15.37259813543799
1760679885.5408888,-8.722369965038151,-0.14275940017146582,0.9784951154081399,-0.03157492880171476,-22.09730535508351,23.058162243100153,-14.912768271745252
1760679885.5507734,-8.911614484580529,-0.19227158249987572,0.9383219032851262,-0.016621164114097205,-20.699079724194704,23.665842995881814,-15.64457975977566
1760679885.5607395,-9.157671998876983,-0.23503423601019657,0.9019045898070901,-0.005385390981610372,-19.191243977622673,23.472742479560907,-17.81875713335715
1760679885.5712843,-9.469866164613293,-0.2707323204218903,0.8703693924439484,0.0006670108451394771,-17.674490171478944,22.364433507697857,-21.505421743294153
1760679885.5806913,-9.854571758899501,-0.29981878959371977,0.8445174277240846,0.0007916769967348885,-16.239966016033716,20.318810753118704,-26.589414423567845
1760679885.5907083,-10.314561035465161,-0.32338163968739153,0.8247849121309266,-0.004920507513675004,-14.959831617616532,17.4078234087316,-32.791632438106106
1760679885.6006997,-10.848825878924675,-0.34289165351171197,0.8112391179451013,-0.015567116850954073,-13.879908550890049,13.784132351787324,-39.71151831950946
1760679885.6107483,-11.452787900511069,-0.3598477768412071,0.8036101009934516,-0.029578000050776567,-13.015413365226452,9.655727411005575,-46.88261962486032
1760679885.620978,-12.11877477874597,-0.3753860210261688,0.8013505386382638,-0.04494658838617614,-12.350717288625294,5.254255603967044,-53.83162039502906
1760679885.6308894,-12.836649989898008,-0.38994838259543535,0.8037060227934719,-0.05951018713728315,-11.843597078969506,0.8040677585237729,-60.131697738765524
1760679885.640684,-13.59451323959791,-0.4031080559777108,0.8097729309747632,-0.0712408495460622,-11.433515585567076,-3.501674345875019,-65.44329277131452
1760679885.6510386,-14.379423849902146,-0.41361660986311793,0.8185309643428318,-0.07850966804738223,-11.05241787528865,-7.513939671046987,-69.53873545416023
1760679885.661028,-15.178127662612082,-0.41968541822449457,0.8288627645222507,-0.08028805973124196,-10.635813238435373,-11.129354879451908,-72.31064544978597
1760679885.6710558,-15.977781327498372,-0.4194495767008763,0.8395948342701653,-0.07625376217525628,-10.131860680885515,-14.28301683333395,-73.7666942374895
1760679885.680711,-16.76666399235693,-0.4115055361287876,0.8495886026701424,-0.06678270713978313,-9.506831968406546,-16.937115824133308,-74.01462721083476
1760679885.6907392,-17.534851089311584,-0.395384718350966,0.8578768556891638,-0.05283222959661389,-8.746451708760027,-19.070002576408026,-73.24146573819888
1760679885.7006943,-18.274806476592335,-0.3718381100020832,0.8638060873996456,-0.03574858994496986,-7.853773406936147,-20.66904866518612,-71.69000162143189
1760679885.7109377,-18.981833771705805,-0.3428569157902604,0.8671361022938797,-0.017048802098335793,-6.845006241117722,-21.728630976191642,-69.63461277260805
1760679885.720999,-19.654320426107233,-0.3114218468376541,0.8680641121389614,0.0017758148637048907,-5.74483262953001,-22.25251858133866,-67.35749992196313
1760679885.7307243,-20.293715102982716,-0.28103730654237974,0.8671643340008904,0.019405606136238394,-4.582331661711109,-22.258479812747055,-65.12591801838641
1760679885.7410185,-20.90420470999791,-0.25515370503863644,0.8652542031879394,0.034781495905855345,-3.387957947445373,-21.782436183441128,-63.170934860621436
1760679885.7510874,-21.49210006886676,-0.2366041053857937,0.863212872340065,0.04714514971881085,-2.191467017156759,-20.879951256630093,-61.668611635862504
1760679885.7609856,-22.064989078247997,-0.22717504278846756,0.8617866480116935,0.05604388975278219,-1.0204234308194922,-19.623930102945355,-60.725013539532405
1760679885.770672,-22.630759883866943,-0.22739578737318056,0.8614184067180097,0.06131304081472804,0.10104441281829324,-18.098710052749496,-60.366783529528696
1760679885.780846,-23.196622024995122,-0.23657506617959984,0.8621333248313566,0.06304563000476711,1.15341835665631,-16.391886745128122,-60.53888562186715
1760679885.791553,-23.768253790204447,-0.2530557628883287,0.8635025047913726,0.061556677766649796,2.12291627034154,-14.5859519919827,-61.11047499455036
1760679885.801062,-24.349179119590428,-0.27461299279776874,0.8646916682171998,0.05734679512141765,3.002501548769386,-12.751929446621283,-61.88880681311029
1760679885.8110383,-24.940434749481955,-0.2988993106878583,0.8645870194601365,0.05106694550452269,3.792664251957159,-10.946640887343225,-62.63991487460932
1760679885.8211162,-25.54053922087119,-0.3238432892297205,0.8619778501825487,0.043483247868668994,4.50184154909148,-9.21418012383234,-63.113763585484556
1760679885.831082,-26.145729680845584,-0.3479284956343805,0.8557681697566342,0.03543863220290144,5.146355762695898,-7.590950969089084,-63.07091280434249
1760679885.8414726,-26.75039660030859,-0.3703121534541581,0.8451886196738997,0.027808027180028227,5.749806735808521,-6.112618904729921,-62.307533398652375
1760679885.850676,-27.347625686143417,-0.3907805174307599,0.8299836656621623,0.02144553788411615,6.341944178820105,-4.82078407064069,-60.675881496817595
1760679885.861074,-27.929754204603828,-0.40957405554012655,0.8105540114157495,0.017124604084824552,6.957106290299355,-3.7671767795108235,-58.09801074095529
1760679885.8708634,-28.48886518170597,-0.4271407360919333,0.7880369908940046,0.015474464545570067,7.632287821850027,-3.013658121079777,-54.57142933502894
1760679885.8809373,-29.01717123957036,-0.4438828943491715,0.7643085418932031,0.016918285203506248,8.404795770549438,-2.627174838757954,-50.16641937556796
1760679885.8910935,-29.50727122595271,-0.4599525697100297,0.7418932405974764,0.02161959702586433,9.309337071617707,-2.6699247590450943,-45.01569390868159
1760679885.9007313,-29.952289980125684,-0.4751290786673174,0.7237767800927648,0.029443291862746843,10.37436235323019,-3.1861375488709136,-39.29789666945607
1760679885.9109604,-30.34593004906807,-0.4887892524092267,0.7131264855029241,0.039935555862206054,11.617628648023764,-4.1878184012180615,-33.21709481113871
1760679885.9210083,-30.682471541967118,-0.499961152846586,0.7129366865939878,0.05232528277550022,13.041236856033535,-5.6422972537025435,-26.9807978258499
1760679885.9307606,-30.95675315618793,-0.5074403579137726,0.7256269139214165,0.0655487611963318,14.626779668768187,-7.464328046310098,-20.779094388894627
1760679885.9408982,-31.164158407463862,-0.509946123577635,0.7526340165834257,0.07829982341772798,16.33159313071356,-9.514814654396822,-14.767250819410794
1760679885.950771,-31.30062285328687,-0.5063005800393936,0.7940540306413494,0.0891086574459531,18.087311796670836,-11.607175397012005,-9.05362522287773
1760679885.96091,-31.36267521939177,-0.4956217265894006,0.8484011872211945,0.09645225689330068,19.801868938907084,-13.521124843457395,-3.6940762273377947
1760679885.9707878,-31.34752912301797,-0.4775249271584069,0.91255271144698,0.09889463775556481,21.36569226176013,-15.022473614834565,1.3067453914172023
1760679885.980844,-31.253249718822435,-0.4523241821052161,0.981932762687276,0.09524415116232866,22.66213374283903,-15.886654154784413,5.987648095930466
1760679885.990916,-31.079021161085652,-0.42120993536263557,1.0509538906715215,0.0847034934997619,23.581237812752285,-15.92328292577466,10.417895275180166
1760679886.000886,-30.82552127500622,-0.3863542676986713,1.1136809696309957,0.0669847575700005,24.0349538024559,-14.99922920770592,14.680859354379239
1760679886.0108752,-30.49536251641831,-0.3508700323741148,1.1646186081044962,0.04237164254024853,23.971052862436178,-13.05817434646154,18.856841793733047
1760679886.0207834,-30.093497852448156,-0.31855433637297575,1.1994678049917533,0.011726158101455263,23.382641890033796,-10.1350799616237,23.00784988145699
1760679886.0307925,-29.627447744063993,-0.29339672097694014,1.2156811757765815,-0.023555961558189564,22.310683873359284,-6.36394407708725,27.16679635915727
1760679886.041037,-29.107207649472805,-0.2789141188904202,1.2126915502614435,-0.061641559509452055,20.83853777696448,-1.9767698361672783,31.332526733470615
1760679886.0507836,-28.544753838443036,-0.277449390761145,1.1917867898277819,-0.10041161692478622,19.079826318503393,2.7085247293724213,35.47060188360963
1760679886.060993,-27.95316689478988,-0.2896055952785922,1.1557096279824566,-0.1376613892650714,17.162942555521102,7.312637755859341,39.51850171297229
1760679886.070821,-27.3455050540343,-0.31397271435138835,1.1081262040834194,-0.1713246909082339,15.216247592881059,11.431017849240053,43.39334381948056
1760679886.080762,-26.73363935974212,-0.34723992865284115,1.0531104690941544,-0.1996873241530963,13.357185555085143,14.677845570843367,47.00036765187053
1760679886.091043,-26.127275095463233,-0.3846889589582185,0.9947455158035537,-0.22155659943117895,11.686604152820408,16.731611157118614,50.241046536032535
1760679886.100865,-25.53332665852635,-0.420962257133359,0.9368736609726512,-0.23636286933827022,10.287394407624056,17.37491985930677,53.02041546294083
1760679886.1109242,-24.95571551324986,-0.4509302096499432,0.8829631567543703,-0.2441798875494513,9.225049110271355,16.521782050155096,55.2537509576508
1760679886.1208198,-24.3955623752002,-0.4704669366018094,0.8360246818082487,-0.24566407285747927,8.547474438223915,14.227823177007725,56.8729364962151
1760679886.1308267,-23.851672964036382,-0.4769835716903124,0.7985165180732018,-0.24192888388537545,8.282401856582839,10.682042377417844,57.832687877265215
1760679886.1408324,-23.32118194751804,-0.46964141275048343,0.7722149846387694,-0.23438418918614662,8.432496116767561,6.182181133321913,58.116426860639905
1760679886.1512043,-22.80022114336248,-0.4492496724077218,0.7580721506312295,-0.22457392674400078,8.969917010366474,1.0985483825295566,57.74114318333143
1760679886.160863,-22.28450896279711,-0.4179213641034137,0.756111436094245,-0.21403634018118534,9.832960914673087,-4.1674015314435895,56.760225238236636
1760679886.1706772,-21.769806695659852,-0.37859971888673577,0.7654115391896312,-0.2041955491546934,10.927159773213765,-9.223535805579322,55.263118959737795
1760679886.180876,-21.252237434315457,-0.3345698557469122,0.784204296724523,-0.19627995935051115,12.131989618839965,-13.721674224182502,53.37092738032117
1760679886.1909196,-20.72850009894711,-0.2890433134575326,0.810077684849189,-0.19125801258396316,13.312662530389368,-17.383403210342816,51.22771519094497
1760679886.2009704,-20.19602576085448,-0.24486270729415838,0.8402483251228623,-0.18978554981759996,14.335014174946087,-20.0159321333095,48.98817946724878
1760679886.2110975,-19.653115812389903,-0.20433500875512062,0.8718581650552875,-0.1921670371355832,15.080740961864603,-21.518262838260426,46.80321438570183
1760679886.2210116,-19.09907775639589,-0.16917311845188374,0.902254849161355,-0.19833870599723072,15.460295434401468,-21.878820836360916,44.8054743707158
1760679886.2307527,-18.534345932692336,-0.14051055609611757,0.92922526453958,-0.20788161896456686,15.421416813617698,-21.166085228864134,43.09717048876531
1760679886.24079,-17.96055447450147,-0.11895437375320962,0.9511608115715946,-0.22006776573071848,14.952252003037945,-19.513807882884755,41.741975044177714
1760679886.2507896,-17.380527166969948,-0.10465302737132867,0.9671415415032993,-0.23393600958967162,14.079038190036297,-17.102362690952777,40.762120017825
1760679886.2608044,-16.798163819553267,-0.09737010564273935,0.9769360330984831,-0.24838959617025017,12.85917484435286,-14.137824752937057,40.140734810970145
1760679886.271023,-16.21822633260408,-0.0965626238878886,0.9809238204660081,-0.26230349819342086,11.371102709774405,-10.8306050393824,39.828464578482496
1760679886.2810516,-15.646047060640763,-0.10146119980576387,0.9799553779313479,-0.27462815552837605,9.70269565844192,-7.375699096945396,39.75275011819079
1760679886.2906904,-15.087189412549215,-0.11114407691070603,0.9751703628684669,-0.2844771552543481,7.939872470906476,-3.936578953825486,39.82801815211628
1760679886.3009202,-14.547088265308465,-0.12459633880101273,0.9677986397289525,-0.291190959902679,6.156910566222825,-0.6343057213688611,39.96538522521394
1760679886.310844,-14.030694592931207,-0.14075335132340344,0.9589713223040578,-0.29437579173164435,4.409582840627657,2.4573582700091037,40.08108128593131
1760679886.3207033,-13.542150579892537,-0.1585382616556871,0.9495700037126714,-0.29392281526337816,2.7318092246404766,5.3109579092429655,40.10336046620331
1760679886.3309236,-13.084526067243786,-0.17690852409936958,0.940139166469751,-0.2900143375744318,1.1360307324813204,7.9393253148025735,39.977986228715395
1760679886.34098,-12.659646993489476,-0.19492100153843056,0.9308775266070771,-0.28312008875506717,-0.38302066064914336,10.385776149049473,39.67239707448428
1760679886.3509703,-12.268035494240614,-0.21181092894905512,0.9217092917671266,-0.2739801452930445,-1.84201272915098,12.711821764448649,39.17844831544561
1760679886.3609686,-11.90895963592338,-0.22706386248335864,0.9124192438608443,-0.2635652014109949,-3.2614384402178196,14.983583653572698,38.513351438423285
1760679886.3709333,-11.580565244625932,-0.24045036810020984,0.9028213624802144,-0.25300275714902953,-4.658248517649874,17.258053109792964,37.71828536172681
1760679886.3809652,-11.2800440222938,-0.2519975435881925,0.8929244459964821,-0.24346178929174958,-6.040075763292193,19.570483152441714,36.85424146392025
1760679886.3914218,-11.003792541170567,-0.2618916605828846,0.8830613621243042,-0.2359992853764014,-7.402063198149989,21.924433850161794,35.994957623605615
1760679886.4010055,-10.747540866095017,-0.27033548598524976,0.8739581900340482,-0.23138698842635277,-8.726744549671624,24.28607471691693,35.21719068215225
1760679886.4109612,-10.506468293680843,-0.27740583973384886,0.866731323529243,-0.22994965151633673,-9.986839222791474,26.58404558423492,34.58900217661279
1760679886.4206824,-10.275355261706848,-0.2829570153548382,0.8628116374834331,-0.23145008419485175,-11.150372693359097,28.71541117667191,34.15718586966439
1760679886.4309173,-10.048825866637216,-0.28659512052074865,0.8638036143383129,-0.2350483533720242,-12.18727681363792,30.557175192970302,33.935426978945735
1760679886.4409542,-9.82171178776288,-0.28772190242573215,0.8712941939463307,-0.23934654530801802,-13.07651379519139,31.98178836058374,33.89512516686575
1760679886.4509997,-9.589527274782274,-0.28562716362647483,0.8866328129740282,-0.24251462120068185,-13.812715213046667,32.874411903762734,33.960840502350315
1760679886.4607403,-9.349002151178105,-0.27960069788837594,0.9107110835997987,-0.24248324930114312,-14.411282628819828,33.149507863620116,34.011906352128
1760679886.471097,-9.098588972056575,-0.26903702295167364,0.9437750191761907,-0.23718586603445418,-14.910877314908252,32.764555628331955,33.890920882108986
1760679886.4810088,-8.838850060465118,-0.2535166028024157,0.9853008516419981,-0.2248299526188549,-15.372314702902898,31.729202584313317,33.41873210051196
1760679886.4911103,-8.572643362585,-0.2328619679668463,1.0339561510925632,-0.2041730926622333,-15.87318475522248,30.10880166970752,32.41438699726292
1760679886.50079,-8.305060788391403,-0.2071807736000964,1.0876534014273485,-0.17477303594765758,-16.498119170713572,28.021919075624876,30.717549014247762
1760679886.511008,-8.043120666902311,-0.17691357224291446,1.143687554974548,-0.13717523974565185,-17.325493361430457,25.6318946128985,28.21028373202354
1760679886.5209837,-7.795263596572442,-0.1428969305233574,1.1989371248969953,-0.09299943784031285,-18.412313135919725,23.132910058009795,24.834985720382335
1760679886.5310197,-7.5707345931622605,-0.10643475879973026,1.2501035598919477,-0.04489201585498464,-19.779809626454526,20.731409432734598,20.605612081866504
1760679886.540953,-7.3789465303252655,-0.0693524018169773,1.2939655796515104,0.0036749597878504426,-21.402572810352154,18.624273270611244,15.610244815455237
1760679886.550797,-7.228911179915251,-0.03399914244046018,1.3276297481687382,0.04875550007947234,-23.20374034877887,16.97586667586062,10.004160279832623
1760679886.5608482,-7.128800301146512,-0.0031672562194969794,1.348761764410954,0.08640332393897643,-25.05784324976459,15.896731214386941,3.993847416336873
1760679886.5709653,-7.085666458025681,0.020094443420343076,1.3557831652117756,0.11321078992820403,-26.80157380325096,15.426953880471753,-2.186337513970611
1760679886.5809994,-7.105317475447068,0.032779194815102164,1.348015997481488,0.12683149480628247,-28.251290204368736,15.526910616424756,-8.302049163162742
1760679886.5907362,-7.192306256334555,0.03231602129192679,1.3257563851144705,0.12638884461058947,-29.2248497450848,16.07717180116462,-14.147618808924658
1760679886.6010103,-7.349975885064898,0.017010399221366854,1.2902609671867986,0.11267596683636162,-29.564622291793533,16.888107212261012,-19.57123448647355
1760679886.611032,-7.580493685321742,-0.013546335273881917,1.2436396971664454,0.08808325065527439,-29.158360905857272,17.718424779586726,-24.49239569179019
1760679886.6207778,-7.88481965481996,-0.05819286703648074,1.188662158400693,0.05624640214939417,-27.954926305428437,18.30072099450649,-28.908183504614552
1760679886.6310458,-8.26258388260543,-0.11412479093779247,1.128498900313642,0.021474587289318416,-25.972559070777894,18.37122204504731,-32.88652693271175
1760679886.6409729,-8.71188900225945,-0.17708328310306806,1.0664313971058417,-0.011926644750542493,-23.29840983840472,17.70033446309315,-36.54699091742553
1760679886.6509135,-9.22909601131162,-0.2418024138141789,1.0055702188880957,-0.04029800642371137,-20.079331404179253,16.120448772739746,-40.03215198594505
1760679886.660931,-9.808678668889748,-0.3026546582241462,0.948617428374265,-0.06110850971491386,-16.505339299763346,13.547628578179594,-43.47468510610644
1760679886.6707828,-10.443228989187308,-0.3543893096299995,0.897697290430813,-0.07319639019872524,-12.78835516997115,9.994326192794388,-46.96631123142244
1760679886.6811213,-11.123661907853101,-0.3928371289058968,0.8542647686545203,-0.07674889535610027,-9.139555808812252,5.571105016293828,-50.53450110055074
1760679886.69073,-11.839615347403951,-0.41546104445930065,0.8190888448381142,-0.07305708205447305,-5.74865566405256,0.47656581804896364,-54.13138319815912
1760679886.701033,-12.579995240971165,-0.4216623657036375,0.7922992008045333,-0.06412054750445663,-2.7677218321472807,-5.023764310874304,-57.637030997545644
1760679886.7110217,-13.333589835720616,-0.41279389666518773,0.773481038446688,-0.052193930298019386,-0.30089314537743794,-10.62712892945153,-60.87670687748912
1760679886.721129,-14.089676412717495,-0.3918772274043573,0.7618035822525867,-0.0393638503810904,1.5998979346645936,-16.027937049753778,-63.64919037000444
1760679886.7309287,-14.838558773285316,-0.3630682718093609,0.7561696748107232,-0.027225931915932953,2.933988269336081,-20.952178621958772,-65.7613896248081
1760679886.74106,-15.571994627555565,-0.3309590811404281,0.7553724209290571,-0.01670238146595958,3.7469356395084588,-25.187187872226204,-67.06328476468559
1760679886.751116,-16.283490177096194,-0.2998370658388848,0.7582404989817038,-0.008009114259972078,4.122329310489361,-28.602712692753276,-67.47704010813584
1760679886.7609985,-16.968452010609163,-0.27303529872659194,0.7637522913624843,-0.0007551598210962346,4.171169749418488,-31.160258488960544,-67.01494349914408
1760679886.7709823,-17.624196036606914,-0.2524928709057654,0.7711047203103404,0.005860579952369452,4.01946001270656,-32.90900920516479,-65.7826860626921
1760679886.7810118,-18.249823339986282,-0.2386029863252507,0.7797335024973564,0.012799749645600962,3.7948787406551787,-33.96840540969649,-63.967175431215786
1760679886.7909648,-18.845985547840804,-0.2303677903533542,0.7892914078104143,0.020929347791423053,3.6137629616347042,-34.49965879629053,-61.81105592192333
1760679886.8009593,-19.414575639974668,-0.22581669624060824,0.7995959993933229,0.030804426563104757,3.569852702212778,-34.67071118120997,-59.57863409460295
1760679886.8109977,-19.958389324276737,-0.22259300933746792,0.8105589974469026,0.0425231255169121,3.726172323281212,-34.62077262588406,-57.51931419641001
1760679886.8210325,-20.48080281510476,-0.21858290679165424,0.8221086379883621,0.0556754217666811,4.111025912791387,-34.43106324561514,-55.83469493114062
1760679886.830725,-20.98550412210063,-0.21245696467642852,0.8341152986128351,0.06939086681576918,4.718438273185012,-34.107516654332166,-54.65437654712153
1760679886.8410158,-21.476299128718797,-0.20401703157143003,0.8463295355777061,0.08247318473753298,5.5126265036674384,-33.57910497027107,-54.02368817944348
1760679886.85103,-21.956994650464384,-0.1942851254550124,0.8583421192191512,0.09359459622137266,6.435459454860299,-32.712529394849014,-53.90436989880698
1760679886.8610392,-22.43134193456079,-0.18532615240533865,0.8695779001039339,0.10151399717862171,7.415547788654777,-31.34089396136363,-54.18708454251644
1760679886.8707342,-22.90300887580886,-0.17984915436227603,0.8793349563164554,0.10528224062073868,8.3776395936669,-29.301304391689385,-54.712824575912386
1760679886.8808203,-23.37554099302734,-0.18067146394659253,0.8868717711741262,0.10440323111345619,9.251240758445046,-26.474651713697035,-55.29910286620347
1760679886.8907843,-23.852273165328892,-0.19015164953752794,0.8915284659225114,0.09892778050799488,9.977667949395896,-22.82042524712972,-55.766434119548016
1760679886.9009957,-24.336167452085718,-0.20969926735308325,0.8928515623476567,0.08946521155356374,10.515000904990282,-18.400215895918066,-55.96102307099198
1760679886.910964,-24.82957447679497,-0.23945237273780465,0.8906853879732444,0.07710618981354762,10.840657111933304,-13.385384789376364,-55.770634648832136
1760679886.9207337,-25.333940286805205,-0.2781798290606042,0.8852014955996379,0.06326310770977989,10.95160928925382,-8.04690848053183,-55.13209657894944
1760679886.9307933,-25.849498792036332,-0.3234201439042336,0.8768571096318692,0.04945325337567057,10.86258393947796,-2.7283787998985116,-54.03048149121757
1760679886.941321,-26.374995750350468,-0.37182056665504304,0.8662964368941428,0.037069411731120105,10.602835833544566,2.1938741111685216,-52.4914194383294
1760679886.9510841,-26.90748352626445,-0.41960074980945405,0.8542256523507628,0.027191300629406705,10.212212187534965,6.357137930761792,-50.568933499780925
1760679886.9609506,-27.442211317720535,-0.4630448734035889,0.8412975760623255,0.020480769093706105,9.737174845255456,9.457541174776582,-48.331506391505606
1760679886.970716,-27.97262026060699,-0.49893035302712924,0.8280352131406405,0.01717584762829521,9.227257592298692,11.286954937577667,-45.848777478290124
1760679886.981048,-28.49044381164194,-0.5248292292728434,0.8148092501965531,0.0171661754273763,8.732151343378485,11.756346063869671,-43.18054417565166
1760679886.9909925,-28.985915434654135,-0.5392618463875076,0.8018700687301399,0.020110188046023575,8.299319424580379,10.903232171321138,-40.36893104410976
1760679887.0010538,-29.448095973903715,-0.5417256464781076,0.7894246097189586,0.025550341758668483,7.971856370417473,8.883860374183973,-37.43397227213752
1760679887.0110219,-29.865342773855765,-0.5326470488429279,0.7777426282406288,0.03299383679049421,7.78630259063605,5.953077278106779,-34.37252366665273
1760679887.020945,-30.225938062161628,-0.5133019313222499,0.767272429481554,0.041945218610819686,7.770327107067597,2.4361195979028905,-31.16029309196666
1760679887.0307708,-30.5188654551747,-0.48572488552955595,0.7587411650171055,0.05189690774388594,7.9405048830894485,-1.303363016728475,-27.75669590820356
1760679887.0407736,-30.734674393293332,-0.45259597213165753,0.7532104464191287,0.06229817121702636,8.300676913490328,-4.895538299182005,-24.112103454314386
1760679887.0509279,-30.8663237856047,-0.417076039713453,0.7520573989710262,0.07252745580420071,8.841418814957594,-7.994487893430235,-20.17685653618804
1760679887.061,-30.909873922174288,-0.38256776740185594,0.7568577103305335,0.08188654372070152,9.540896952517235,-10.304730402521736,-15.911198570313932
1760679887.0707457,-30.8649108367694,-0.35240296373178503,0.7691631097615391,0.08962255143956317,10.36697697979977,-11.603243979851763,-11.295064697440997
1760679887.0812113,-30.734630467618544,-0.32948277822887606,0.7901900585897534,0.09497279120400769,11.280095532474025,-11.756163329240156,-6.336484840483107
1760679887.0907674,-30.52556350813852,-0.3159169392573433,0.8204644186274613,0.09722272351996361,12.236303340790226,-10.729202068879697,-1.0773252422153126
1760679887.1009967,-30.246972955155417,-0.31271951629040323,0.8594918165772176,0.09576850920137148,13.190090342298765,-8.590741930747688,4.404690240454668
1760679887.110982,-29.910000460354674,-0.31962270475227444,0.9055382639610423,0.09017904566620175,14.097003972259282,-5.506660812046741,9.99826463562997
1760679887.121008,-29.526673742397744,-0.3350643285721696,0.9556034537817774,0.08025246346115103,14.91644092679302,-1.7264677333502803,15.565078562316094
1760679887.1311827,-29.108911591589838,-0.35638327186678426,1.0056446497284777,0.06605662264289368,15.61507592756798,2.438852050180908,20.949955026496838
1760679887.1410067,-28.667665353625434,-0.38021564479482434,1.0510608026147241,0.04793791408468433,16.1710527723401,6.645834977882854,25.993553443830876
1760679887.1509564,-28.21230563172038,-0.40303029294851356,1.087380247100083,0.02648807516370548,16.578380000645982,10.551844352740314,30.54634827744199
1760679887.1609437,-27.750302519630242,-0.4216979765002125,1.111025634458483,0.0024765796436683556,16.850205436913644,13.84920034220145,34.48269022871725
1760679887.1707819,-27.287178525666135,-0.4339764554958741,1.119979304691857,-0.02322796127491657,17.019155454479893,16.29608839363504,37.713752888089246
1760679887.1810112,-26.826662737224012,-0.4388140101515187,1.1141685932555079,-0.04972636883879563,17.133143629966412,17.74027303713954,40.19794883917003
1760679887.1909652,-26.37095581905248,-0.43641208278762844,1.0954529155832806,-0.07614355648944789,17.246284575376574,18.13246640132951,41.94712462799098
1760679887.200761,-25.921024246789145,-0.4280384278434792,1.0672112400903593,-0.10167758396180022,17.40653532076327,17.527603744674646,43.02695779676514
1760679887.2110233,-25.47686846162006,-0.4156448796574698,1.033651304371171,-0.12564893590311949,17.64344389579396,16.073922765194123,43.550729795259095
1760679887.2209005,-25.03774284595784,-0.4013997514356849,0.9990352614003961,-0.14754731830331203,17.959832029221268,13.991356489744168,43.66682157399351
1760679887.2307994,-24.602334267689233,-0.3872616059140791,0.9670153743111514,-0.1670681270646917,18.33007280130614,11.542153913758437,43.54143460129878
1760679887.2410471,-24.168920444238776,-0.374686109028018,0.9402110525951103,-0.18412874898639747,18.70545890955253,8.997637759143371,43.33887866968137
1760679887.2507427,-23.735526951602488,-0.3644948171109964,0.9200681375083921,-0.19885402649376874,19.024957981332584,6.605416782422784,43.20220317066903
1760679887.260967,-23.300088892266167,-0.3568816628361007,0.9069574277322798,-0.21152361362533048,19.228200743436343,4.5611952344314926,43.2369657683558
1760679887.270989,-22.860609509289752,-0.3515086545436353,0.9004177855579583,-0.2224849353077142,19.267236151520695,2.988726507843344,43.50051901222153
1760679887.2812798,-22.415299406030663,-0.34764275740756406,0.8994406488203519,-0.23205077888324357,19.114359573721295,1.930539493605561,43.99838595670202
1760679887.2909074,-21.962678593344172,-0.3442998845025962,0.9027203702847167,-0.24041108587816826,18.764747874979374,1.35074650607487,44.68819303771575
1760679887.3009815,-21.501629272756297,-0.3403804120433435,0.9088384623553595,-0.24758694060819642,18.234151141145468,1.1494649703091468,45.49038900639078
1760679887.3109934,-21.031398061587435,-0.33479552885513403,0.9163876318564307,-0.253441448885798,17.553033870765805,1.1863962749976995,46.30381855440474
1760679887.3210094,-20.5515586384478,-0.3265886420056576,0.9240597183178194,-0.257743868105742,16.759093502067913,1.3094297808084403,47.02339722048373
1760679887.3310966,-20.061956035465542,-0.31505124704813847,0.9307190629843984,-0.2602674536234517,15.89001301344747,1.3832718580011047,47.55685730419777
1760679887.3411577,-19.56266001333814,-0.29982511626218006,0.9354685361434644,-0.26089258129598936,14.977810713701833,1.313241685994034,47.83784998738724
1760679887.351044,-19.053955771550363,-0.2809786924618371,0.9377018984138037,-0.2596863734010134,14.045483977995156,1.0604221315185343,47.83348754987457
1760679887.3611243,-18.536393407589134,-0.2590451980320481,0.93713174263919,-0.2569378493386447,13.106009384523452,0.6460164625150495,47.545520857810565
1760679887.3709738,-18.01090099183306,-0.23501027771696678,0.933787347182591,-0.2531408429721049,12.163286072266338,0.1446946003165898,47.00558170109919
1760679887.3809774,-17.47894195833582,-0.21023868178728108,0.9279851334566885,-0.24893068609342153,11.214353362627195,-0.3314013012070542,46.26604361620449
1760679887.391035,-16.942674305438402,-0.1863369928692555,0.9202792183153092,-0.24499044585012839,10.252171473986538,-0.6547523984680362,45.38880689120951
1760679887.400949,-16.405058717168064,-0.16496498415693286,0.9113989789415414,-0.24194692059875492,9.268357246646787,-0.7064172145381148,44.434488494345516
1760679887.4109328,-15.86987255027346,-0.14762708202532474,0.9021775270466834,-0.24027656170963058,8.255434903259347,-0.39738422349229635,43.45404696671841
1760679887.4209826,-15.341613395422904,-0.13548732982416303,0.8934728277003375,-0.24023786103271924,7.208349410135685,0.31647382336200763,42.48395880023679
1760679887.430944,-14.825306517031034,-0.1292472856672015,0.8860831066528474,-0.24184002005734215,6.1251760727317315,1.4282137926312533,41.545012769071214
1760679887.4411285,-14.326249613509379,-0.12910529375800775,0.8806599842883759,-0.24484926777169508,5.007123474240046,2.8829139117563827,40.64394299636934
1760679887.4512417,-13.84972846571517,-0.1347872894587594,0.877626122095389,-0.2488270263564147,3.8580518465359295,4.58871651147024,39.77669174705924
1760679887.4610946,-13.400723984578997,-0.14562042445374612,0.8771082328865835,-0.25319137685176074,2.6838076605798635,6.433120839731627,38.93211372050955
1760679887.4709387,-12.983619263330995,-0.16062197694241276,0.8788988186754477,-0.2572946022924851,1.4916925711280198,8.301182995340769,38.09529384351657
1760679887.4809284,-12.601914683660656,-0.1785915415042244,0.8824588075450012,-0.2605106811690579,0.29032010768296707,10.092400307138707,37.25015012459387
1760679887.4910014,-12.257967812584118,-0.1982083514206008,0.8869688064418773,-0.2623244669322684,-0.9100330005475112,11.733764408037263,36.38142213546384
1760679887.5007634,-11.952782987861331,-0.21813765663089646,0.8914306643444333,-0.26241106174030826,-2.096658306538522,13.18747976796911,35.476371061332955
1760679887.5108771,-11.685877102167032,-0.23714388774304077,0.8948135226119626,-0.26069365562786745,-3.2534566340782956,14.45289290470927,34.526514233235474
1760679887.521134,-11.455244751771934,-0.25420255079251386,0.8962291951489774,-0.2573716022917398,-4.360084099207748,15.563065575369086,33.52953350833946
1760679887.5308042,-11.257440033622991,-0.2685997172426089,0.8951126279170009,-0.25291484544588594,-5.391513385712354,16.577024249947144,32.49120987766205
1760679887.5409882,-11.087782410606792,-0.28000467387408,0.8913776675290465,-0.24802347472851297,-6.31834539566323,17.568980459982,31.42693600020881
1760679887.5510066,-10.940678570227611,-0.28849764744448125,0.8855181303479849,-0.24355256748746745,-7.108251466686026,18.615821744867866,30.362145137680297
1760679887.56115,-10.810032670623368,-0.2945342845485817,0.8786292656023554,-0.24040455242597358,-7.728902184836971,19.784103520737826,29.330972274889376
1760679887.570887,-10.689697890167942,-0.298835614817515,0.872335162340739,-0.23939559085174375,-8.152526839517959,21.117798102947493,28.372696615537873
1760679887.5809698,-10.573909023769389,-0.302208285420623,0.8686229485906267,-0.24110911735318452,-8.361818169066641,22.628222520251807,27.525977580315722
1760679887.590922,-10.457636841658585,-0.30532246266990365,0.8696020582160644,-0.24575711186581506,-8.356355181429109,24.287748551365198,26.821458847752783
1760679887.6009767,-10.336824976795857,-0.308496244634653,0.8772220542031811,-0.25307439511114094,-8.158243903025847,26.028844552335965,26.273799608522392
1760679887.6109982,-10.20850528932895,-0.3115454740207187,0.8929919167630291,-0.2622699177246222,-7.815445282605479,27.749446139904048,25.874449996930505
1760679887.6209948,-10.07082324960978,-0.31374813085116227,0.9177451731749291,-0.2720513203466946,-7.401404434630674,29.324507694994903,25.58645758058417
1760679887.6310077,-9.923021768162734,-0.3139420090276711,0.9514870820337252,-0.2807280193343999,-7.010194556065137,30.62208882864845,25.342349210423585
1760679887.6409733,-9.765420460123526,-0.31073429545735587,0.9933428239241585,-0.28638717973922306,-6.7473804509042505,31.521050157172876,25.045852916359365
1760679887.6509619,-9.59939647374401,-0.302770264575088,1.0416053491079473,-0.28712695036502117,-6.717902140068757,31.926986867055756,24.5780058523516
1760679887.6609762,-9.427342308572623,-0.2889971390801184,1.093866997518915,-0.2813215389587057,-7.013058208282598,31.783657277740335,23.807922885507445
1760679887.6712747,-9.252560576031142,-0.26886790605534644,1.1472138594739019,-0.26788451569694194,-7.698825685801118,31.0785492992281,22.607953103886118
1760679887.6810071,-9.079060887155345,-0.24245289810557039,1.198462342927406,-0.2464930759892631,-8.807268297144407,29.84272386785684,20.87201372758923
1760679887.6909244,-8.911248861012213,-0.2104565574965951,1.2444184570296768,-0.21773734690077512,-10.331916475067722,28.14610829721491,18.534694372407305
1760679887.701039,-8.753534738474869,-0.17416149252860338,1.282140474126731,-0.1831630339454816,-12.227146193124959,26.089729696903355,15.587659910820982
1760679887.7110307,-8.6099266495143,-0.13533091859389498,1.3091857210667148,-0.14518204405746052,-14.411058092560866,23.796069968401902,12.089453772329271
1760679887.7211356,-8.483697194045563,-0.09609260330845841,1.323821873287864,-0.10683743762745646,-16.771248133181505,21.39814943948661,8.165363925137736
1760679887.7309983,-8.3772122858093,-0.05881201682172443,1.3251810295628002,-0.07143116425451283,-19.173026583472254,19.02758166668867,3.995556979942992
1760679887.7409968,-8.291986322557484,-0.025951180193488285,1.3133327202486154,-0.04205630705667131,-21.469834013212004,16.802015113986858,-0.20809540765961096
1760679887.7510002,-8.228982360991768,9.23688587936055e-05,1.289255688897323,-0.02111138491003887,-23.515575960753367,14.813014389087236,-4.233624277708396
1760679887.7609696,-8.189119001407056,0.017167465462239764,1.2547026720229189,-0.009896436974915787,-25.17822884235537,13.11606917196363,-7.903956776723891
1760679887.7710276,-8.17388868369713,0.02356590312842485,1.2119747174131446,-0.008385003387861587,-26.35345308102611,11.72454416351486,-11.108893044490097
1760679887.7810469,-8.185948782158475,0.018219943020354217,1.1636426519130894,-0.015230414371945795,-26.976368502203933,10.608817869356642,-13.827614075035303
1760679887.7910054,-8.229531655291849,0.0008798027425206543,1.1122658862864656,-0.02801039956592564,-27.029411532554484,9.700809846298016,-16.13671852276564
1760679887.8010936,-8.310542262964534,-0.027755516070875338,1.0601604284749802,-0.04365952649292299,-26.54448581500908,8.902987047890148,-18.20144034593231
1760679887.8107214,-8.436270666481164,-0.06598477599694448,1.0092574693799652,-0.05900039000067495,-25.5984486622087,8.100218885730174,-20.250814530651624
1760679887.8210027,-8.614728903520598,-0.11116121715853541,0.9610708671232568,-0.07126872969289953,-24.302201093710952,7.172796351009499,-22.540348251331693
1760679887.8309848,-8.853707144677768,-0.15988710298460795,0.9167594860786499,-0.07853373086007708,-22.78497472551741,6.009442970920867,-25.307784944873607
1760679887.8410683,-9.159708649892423,-0.20835277917106856,0.8772369230003442,-0.0799393214435673,-21.17644372543705,4.5197292600443575,-28.728752234047178
1760679887.8509748,-9.536947065524014,-0.25279005687556844,0.8432626977782207,-0.07573161849996037,-19.58970852952941,2.645400050944085,-32.879491518728145
1760679887.860999,-9.986569654706736,-0.2899722820138681,0.8154624775260086,-0.06708476442083926,-18.107903464403037,0.3695843997375306,-37.713379103999095
1760679887.8708909,-10.506221206512773,-0.31767310669439563,0.7942677490708038,-0.055780318922145807,-16.776323187871654,-2.277912114091473,-43.05635505260424
1760679887.880976,-11.090005826444616,-0.3349966235939919,0.7798106793841305,-0.04382107494656878,-15.600818306082088,-5.221380205251342,-48.62358660644341
1760679887.890801,-11.728849035279648,-0.34250609604009113,0.7718316988845435,-0.03306122482555894,-14.552059187249272,-8.347656188883436,-54.05598556524474
1760679887.9008796,-12.41121198135845,-0.342103412095374,0.7696508500847455,-0.024914238648813355,-13.574356943920897,-11.522384850924908,-58.971263424881485
1760679887.9109561,-13.124062661312932,-0.3366509836711048,0.7722290985500568,-0.020169699375274665,-12.597246091399473,-14.612158719555813,-63.020988934019734
1760679887.9209745,-13.853971462316748,-0.3293846611139192,0.7783143919432594,-0.01892480189438597,-11.548005976119644,-17.508526540227212,-65.943549185204
1760679887.931022,-14.588181645575995,-0.323229073466248,0.7866393742989422,-0.020622839592006018,-10.36356707311387,-20.148472064272095,-67.6035758132463
1760679887.9407864,-15.315518306968261,-0.32017011560336855,0.7961211341681375,-0.02418628052245581,-9.000576138347762,-22.525816543958165,-68.0111372826533
1760679887.9510274,-16.027039128297684,-0.3208387077523537,0.8060121758435297,-0.028226405745682075,-7.442640258049259,-24.689431228767756,-67.31798967815914
1760679887.96121,-16.71638359075489,-0.3244108124672991,0.8159654396240942,-0.03129985520500725,-5.703961529183202,-26.727077568138018,-65.79236137284796
1760679887.9710336,-17.379829188522258,-0.3288493099980065,0.8259999502604664,-0.03216893063831989,-3.828838792233446,-28.737427967615996,-63.777278653868365
1760679887.9807322,-18.016103765623665,-0.33143105732658046,0.8363799537162143,-0.030015983501930157,-1.8869510342442053,-30.79620476692613,-61.639840129665025
1760679887.9914048,-18.626028220395916,-0.32943892750651427,0.847441307800523,-0.024569325812968997,0.035061317112729785,-32.924315505319214,-59.71989922978067
1760679888.0010233,-19.21207211604968,-0.32086574603279105,0.8594091999570813,-0.0161192385598565,1.8445604658715304,-35.0657780612679,-58.286234856897856
1760679888.01102,-19.777897281594864,-0.3049791618909199,0.8722501200838172,-0.005430942550056042,3.4547649736594335,-37.08119156670787,-57.5065607278168
1760679888.0210059,-20.327945673122493,-0.28263069555162634,0.8855907123558954,0.006414506132701339,4.7956339068175176,-38.759149080954366,-57.43499311338572
1760679888.0310009,-20.86710314110798,-0.25624798047636055,0.898719798214499,0.01820961140577019,5.822092798350884,-39.84424189893341,-58.017436232590875
1760679888.041067,-21.400444131146873,-0.22951226407962075,0.9106712485789056,0.028801983150512557,6.518451765472045,-40.07705336491415,-59.11234089080758
1760679888.0509899,-21.93303688648318,-0.2067812688927316,0.9203690356481394,0.03724218686534653,6.898658030721754,-39.23934363761579,-60.52191339151124
1760679888.061042,-22.469769644795942,-0.19236262754805772,0.9268049264873117,0.04288571109390041,7.002830507549026,-37.19671367692293,-62.027455908439975
1760679888.0708592,-23.015152216183346,-0.1897702526981801,0.9292142718258046,0.045447323478277554,6.891070072519716,-33.93140847268245,-63.42233716469564
1760679888.081011,-23.573058341858427,-0.20110109326722078,0.9272155021421951,0.045011713554814946,6.635692203431895,-29.55942130899207,-64.5371466281374
1760679888.0909872,-24.146401079036227,-0.22664983659538723,0.9208842960534623,0.042005227485075326,6.312885004858911,-24.328438007935024,-65.2536576682423
1760679888.100954,-24.73676871631548,-0.26483448015018085,0.9107442855227065,0.03713180284774734,5.994584018370118,-18.596109265200482,-65.50687700330255
1760679888.110985,-25.344079949563465,-0.31244220218475216,0.8976722999745347,0.03127628261435336,5.741249930409181,-12.791290731021348,-65.27707510684898
1760679888.121096,-25.966331226603657,-0.3651362523886337,0.8827352421159506,0.025383477902885563,5.596248193403023,-7.363781511855823,-64.57561660737784
1760679888.1307788,-26.59950006748628,-0.4181105410735416,0.8669925536485193,0.020329677463751184,5.582539257657028,-2.7301918266492287,-63.42916704888056
1760679888.1410449,-27.23763988866279,-0.4667567059019607,0.8513070449792765,0.016808734907921608,5.702251744554565,0.7756483249516657,-61.866338575042484
1760679888.1510267,-27.87316511091155,-0.5072235490797894,0.8362048126389321,0.0152534063878112,5.939367470492076,2.9401935634810146,-59.9093558871507
1760679888.1611834,-28.497291752361154,-0.5367914929152061,0.8218130695545546,0.015805229845577935,6.265248918011088,3.690425500506471,-57.571460923333554
1760679888.1709812,-29.10057713745705,-0.5540380493306216,0.8078868119432892,0.018336204487957492,6.646214445464805,3.0949008071463306,-54.859138852550174
1760679888.1810117,-29.67349587900699,-0.5588169414996911,0.7939170410617326,0.02251534079070771,7.051950730101997,1.3469660950474764,-51.77722247632407
1760679888.1915,-30.206994306285097,-0.5521016622832646,0.7793000306047508,0.02790434247566732,7.463332971920333,-1.2658445680829102,-48.33460919251825
1760679888.2010198,-30.692975112454082,-0.5357508726322048,0.7635406843795736,0.034061088240416294,7.878227102678065,-4.4006001124775525,-44.548605374154874
1760679888.2110105,-31.124673473039092,-0.5122431939572324,0.7464608001771488,0.04062936549837048,8.314073751207214,-7.699843204232172,-40.44661131534114
1760679888.2209556,-31.49689565419193,-0.484412541427707,0.7283812052256966,0.047398823433424254,8.8065040270939,-10.828939590921388,-36.06475243549479
1760679888.2311504,-31.806104676033865,-0.4552018669830163,0.7102452532294997,0.05432728387987378,9.403897610667448,-13.505507409892854,-31.443943798114525
1760679888.2410448,-32.05035654715139,-0.4274467697218723,0.6936545591796992,0.061523927151967306,10.1585705839248,-15.518140971019823,-26.624593727385346
1760679888.2510462,-32.22911190798615,-0.4036975195157135,0.6807987159295581,0.06919469388693161,11.115975749356595,-16.73348785265219,-21.64157462676359
1760679888.2610366,-32.34296565938114,-0.3860830384094282,0.6742750940862331,0.07755303210851144,12.303693218612848,-17.092679929469032,-16.52109020452868
1760679888.2709973,-32.39334602215415,-0.37621132217740666,0.676806648031711,0.08670396507964763,13.721997925207116,-16.599879255405313,-11.280607422094668
1760679888.2811468,-32.38223233401678,-0.3750919033024651,0.6908744741823438,0.09651845971760332,15.337516950773226,-15.306834967502121,-5.932186452414702
1760679888.2910855,-32.311929360945996,-0.38306483464336305,0.7182929078558319,0.10652449363648063,17.08110356037693,-13.297502799653529,-0.48853878788429167
1760679888.3010602,-32.18491905149759,-0.399731140273601,0.759772330596706,0.11584518544965322,18.850636996173208,-10.675933029967853,5.029720697482676
1760679888.3110745,-32.00379289163924,-0.42389795349701753,0.8145363969602193,0.1232092587439152,20.518979361852598,-7.559092092979624,10.587574210165826
1760679888.3210456,-31.771253060844906,-0.4535695665981719,0.880077997786668,0.12704594731979624,21.94674204466665,-4.074511526029929,16.13161451520622
1760679888.3310103,-31.49016163717436,-0.48602589244096545,0.9521418921827837,0.12565950659093372,22.9988515325652,-0.36112838092662436,21.58964544255607
1760679888.3407786,-31.16361583521517,-0.5180261780747472,1.025003473516151,0.11746190547507361,23.563220514982188,3.429214850407395,26.874001621725352
1760679888.3507714,-30.79503132229238,-0.5461518967080666,1.092068610830949,0.10122898405367468,23.569186788776854,7.132182125182761,31.887803455717705
1760679888.3609324,-30.388218501219878,-0.5672568488334225,1.146750241516746,0.07633889186861614,23.00285233601507,10.575044801700024,36.5327718059756
1760679888.3709898,-29.947433312250784,-0.5789383568021558,1.183493115252754,0.04295425133084231,21.916188614972864,13.584909073924575,40.71718572947269
1760679888.3808632,-29.47737762088279,-0.5799103592146833,1.1987416438699077,0.0021173705815180537,20.427040473537993,16.00011443637219,44.36299879222134
1760679888.391096,-28.983123763493012,-0.5701713146731149,1.1916127773428724,-0.04426604865468985,18.70827808455128,17.68294830865804,47.411630262326945
1760679888.401046,-28.46994967716795,-0.5509158055941322,1.1640805640724416,-0.09357341169937111,16.96644157097581,18.531741046155133,49.82815862997014
1760679888.4110382,-27.943093047493353,-0.5242157235754351,1.1206067817586267,-0.14274337989264121,15.412905390538183,18.490987571763487,51.60361492033779
1760679888.4208808,-27.40745645810589,-0.4925662214761999,1.067317779572229,-0.18865374430538787,14.232893758410546,17.55882444468854,52.75513230722489
1760679888.430882,-26.867311349546554,-0.45842687652725367,1.0109541360170895,-0.22853245291043917,13.558556637203463,15.79145632897284,53.324028038959156
1760679888.4409707,-26.326051252253656,-0.4238745472772417,0.9578511391769342,-0.2603202506869326,13.451326738007525,13.303912057976708,53.372313135869085
1760679888.4509394,-25.7860346008823,-0.3904304843777873,0.913148080826339,-0.28291437800120256,13.89633437517453,10.26619336034505,52.97838952506786
1760679888.461795,-25.24853974114865,-0.3590601164270334,0.8803204871168023,-0.29625052881936464,14.808708697941643,6.893895772822117,52.23267925157922
1760679888.471643,-24.71383619157084,-0.33029671854015724,0.8610315739188747,-0.30121411679112653,16.049126860768958,3.4329073025986085,51.23363608337396
1760679888.4808571,-24.181361157915166,-0.30441984686976026,0.8552364506776189,-0.29940604886070454,17.444637637011716,0.13873667769263764,50.08409865054446
1760679888.49154,-23.649979917016818,-0.28162292578708,0.8614521792599117,-0.29281728431209303,18.810731260085475,-2.7477976545726226,48.8874400120301
1760679888.5025263,-23.118303299254514,-0.2621245716123043,0.8771185384585125,-0.2834833595576692,19.97153605604092,-5.025601970909734,47.74269956674111
1760679888.5111306,-22.585035442951323,-0.24620719218988818,0.8989979651219598,-0.2731897236257086,20.77631550304237,-6.555299311402543,46.73804443003527
1760679888.5212326,-22.04932821748513,-0.23419383228357255,0.9235809629575985,-0.2632806354130107,21.111555263379397,-7.27432856941697,45.942532390855916
1760679888.5322828,-21.511120350895062,-0.22638942153552227,0.9474693679438817,-0.254592915061773,20.90856567682412,-7.202253186876756,45.39707384658781
1760679888.541065,-20.9714355173576,-0.2230119404007127,0.9677086657802598,-0.24750093989125221,20.146720272428905,-6.435209663584602,45.10639081190752
1760679888.550789,-20.432604004361178,-0.22412836807618458,0.982040135115761,-0.24203356334841727,18.852466218542798,-5.130559879889841,45.03426548471563
1760679888.561154,-19.898360129725337,-0.22959830278000762,0.9890501420141588,-0.2380151851090985,17.09433934571477,-3.4846038641432995,45.10418991071805
1760679888.5708165,-19.373760322348687,-0.23902162584990105,0.9882085142790926,-0.23519102649068419,14.974497230656866,-1.7072157315109022,45.20665300654015
1760679888.5808194,-18.86487627758358,-0.25168963778498266,0.9798062124052551,-0.23331340834201025,12.617677653606899,0.0026802859093655656,45.21294698910449
1760679888.5909905,-18.378250539610686,-0.26655006701332284,0.9648178785557832,-0.23218328707963676,10.158836941582065,1.4776607512933473,44.99387411434557
1760679888.601047,-17.92015264245752,-0.2822062898808301,0.9447224431765835,-0.23165390379927725,7.730880602662621,2.5965087392661963,44.44044527101954
1760679888.6110685,-17.4957270994291,-0.29697104308316613,0.9213135767424405,-0.23160933445206933,5.453807184373256,3.292479834060458,43.48291033882505
1760679888.6210651,-17.10816396022164,-0.308984342292219,0.8965234121448226,-0.23193164624515386,3.426273744218554,3.5554928590817916,42.104465648175314
1760679888.6310549,-16.75803813133996,-0.3163905546694405,0.872271562890351,-0.2324693092610991,1.720143602069414,3.42915547816038,40.346798692310635
1760679888.6410158,-16.44295131140182,-0.3175564090272585,0.8503412277805493,-0.23301793587721406,0.3781065711963496,3.003746287448455,38.306115480095485
1760679888.6507673,-16.1575714740426,-0.31130271683130495,0.8322779012347621,-0.23332142376781353,-0.5859273783810655,2.406259744123554,36.120123799056444
1760679888.6607974,-15.894105472491411,-0.2971182127858795,0.8193044287194632,-0.23309646409584403,-1.1842183171975225,1.7884398604209366,33.94816648987288
1760679888.6710696,-15.643169828327254,-0.2753228546030666,0.8122478185007715,-0.23207748142967444,-1.45106603380038,1.3134464106640948,31.947908966424475
1760679888.6808963,-15.394952491792598,-0.2471480228449805,0.8114772441195967,-0.23007415625809746,-1.437892587422762,1.1415549688874664,30.25249080907195
1760679888.6910155,-15.140494464497452,-0.2147032330747101,0.8168585553955167,-0.22703033800440697,-1.208200550791457,1.415282088434751,28.951872314268613
1760679888.700871,-14.872879070419176,-0.1808083438294858,0.8277374737423309,-0.22307156972394687,-0.832884826282781,2.2446583486777736,28.08136291879241
1760679888.7111378,-14.588114825633776,-0.14869081050826238,0.8429688331431702,-0.21852898647063645,-0.38611344906383993,3.693961989157946,27.619153425350515
1760679888.721024,-14.285543886261953,-0.1215762654155873,0.8610088887480475,-0.213930098938248,0.05826925362634018,5.771822043466898,27.493239687922426
1760679888.7310731,-13.96769515159841,-0.10222923536691537,0.8800791959214169,-0.2099518963016767,0.43004505562986267,8.426889776251933,27.59657404796007
1760679888.7409463,-13.639610475757767,-0.09252295154296072,0.8983943867439058,-0.20733937792093424,0.6659160121547415,11.550981225727483,27.807776690273702
1760679888.7510946,-13.30778215032552,-0.0931312160657816,0.9144261763410635,-0.20680333465888912,0.7130155022362342,14.990527566213991,28.013488347099617
1760679888.7609406,-12.978927334254474,-0.10343384352667621,0.9271580655806744,-0.20892124105520016,0.532687234746744,18.565365013467794,28.127746058991246
1760679888.7709637,-12.658865040497298,-0.12169077388701142,0.9362767814856062,-0.2140653938819515,0.10426562454401662,22.09177548029139,28.104026488756816
1760679888.7808123,-12.351732796640144,-0.14545917408571668,0.9422546743893114,-0.22236697670252967,-0.5718684841259378,25.405060061734904,27.93713284707339
1760679888.7911527,-12.059684276992522,-0.17213398385632933,0.9463025534581134,-0.23370180825630862,-1.4731035415627625,28.376604067149955,27.65467373089803
1760679888.8010118,-11.783075646385438,-0.1994414329136985,0.9502032122954791,-0.24767110328896014,-2.556478780948789,30.921710070007183,27.300650901381285
1760679888.8110468,-11.5210212939193,-0.22573707265867618,0.9560570526380975,-0.26355923145485155,-3.764280152530342,32.997087481340145,26.915678259533873
1760679888.8210056,-11.272118057514023,-0.25003959846641266,0.9659785709784053,-0.280275282748292,-5.0329794906622265,34.589913653001595,26.519026599155787
1760679888.830772,-11.035121190414204,-0.27182962323936155,0.9817828961457823,-0.29631155405644727,-6.304047631608903,35.7027686570689,26.096952510144018
1760679888.841024,-10.809401086569586,-0.2907184515835032,1.0047012691081296,-0.3097650686189906,-7.534429667148351,36.339685174243016,25.599962485357153
1760679888.851048,-10.59509318518139,-0.3061214376204649,1.0351631182309182,-0.3184609264682464,-8.704354226991226,36.49778856343458,24.94939989690131
1760679888.8609502,-10.392944122342715,-0.31705328256840054,1.072676797735624,-0.32019178124073183,-9.82067863676895,36.166884954765244,24.051656689168425
1760679888.870819,-10.203931274609157,-0.3221146536823829,1.1158285435094302,-0.31305470784440764,-10.914938427421427,35.33668136879194,22.816829230975497
1760679888.880826,-10.028778483897751,-0.3196798114471222,1.1623999912604615,-0.29583404242063777,-12.036360078752681,34.009003906735764,21.177948056388747
1760679888.8910189,-9.867506551168496,-0.30824026417460254,1.209583136938355,-0.2683538557550733,-13.241047058915274,32.21108733193698,19.107022942455377
1760679888.9010062,-9.71914739564992,-0.2868230672638005,1.254255694546346,-0.23171262290660238,-14.5792120323403,30.005930842688564,16.624906847370397
1760679888.9110267,-9.581721167152686,-0.25538968689699915,1.2932755747601414,-0.18832069260209253,-16.08264108605389,27.496596937272127,13.803131326200463
1760679888.920976,-9.452530831986856,-0.2151284193395083,1.3237595719267583,-0.1416927984959007,-17.754532196122096,24.822739170109607,10.757137726237733
1760679888.931246,-9.328773550642921,-0.16857337930146446,1.343320950722285,-0.09600230004320638,-19.56348370052138,22.14921679653226,7.631549473949296
1760679888.941118,-9.208408257513707,-0.11951161709641604,1.3502481178898045,-0.05546811754661913,-21.442774425137777,19.648152581999003,4.579236865479437
1760679888.951062,-9.09116060130892,-0.07267248957575875,1.3436134488812523,-0.023695341530851264,-23.29524617623983,17.477003948318302,1.7369049831185697
1760679888.961119,-8.979496893999901,-0.033224834055238434,1.3233107478331856,-0.0031056805437307787,-25.003190970912488,15.755931419910192,-0.7992763812549657
1760679888.9715846,-8.879367287360889,-0.0061362995754858235,1.2900302837910458,0.005427990360678517,-26.44183851148107,14.547882320428121,-2.99404895526894
1760679888.980798,-8.800516699217088,0.004524017065512369,1.2451873009224128,0.002674478951843793,-27.494503477949234,13.844496422575114,-4.885615493532704
1760679888.9908946,-8.756200636122578,-0.0037622229541029568,1.1908207870561789,-0.00914831593703033,-28.067263472140482,13.560355021595383,-6.587331734866799
1760679889.0009208,-8.762226227692823,-0.03146363187248793,1.1294753331949376,-0.026807628173419612,-28.101165861624686,13.53725671177414,-8.276985923366313
1760679889.0110695,-8.835359306627998,-0.07674815170335512,1.0640727697101715,-0.04663952787517925,-27.580320075278124,13.559050152247956,-10.174055298719557
1760679889.021273,-8.99127576793545,-0.13554469235547661,0.9977732169600413,-0.06516131623388857,-26.534751810132818,13.376115775037926,-12.507385147758436
1760679889.0307922,-9.242359767731687,-0.20194113595020968,0.933818044087654,-0.07959114624724607,-25.037546755824007,12.737041891085251,-15.47755395194158
1760679889.0410328,-9.59572943326015,-0.2688946876049609,0.8753434115440255,-0.08818140443063832,-23.196560873942826,11.4236519998885,-19.219514559315
1760679889.0510879,-10.051871650179411,-0.3291757535410477,0.8251582457270612,-0.09032130426686087,-21.141747841717663,9.284567809613737,-23.771713959549956
1760679889.0612485,-10.60417324695764,-0.3764102623805444,0.7854973809824897,-0.08641998756684079,-19.009838505543065,6.26211959912485,-29.05754548306926
1760679889.0710807,-11.239460213544948,-0.4060451850122239,0.7577839381793693,-0.07762921969018102,-16.928565934085178,2.4077659751622056,-34.88351346000018
1760679889.0807893,-11.939450080214216,-0.4160576173032538,0.74245220266542,-0.06549274505479878,-15.002737644445236,-2.1176315318112873,-40.95597975090184
1760679889.0911179,-12.682848335091332,-0.4072645296956594,0.7388814110195537,-0.051611143703262266,-13.304150412148955,-7.060267525416171,-46.91518189350334
1760679889.101099,-13.447720359992287,-0.3831581791013543,0.7454700231726119,-0.037388317423875835,-11.866656455572782,-12.105373554534916,-52.3819167101059
1760679889.1112072,-14.213757008003734,-0.3492782647553586,0.7598483056100523,-0.0238891738117154,-10.686762471451734,-16.920432095509163,-57.00954448286188
1760679889.121129,-14.964113435399545,-0.3122251316733688,0.7791964625141463,-0.011802462392563485,-9.729188369017436,-21.202702963734886,-60.5325123446947
1760679889.1310554,-15.686612444484691,-0.2785013528178046,0.8006137722724039,-0.0014800886181276667,-8.936029479113541,-24.722698859545602,-62.802943936980746
1760679889.1410768,-16.374233081501664,-0.25341477431389664,0.8214744020353315,0.00698109330474564,-8.237672181222715,-27.355506571653596,-63.8089935761331
1760679889.1511748,-17.024922445104526,-0.24026216452082788,0.8397098243053793,0.01364221346658816,-7.563471970549766,-29.09397287882132,-63.672081796132396
1760679889.1610804,-17.64085532275137,-0.2399399600484873,0.853976159266279,0.018628838896614316,-6.8504616225583685,-30.041460500517776,-62.624041821924806
1760679889.170764,-18.227317423235192,-0.25102314037117696,0.863692239100876,0.022056393171151118,-6.04898949049271,-30.38625790831166,-60.968814279728406
1760679889.1811578,-18.791406494250648,-0.27024983498347294,0.8689620090640875,0.023989551446384486,-5.125032352754606,-30.363546785424223,-59.035880963145175
1760679889.1912715,-19.340736696196696,-0.2932748414082162,0.8704159047394971,0.02444643802723841,-4.059745826296717,-30.21301173086504,-57.133608328467126
1760679889.200785,-19.882301280196728,-0.315521996664055,0.8690159395456505,0.023447186119367906,-2.8474060052203067,-30.140262512936264,-55.510008046178534
1760679889.211022,-20.421604604046443,-0.33297215391617113,0.865865891710819,0.021091460262315124,-1.4931152233846403,-30.2884546435729,-54.32647464607319
1760679889.2211,-20.962125278862256,-0.34276000813105467,0.8620529716535369,0.017638140207635118,-0.01140778416896006,-30.723545123767277,-53.64737658976906
1760679889.231065,-21.505124619388692,-0.34350493415173894,0.8585292822400777,0.01355798201155623,1.5737398374462312,-31.433424650397644,-53.44549705350903
1760679889.2411647,-22.04977340190961,-0.3353564155137566,0.8560296022136848,0.009537298109619454,3.227756878370698,-32.3385472239293,-53.62071934974427
1760679889.2511144,-22.5935390485757,-0.3197863352949675,0.8550186221325915,0.00642403283081025,4.904035559735793,-33.31010633174009,-54.02742660540598
1760679889.261016,-23.132757119592174,-0.2992024698328378,0.8556620413861215,0.005121665654017786,6.543284769703564,-34.19136393640955,-54.505119159619625
1760679889.271032,-23.663304890423284,-0.27648252703218745,0.8578188911572444,0.006446824736576084,8.0746534252826,-34.81824840281535,-54.90684828104936
1760679889.2810774,-24.18129738397788,-0.25452940775207644,0.8610562227533026,0.010973026191964556,9.41923072486551,-35.03651797477557,-55.12109314871345
1760679889.291085,-24.683732777936765,-0.23592504902018982,0.8646906006432192,0.01888814573653384,10.49603646604597,-34.714308665847575,-55.084350515719954
1760679889.301041,-25.1690210367818,-0.22271992864525098,0.8678613735583344,0.02989693453246513,11.230112218959379,-33.750363585617535,-54.78357052503734
1760679889.3110166,-25.637336618703483,-0.21635294394811078,0.8696367829910603,0.043197160726998786,11.561886725849437,-32.079260137077306,-54.249308565037374
1760679889.321021,-26.090746083849112,-0.2176664198270628,0.8691455744453946,0.05754514165105158,11.45662723341814,-29.67522083476207,-53.54183168920453
1760679889.3310554,-26.533077985265706,-0.226969555530103,0.865716089198992,0.07140703711886873,10.912508597066749,-26.555619699365472,-52.733288660468936
1760679889.3410296,-26.969527014599564,-0.2441076711518034,0.8589963561190507,0.08317390209377236,9.96571022420988,-22.784383826212373,-51.8893641295998
1760679889.3509674,-27.406015297349924,-0.26850773482664664,0.8490271162166244,0.09140594766693412,8.69112216722001,-18.474542106077777,-51.053583695378755
1760679889.360792,-27.84836721170403,-0.2991884477296755,0.8362464025684228,0.09506529593416889,7.19779472860893,-13.788480334628401,-50.23669647809362
1760679889.370935,-28.301385622896117,-0.33474383609177344,0.8214174883216154,0.09369643101931188,5.619154908854112,-8.934150093798527,-49.41250562014723
1760679889.38083,-28.76794152637056,-0.37332958611767136,0.8054900294440785,0.08752012480514754,4.099063622610035,-4.1556133656117105,-48.520353827261204
1760679889.390988,-29.248199393855675,-0.412693799160125,0.7894252762696817,0.07742002365845227,2.7757450770571133,0.2830378576089398,-47.473385067709
1760679889.4009812,-29.739092229694716,-0.45029008502943924,0.7740336688967016,0.0648199762023222,1.7661910555003868,4.120170217463848,-46.170828933554525
1760679889.4109895,-30.234133048677975,-0.48348830310431745,0.7598759825643343,0.051471784633477374,1.1536036513878474,7.123785675544687,-44.51199093139867
1760679889.4211123,-30.72360722044899,-0.5098642994636918,0.7472616327256568,0.039192890796541945,0.9797903420322026,9.120189162491181,-42.40947296805743
1760679889.4311001,-31.195140064483116,-0.5275199610479905,0.7363461815259184,0.029605244457418585,1.2434059548144984,10.019887473802342,-39.79946710201384
1760679889.4410243,-31.634585330604715,-0.5353719593782155,0.727298407989494,0.023924426457184126,1.903858721702039,9.836132396066422,-36.64774638552514
1760679889.4508615,-32.02714184924825,-0.5333539224064647,0.7204866570973403,0.022831248811940714,2.889787602408124,8.69210886322674,-32.951049435677284
1760679889.460895,-32.35858347593593,-0.5224950261363633,0.716627999300217,0.02643331657137056,4.110392049442061,6.814244026539543,-28.73462902944983
1760679889.4708018,-32.616480765277316,-0.5048583327962428,0.7168500963619947,0.034302173553745964,5.4676056712398715,4.511216402312952,-24.047505256071315
1760679889.480847,-32.791294568581044,-0.48333815308756856,0.7226315502170436,0.04556013887165442,6.867172284552114,2.140565061474083,-18.957204029967464
1760679889.4908123,-32.877225281388405,-0.46132731267775073,0.7356093226174888,0.05899037175612909,8.227094692602918,0.06692793856638256,-13.545401994794489
1760679889.5010781,-32.87270958804761,-0.4422787741689829,0.7572688419830593,0.0731503247194456,9.482616830919845,-1.3824514310245868,-7.905090723403281
1760679889.5111954,-32.780481910142754,-0.4292077970987929,0.7885605484429722,0.08647820815182111,10.587736565787848,-1.9584993535116422,-2.1389350036781853
1760679889.5208907,-32.60717034826105,-0.4242082363661963,0.8295122369598633,0.09739094340091,11.514040224288326,-1.5211518041437564,3.642234290105324
1760679889.5309477,-32.36247135384692,-0.4280774860907505,0.8789246749858657,0.1043781082900915,12.24818510190497,-0.05542068823423941,9.322128502410655
1760679889.541136,-32.05802363578318,-0.44014473274724003,0.9342419178611796,0.10609846533625228,12.78946243675544,2.3297496046487454,14.783936875522782
1760679889.5510342,-31.70615640265204,-0.4583680785653858,0.9916702146844932,0.10148317943571479,13.148507157104959,5.419258805354037,19.917703886929
1760679889.56102,-31.31870326942343,-0.47970802042658334,1.0465755024554906,0.0898433382031595,13.347479561458748,8.922733111748284,24.629378022962975
1760679889.5710132,-30.90604541136473,-0.5007090097225484,1.0941220300887142,0.07097217509976389,13.42112225344248,12.512826455737576,28.850021941994665
1760679889.5812209,-30.476483584812108,-0.5181529817703133,1.1300384833072552,0.04522793217787141,13.417263982772015,15.86437946266721,32.54341807977158
1760679889.5909889,-30.03596060053213,-0.5296221881893637,1.1513386767853013,0.01358001176173758,13.394949032475507,18.68842784304942,35.71047749946292
1760679889.6011643,-29.588091902192705,-0.5338399978707703,1.1568102130610918,-0.022404766317931854,13.418761322847475,20.756862147754628,38.38924982638672
1760679889.611528,-29.13442918954445,-0.5307302746974117,1.1471359292955963,-0.060662573264034604,13.549206038101286,21.916112057276024,40.649819725725
1760679889.6208534,-28.674877942529598,-0.5212151448208452,1.1246229495635085,-0.0988347734659974,13.830845809257493,22.090768561710778,42.58406203943921
1760679889.630994,-28.208200239924214,-0.5068349322865423,1.092640781801229,-0.13455613223428178,14.2814154635322,21.27977321655624,44.29123839562521
1760679889.6410186,-27.732547450415115,-0.48931148001462316,1.0549535590393615,-0.1657779718324245,14.885482149020746,19.54831340296379,45.86158050179058
1760679889.6510365,-27.245978886004444,-0.470177765044995,1.0151354426282078,-0.19105598105222768,15.59508650824204,17.0180234510767,47.360849439828286
1760679889.661198,-26.746932266696536,-0.4505611866729953,0.9761922842863711,-0.20973717995304875,16.33768139627294,13.856946090513542,48.818964090854124
1760679889.6710725,-26.234618812184976,-0.43114833015315496,0.940417900295435,-0.22200424367431643,17.029471032831157,10.269398779905428,50.2250691454749
1760679889.6808257,-25.709317988968508,-0.4122973686856806,0.9094312962645829,-0.22876906668486605,17.59074161857809,6.4848111922938845,51.53010559066272
1760679889.690986,-25.17254543935598,-0.39422130302210817,0.884298035631885,-0.23144274529967324,17.959386905527765,2.7441476854707063,52.65643264216044
1760679889.7010171,-24.627067556558817,-0.37715378954533046,0.8656427762443393,-0.23163737712818633,18.099585955981286,-0.7170205816871436,53.51267688841701
1760679889.7107985,-24.076743407936835,-0.36142992190528284,0.8537005881158076,-0.23086791616947044,18.004163664641517,-3.6884321879608617,54.01100294277529
1760679889.72091,-23.52619221511764,-0.34745558427384254,0.8483076260598836,-0.23031605454658205,17.690999655923804,-6.005996841723511,54.08357230143069
1760679889.7310145,-22.980311472788202,-0.3355844927328974,0.8488711169508302,-0.23069640522144103,17.195337571956475,-7.570167621470815,53.69517213485938
1760679889.7408652,-22.443702377799827,-0.32595705226161276,0.8543704919670878,-0.23223654413145797,16.560564158225645,-8.357878117477648,52.849831186149004
1760679889.7511365,-21.92008748098904,-0.3183688249446349,0.8634274814285225,-0.23475510433620947,15.829889237271374,-8.424742700744947,51.59050927034668
1760679889.7608492,-21.411821187380376,-0.31222476034813523,0.8744537914808662,-0.23780257888797396,15.040566461810869,-7.895917730507262,49.99234594557637
1760679889.7712128,-20.919590541312854,-0.3066048369317399,0.8858534200691472,-0.24082189550480343,14.22120407371833,-6.946330329486361,48.15117601527128
1760679889.7809951,-20.44238013406558,-0.3004310110217013,0.8962347203658215,-0.2432903085181666,13.391704914977065,-5.773254952973027,46.169810914630624
1760679889.7911103,-19.977733612904302,-0.2926964386602549,0.9045827075418279,-0.24481673889045968,12.564747930946469,-4.565859107181544,44.144775953092136
1760679889.8007944,-19.522291283465027,-0.2827019775271904,0.9103544268951921,-0.24518427960087547,11.747608609608491,-3.4769880286226367,42.15577361978242
1760679889.8108675,-19.072528522148943,-0.27024380308644247,0.9134822868795807,-0.2443424760662053,10.943434749534987,-2.6020167329493473,40.25928935390578
1760679889.821112,-18.625575406513835,-0.255708387913762,0.9142935020467038,-0.2423655182555062,10.15162644983569,-1.9681872322934306,38.48674921613148
1760679889.8309455,-18.17997528980044,-0.2400530624255826,0.9133714286012257,-0.23939822749832074,9.367477228800862,-1.535793206530916,36.846751919605076
1760679889.8409903,-17.736245221014716,-0.224676190406766,0.911392888489621,-0.23561044848091992,8.581560131833085,-1.2103549858938492,35.330311501606936
1760679889.8510678,-17.29713275426429,-0.2112040995510529,0.9089748375220205,-0.2311730467128295,7.779442861761954,-0.8630399548177451,33.91780664205397
1760679889.860887,-16.867512891708927,-0.2012360149992245,0.9065571659846301,-0.22625801127238068,6.942225862672201,-0.3553809569559162,32.58637354960418
1760679889.8710408,-16.453923752216625,-0.19609078985731637,0.9043392561989673,-0.2210553186199062,6.0481888648674484,0.43603666412681363,31.316696851918028
1760679889.8809748,-16.063791700652146,-0.1965936182604891,0.9022776729668572,-0.2157941215654482,5.0755707322888295,1.598869064212029,30.098446426868197
1760679889.8910844,-15.704443671203327,-0.20293301982356482,0.9001415486855991,-0.2107568176518485,4.0062292081643855,3.1712604204847548,28.93388781973585
1760679889.901002,-15.382044762204856,-0.21461044874890134,0.8976120842350143,-0.20627946489150378,2.829650657386035,5.136631731977539,27.839398202849917
1760679889.9110813,-15.100625395071066,-0.23049405078376733,0.894405577281791,-0.20273715680142887,1.546557749986599,7.427050733933436,26.844747235234763
1760679889.9211872,-14.861361438044574,-0.2489712301750285,0.8903974771189754,-0.20051614797266032,0.17128889705456884,9.933800159340588,25.990106836647914
1760679889.9310863,-14.662234018001074,-0.26817414122912364,0.8857276671973086,-0.19997592035460815,-1.267732617058745,12.522764531944636,25.320899693712338
1760679889.9408453,-14.498128662941964,-0.28623586940144086,0.8808718770415391,-0.2014050072146043,-2.7297792985845963,15.05184301245681,24.88081657377609
1760679889.9508336,-14.361354491077746,-0.3015301130218712,0.8766681658527398,-0.2049747573857519,-4.165751713579352,17.387738713399905,24.703614908930273
1760679889.961119,-14.24249478710221,-0.31285464981528194,0.8742899087552316,-0.2106954224167507,-5.5237549198592495,19.420023000384013,24.804603926162102
1760679889.971009,-14.131455213688417,-0.31953450076772677,0.8751591701832091,-0.21837896935790088,-6.755524102314648,21.071137697074008,25.17295886938381
1760679889.9810538,-14.018559931927317,-0.3214388656023468,0.8807997742486673,-0.22761283175721017,-7.822782875231605,22.30178364521648,25.766133262077602
1760679889.9910712,-13.89555496948775,-0.31892156972689883,0.8926396531773627,-0.2377486933899281,-8.702653506137214,23.111777297391832,26.507613862336445
1760679890.0012417,-13.756402828765534,-0.3127043079759425,0.911785484548418,-0.2479108979388723,-9.391392292654382,23.53684527283732,27.289055015602248
1760679890.0110939,-13.597783213799769,-0.30372461372473025,0.9388043585562951,-0.25703006881935025,-9.905959007176065,23.641998987267435,27.977409841633776
1760679890.0211165,-13.419246724103651,-0.2929684172548926,0.9735522046692903,-0.2639077008201515,-10.283215114147605,23.512211160002675,28.42703965399228
1760679890.0310223,-13.223001085712795,-0.28130383040343787,1.0150844987635128,-0.2673151970349108,-10.576840375445535,23.241241008423096,28.49597313599934
1760679890.0408478,-13.013346281269333,-0.26933208015250354,1.0616720369682457,-0.2661251081026719,-10.852314411374268,22.919686826600945,28.06460603103747
1760679890.051134,-12.795820024242582,-0.25727556003859536,1.1109258476855108,-0.2594635644705091,-11.180488919944784,22.623626121218695,27.054332723783812
1760679890.0611222,-12.576167642712779,-0.2449293851566384,1.160014206347811,-0.24686352661048586,-11.630360103897162,22.405399353550454,25.443067564492626
1760679890.070914,-12.359299794595884,-0.23170393778644743,1.2059363886818761,-0.2283922394124248,-12.261660133284973,22.28806145033315,23.27454243663447
1760679890.0809805,-12.14842965204504,-0.21677435766129613,1.2458082203498793,-0.20472513419364366,-13.117874490621352,22.264650021274484,20.6588208052345
1760679890.090849,-11.944573186160518,-0.19932851357839343,1.2771165994829525,-0.177141736566353,-14.220304561491925,22.302642752689565,17.762691757779685
1760679890.1010995,-11.746547274063612,-0.17887478527242281,1.2979115590334913,-0.14742707584181788,-15.563824969949776,22.35287544510385,14.790329222001342
1760679890.1108224,-11.551516952562269,-0.15554475535467008,1.3069200949848285,-0.11767704258981034,-17.11496874320451,22.361030120650604,11.956423773365929
1760679890.1208038,-11.356039731370853,-0.13031285521398217,1.3035819272753042,-0.09002829760606702,-18.812833142210472,22.278960313103166,9.455455001605472
1760679890.131183,-11.157450620082516,-0.10506233662400855,1.2880208158862643,-0.0663568486988942,-20.57300035989843,22.07293909464261,7.4315763734518425
1760679890.1410785,-10.955346862767785,-0.08245639505313587,1.260973601066366,-0.0480048525488136,-22.294246220121654,21.726556953402742,5.953677030827311
1760679890.151158,-10.7528845048442,-0.06561746441042922,1.2237011363909243,-0.03559499681660845,-23.86736400500049,21.237368687598476,4.999631290446006
1760679890.1610835,-10.557602706468913,-0.05766262074170014,1.177900628268354,-0.028974113396830863,-25.185080503547447,20.608147933263368,4.4526168654770855
1760679890.1711247,-10.381551197905722,-0.061175873355302855,1.1256292788336424,-0.02729749993965679,-26.151875946413796,19.835263940422198,4.11077397295775
1760679890.181071,-10.240606280668025,-0.0777125937800492,1.0692378372618203,-0.029232425819249293,-26.692562636242496,18.89775347313328,3.7095944392080824
1760679890.1912348,-10.15300433335134,-0.10742700274867044,1.0113032474659063,-0.033233108597119816,-26.758709838446904,17.750753693319048,2.9545812332765258
1760679890.2012022,-10.137271626754671,-0.1488933451769287,0.9545441148400884,-0.03782624420226827,-26.33238509838234,16.32598608643932,1.5602096229673248
1760679890.2112074,-10.209854510237028,-0.19916030186647332,0.9017018416345783,-0.04184760500758756,-25.42712776130125,14.540185452949567,-0.709753152346156
1760679890.2211485,-10.382829143081189,-0.25404278507157974,0.8553747924782407,-0.04458403644103777,-24.086437322155504,12.310263324327499,-4.005895078925745
1760679890.2309377,-10.66207926601384,-0.30862007304756306,0.8178042754195399,-0.04579733846395853,-22.38022306268326,9.572146959557383,-8.365916986546498
1760679890.2412174,-11.04626705866305,-0.3578750935288464,0.7906301656777706,-0.045633240118605985,-20.399608898809383,6.299112201387781,-13.700905437136099
1760679890.2511475,-11.526788115551167,-0.3973780732490251,0.7746574109298807,-0.04444627716590311,-18.250346540222267,2.5153254040854995,-19.798150058106568
1760679890.2609782,-12.088716570929884,-0.42389702157142717,0.7696929719509155,-0.04259439126038521,-16.045060175247293,-1.6987437176175946,-26.341446241424524
1760679890.2710242,-12.71255461058847,-0.43582062901256763,0.7745136267407744,-0.04026745566638838,-13.894733449205555,-6.21064209030848,-32.947161117677055
1760679890.280985,-13.37645970546123,-0.43331287052688994,0.7870016179622672,-0.03740381620485255,-11.900150326182766,-10.84948250728914,-39.21154070034445
1760679890.2908928,-14.05857319560352,-0.41817538865785575,0.8044413805744403,-0.03371738723799256,-10.144196958370314,-15.426160109923758,-44.7624014400576
1760679890.3011048,-14.739114109400752,-0.393455533853289,0.8239213842362938,-0.028816529633524914,-8.685893746547826,-19.756137194095658,-49.30706434948074
1760679890.3111756,-15.401996520001484,-0.3628862276690295,0.8427519184785451,-0.022364371336143413,-7.556784729256147,-23.680209581046842,-52.6685799950652
1760679890.3212073,-16.035836022501435,-0.3302681411310425,0.8588088852146656,-0.014221965834025727,-6.759974577204484,-27.07948103716419,-54.804089813963806
1760679890.3311985,-16.63430736464461,-0.29890621455482336,0.8707434014518329,-0.004529863970608365,-6.271774185725316,-29.882506722767754,-55.80235195042772
1760679890.3411303,-17.195896721169916,-0.271197963031738,0.8780387044573938,0.0062903688798477035,-6.045640678456405,-32.064395073219565,-55.861456302632625
1760679890.3508723,-17.72316038841903,-0.24844135391949912,0.8809309572636662,0.017606841909977126,-6.0178726013857124,-33.638957776530376,-55.25163884216672
1760679890.3611257,-18.221652459508427,-0.23088248117346508,0.8802318459186572,0.02869378065266663,-6.114357055018638,-34.64577048824473,-54.27079805794851
1760679890.3710134,-18.69870805018471,-0.2179658217924255,0.8770991950574585,0.038860196828857795,-6.25762728534864,-35.134601294233384,-53.2010691533287
1760679890.3810146,-19.16226116154225,-0.20870393797050893,0.8727994711517972,0.04756036701065091,-6.373619468515846,-35.15019834506347,-52.273600326506575
1760679890.3911824,-19.61984195710084,-0.2020667292261403,0.8684962099295359,0.054464452878315944,-6.397731973735505,-34.720615555967626,-51.6461301052956
1760679890.401018,-20.077847732307234,-0.19730312045582654,0.8650864637129929,0.059478702003664036,-6.279924238350437,-33.8517260202136,-51.39496340131515
1760679890.4112716,-20.54112620086715,-0.19413820006472685,0.8630978306885595,0.06271687911795965,-5.988568740431526,-32.52925358429559,-51.520218937151135
1760679890.4209888,-21.012857539907216,-0.19282295287508744,0.8626517366026376,0.06443593394829622,-5.512675872840643,-30.727881316606588,-51.96119601666848
1760679890.4309022,-21.494678881475906,-0.19404326066657618,0.8634917049606683,0.06495606188394745,-4.86210345153247,-28.425341232242275,-52.617548969414216
1760679890.441158,-21.986965670236614,-0.19871707885408252,0.8650671008513283,0.06458598804037,-4.0655268691864,-25.618335122890926,-53.37167936417502
1760679890.451087,-22.489171488088903,-0.2077250956694454,0.8666553049398499,0.0635691947986862,-3.1662495269409963,-22.336856850181178,-54.108294392977065
1760679890.4616656,-23.00013358716571,-0.2216319395317946,0.8675014815440654,0.0620587862338786,-2.216267861132036,-18.65387254037389,-54.728296198979336
1760679890.4710777,-23.518275770673775,-0.24046016865481204,0.866955814766284,0.060120876874500705,-1.2692703766840054,-14.688160267215123,-55.155824491470476
1760679890.4812477,-24.04168007048823,-0.2635732887812579,0.8645911093578973,0.057760905962579635,-0.37341195384443265,-10.599262112112932,-55.339013644629496
1760679890.4909909,-24.568044854101814,-0.28970259545337224,0.8602859270885264,0.054964425190869325,0.4352102086179121,-6.574847579694344,-55.246398811905664
1760679890.5012412,-25.0945860072243,-0.31711706471272083,0.8542592731439731,0.05174246342197753,1.1374216741581051,-2.8121615658933594,-54.861539788194165
1760679890.5111117,-25.6179572975834,-0.3438965702431222,0.8470451798966683,0.048170629557664706,1.7332806217671894,0.503622418855409,-54.178225368196586
1760679890.5212574,-26.134260688600467,-0.3682417835748523,0.8394029574356463,0.044411599077507365,2.2411802382200485,3.2206807183501893,-53.197786702501105
1760679890.5311582,-26.63919070105431,-0.3887489028267134,0.8321717232436604,0.040714233252724184,2.693586349567243,5.23803003833693,-51.92895374925339
1760679890.5410593,-27.128318198630424,-0.4045926921283438,0.8260926263020423,0.03738920108875357,3.1299517320086276,6.5165238335740785,-50.38966980746993
1760679890.5510688,-27.59747897515014,-0.41558878965645685,0.8216339802720835,0.03476785671468793,3.58806370539966,7.081838951911249,-48.60955450429724
1760679890.5612445,-28.043200246558715,-0.4221362934869854,0.8188589450271687,0.03315505708642912,4.095565561851547,7.019329912925952,-46.631393198643394
1760679890.5713203,-28.463079782197862,-0.42506699015166355,0.8173700664793598,0.032786487518707934,4.663464103317533,6.461939034200443,-44.510179123125674
1760679890.5810494,-28.856031912706968,-0.4254441194486589,0.8163506948785028,0.03379794808966985,5.2830615542407084,5.5733405363554205,-42.30882028983613
1760679890.5915086,-29.222333729245214,-0.42435956301525785,0.8147039919236885,0.03620989635013251,5.9270388268798575,4.529018294449626,-40.09052363344903
1760679890.600843,-29.56344119152701,-0.42277340548175046,0.8112710257635123,0.039927354168661215,6.554553718128502,3.4979737684575363,-37.90885930382068
1760679890.6110315,-29.881591217033712,-0.4214249708707625,0.8050942281628334,0.04475387303689419,7.119392425563078,2.627273017207318,-35.79732186850519
1760679890.6214428,-30.179251118080227,-0.42082318335269053,0.7956830509453697,0.05041738921791831,7.579582782346728,2.030839229086514,-33.76062340072728
1760679890.6309943,-30.458509837733363,-0.42130225585096426,0.7832353019711075,0.05660389995778973,7.906560185647122,1.7830397528954034,-31.769852038139827
1760679890.6409717,-30.720518506718744,-0.4231120840139044,0.7687699419480764,0.06299215705295987,8.092036838853183,1.9169230596538187,-29.76299915551459
1760679890.6512327,-30.96507798197691,-0.42650451021277136,0.754134737557795,0.06928073536358763,8.15114504516687,2.426514274085806,-27.65132862605728
1760679890.6610696,-31.190439792229974,-0.4317773718099897,0.741865548337429,0.0751996012188815,8.121114768743343,3.272344114599646,-25.33087930369871
1760679890.6710231,-31.39334082200869,-0.43924845340157487,0.7348941776960233,0.08050229816542814,8.055585935936096,4.3892992875742225,-22.697335204972546
1760679890.6809864,-31.56924393536632,-0.4491524548071589,0.7361285325710578,0.08494091539013186,8.015521518368617,5.695905990217553,-19.661803655470585
1760679890.691119,-31.712722447502472,-0.46148389879227797,0.7479589134835548,0.08823155973185157,8.058424686385928,7.10426809194912,-16.164864047837625
1760679890.701224,-31.817916103662256,-0.47583787941479416,0.7717701354556721,0.0900211622286549,8.227993336139438,8.530005063169472,-12.18661783006527
1760679890.711137,-31.87899885307632,-0.4913146970864037,0.8075516859859925,0.08986692933157564,8.546327564763667,9.901553714911605,-7.7512747154739685
1760679890.7213109,-31.8906243530674,-0.5065447844408802,0.853691109563993,0.08723814573954819,9.010318244915833,11.16804658792633,-2.9258661309317957
1760679890.7310007,-31.84834125868201,-0.5198585225216348,0.9070096181587542,0.08154653410087347,9.593006652256706,12.304731844171597,2.1862176023281488
1760679890.740883,-31.748985342762527,-0.5295813799781326,0.9630595707653012,0.07220625034316096,10.249710973635038,13.314746586181188,7.455262845196805
1760679890.7513657,-31.59105139928343,-0.5343912815628264,1.016658695812249,0.0587189601348474,10.927747312870729,14.226195401986514,12.736811869429298
1760679890.7609277,-31.37502505617784,-0.5336462630614197,1.0625919123414684,0.040774882405325306,11.57778022708355,15.08401461093757,17.882968828667682
1760679890.771225,-31.103624696019164,-0.5275889857921605,1.0963724424388832,0.01835764067958537,12.164374466398343,15.936991523679,22.75233468550112
