timestamp,angle,linear_acceleration_x,linear_acceleration_y,linear_acceleration_z,angular_velocity_x,angular_velocity_y,angular_velocity_z
1760597793.1305816,6.359400811069006,0.0005290176562435145,0.9232400702702721,-0.11214018277289273,16.18230926596537,12.986343453160439,-39.64084014550464
1760597793.1406152,5.926269662238024,-0.00037297281521572544,0.9396592007755711,-0.12307117490987085,17.299687595197174,13.326213905195024,-40.25537348043296
1760597793.1505873,5.470222118561277,-0.012653884634861492,0.957440945826165,-0.12953152906741766,18.572275090246833,14.654156713896427,-40.944971554412234
1760597793.1605914,4.99021726377762,-0.03327986796450964,0.9750178655052029,-0.13236352585167804,19.82886405819843,16.5285010742451,-41.51676874255879
1760597793.1706097,4.489185145460925,-0.05841775668067205,0.9909829655845895,-0.13285599842981297,20.906703883077903,18.46863801082648,-41.7767676224734
1760597793.1805642,3.9735134965929295,-0.08411476744770878,1.0041835146251827,-0.1324619008296935,21.666341851129953,20.021108645650585,-41.55800654367224
1760597793.190586,3.452104149112553,-0.10686449704477537,1.0137779846151445,-0.1325168413468886,22.004850627238312,20.815124545910734,-40.745068048072426
1760597793.2005832,2.9351575010751585,-0.12401552315149322,1.0192666728956905,-0.1340344421984167,21.86579233115585,20.600626869792595,-39.29099323679009
1760597793.2105753,2.432854226079081,-0.13401048292555476,1.0205042039884946,-0.13761789526180337,21.244340591434767,19.265850254798664,-37.2243439428613
1760597793.220594,1.9540984094387217,-0.13645850276155236,1.0176955392134313,-0.14348197427708345,20.186483064857654,16.835133606564135,-34.645989837599906
1760597793.2305882,1.505469935829154,-0.1320526370876896,1.0113714453057931,-0.1515478828975179,18.782117976321967,13.45064205711876,-31.7167772710839
1760597793.2407186,1.0905083673284415,-0.12235338509232473,1.0023378555031746,-0.16156203012675868,17.15291175588253,9.343264448722348,-28.63832346373405
1760597793.2506485,0.7094131598992232,-0.10947313808422053,0.9915965943978879,-0.17319392140629186,15.436697372431603,4.798228408026993,-25.62974851251302
1760597793.2606235,0.3591909563897075,-0.09571333074336508,0.980240808230037,-0.18608131789742147,13.770734933139424,0.12027853702112201,-22.90332782737612
1760597793.2706459,0.034212618742228626,-0.08321674854376199,0.9693346993168489,-0.19980944526126315,12.276245116121402,-4.39796690329625,-20.641939440834587
1760597793.28061,-0.27292338820973694,-0.0736915116547512,0.9597915933929573,-0.2138321522626932,11.046308493831647,-8.50221830029382,-18.980846433331006
1760597793.2905958,-0.5703673676237471,-0.06824031440282981,0.9522654814624647,-0.22736066111106976,10.138606521351207,-11.9961622917473,-17.995801901486846
1760597793.3006656,-0.8659870086219005,-0.06729863483383988,0.9470689653351391,-0.23925497291243433,9.573663107902922,-14.754229093741559,-17.698684605663857
1760597793.3106248,-1.1664532950503292,-0.0706611401604555,0.9441267439121412,-0.24795471381907272,9.338319808747697,-16.727608290982666,-18.040878114527604
1760597793.3206456,-1.4765237125304909,-0.07756453555956097,0.942970564213761,-0.251483839431485,9.393280971066828,-17.94387402345572,-18.923491742223415
1760597793.3306034,-1.798561874915714,-0.08679938070172566,0.9427796768005798,-0.24755790210751766,9.682909394617885,-18.50070289065952,-20.21251582006601
1760597793.340607,-2.1323103859213366,-0.09683715248848032,0.942469151085516,-0.23381098590235125,10.14524489345431,-18.55428621785434,-21.75638813096287
1760597793.3505993,-2.47492735564461,-0.10597104262075879,0.9408249521641368,-0.20813982068593745,10.720520159212088,-18.303233374658298,-23.403377798388586
1760597793.3605995,-2.82129121806614,-0.11247169941178108,0.9366782740429715,-0.16913579228101913,11.35711173768952,-17.96902959618199,-25.016593886183223
1760597793.3705976,-3.164561542139072,-0.11475405264873503,0.9291029412824446,-0.11654585204112014,12.01461393490062,-17.774368875785008,-26.485086650817557
1760597793.3806293,-3.496956704520695,-0.1115458159521237,0.9176108425894366,-0.05167776159935739,12.664323958303452,-17.92087200426919,-27.730242968410685
1760597793.3906095,-3.8106816732133266,-0.10204630108960268,0.9023135609961954,0.02234872697117782,13.287776770840521,-18.567835015870116,-28.707379728452313
1760597793.400626,-4.098917314495169,-0.08606377959999674,0.8840154588345353,0.10059923634144174,13.87408000327019,-19.813760976052883,-29.403045924995244
1760597793.410606,-4.356766812873548,-0.06411691334699239,0.8642066481920695,0.17663919152272678,14.416728312354826,-21.682482144456625,-29.8289960541391
1760597793.4206197,-4.582043944845856,-0.03748107149420205,0.8449364215446296,0.24318260930575383,14.910384664627477,-24.11559565962908,-30.014047453954
1760597793.430599,-4.775787647646222,-0.008159867172715801,0.8285715170294385,0.2930143154186109,15.347880036457429,-26.972619473251054,-29.99507775238359
1760597793.4406633,-4.942409407742528,0.02122815710623158,0.8174784990978788,0.32002554963857105,15.717522259369764,-30.039698844023693,-29.80830675564261
1760597793.4506595,-5.089430201467855,0.047640716665596314,0.8137040514300263,0.320117981767038,16.000866713834846,-33.0469374315557,-29.481817877030146
1760597793.460617,-5.226828957434132,0.06786032375217262,0.8187349885470254,0.2917328068147594,16.17141077151188,-35.69358655146565,-29.030054578634886
1760597793.4707065,-5.366077442682459,0.07877841585901826,0.8333824310414819,0.23589558157154367,16.194941845152954,-37.67937721231933,-28.450766490096633
1760597793.4806328,-5.518959380854532,0.07769966496801047,0.8577722711953,0.15586546375284724,16.032052080917282,-38.73917379497504,-27.72456157404007
1760597793.490611,-5.6962740138169,0.06264972318950396,0.8913839923926381,0.05660003377440833,15.642541041427439,-38.67705462235662,-26.816895143664738
1760597793.5006301,-5.906530708717237,0.032653393439503874,0.9330857367403341,-0.0557701781458696,14.990507243503284,-37.39530752301733,-25.682085859366858
1760597793.510626,-6.154763466208135,-0.012068369488112728,0.9811490370120146,-0.1743650708830925,14.048448315820993,-34.91403718685097,-24.268834738013343
1760597793.5217156,-6.441620601509445,-0.07003506104183432,1.0332651073822277,-0.29188655394796803,12.798910241031031,-31.378211570347972,-22.526698588374582
1760597793.5305927,-6.762890972445202,-0.13860526423468283,1.0866102627622976,-0.4009300502313372,11.233042715714449,-27.050789420297814,-20.4129588431193
1760597793.5407028,-7.109592793918416,-0.21422726381808116,1.138012802582845,-0.49436055903174747,9.34648603190802,-22.292565942633757,-17.89925786438345
1760597793.5506809,-7.4686691885764,-0.29279708792786197,1.1842513323354962,-0.5658043095324488,7.133942252240526,-17.53104265044606,-14.977219046735403
1760597793.5606053,-7.824223867449477,-0.3700644115877196,1.2224642079051025,-0.6102316955095258,4.584321363318639,-13.221752266407114,-11.662076490333527
1760597793.5706236,-8.159124359886736,-0.4420326494243377,1.2505884679769257,-0.6245152408640766,1.6784409062396821,-9.806122905433936,-7.993243461819509
1760597793.5806253,-8.45672799188352,-0.5053106104084663,1.2677145710376234,-0.6077992675029464,-1.6091184723761054,-7.670257771991101,-4.030908419239722
1760597793.59063,-8.702458213812662,-0.5573739047454498,1.274272612952909,-0.5615702873994004,-5.303300177398325,-7.108903307353393,0.15172393959547478
1760597793.60063,-8.884977757811763,-0.5966920231425844,1.2720331038205746,-0.4894384512167621,-9.417674480240601,-8.298287359779936,4.480063420020807
1760597793.6106122,-8.996774146695397,-0.6226930757993658,1.2639489941399795,-0.39673246494526554,-13.941507916737365,-11.280456656684233,8.892144828345609
1760597793.6206944,-9.034087589605832,-0.6355783436101882,1.2538592187543969,-0.2900189179967795,-18.827973629734498,-15.96038645354985,13.35264047285728
1760597793.6306622,-8.996245590954961,-0.6360458847847558,1.246050468601274,-0.1766117819970519,-23.986868658740477,-22.115668034619507,17.8639772740488
1760597793.6406217,-8.884585746197205,-0.6250145417313123,1.2446762942337022,-0.06408887644291332,-29.284536175464098,-29.417222505926507,22.471681760789078
1760597793.6506004,-8.701219936214992,-0.6034414210651958,1.2530726326097457,0.04019716491234505,-34.552345728573535,-37.458489653644904,27.26169803819965
1760597793.660625,-8.447907822231814,-0.5722900732994679,1.2730675965718459,0.12963084937960634,-39.603308269990585,-45.79007922768258,32.348570184381984
1760597793.670638,-8.12526693542067,-0.5326412293592397,1.3044306968164765,0.1988697235732072,-44.25451733692734,-53.95695376216073,37.85491004069614
1760597793.6806386,-7.732462176061243,-0.48587045770990134,1.3446178450107396,0.24437546922240366,-48.35151745794004,-61.53559016892423,43.88434868527846
1760597793.6906376,-7.26740876338405,-0.43378133794820334,1.3889314555949002,0.2648734935261271,-51.789778481659184,-68.16877799285336,50.49198774175763
1760597793.7008626,-6.727414367210622,-0.37859770080063393,1.4311305132754333,0.26162761396303363,-54.52846274250598,-73.59539671645295,57.65781023114673
1760597793.7105978,-6.110101893174252,-0.3227769264727731,1.4644117887678179,0.23837922303726372,-56.592749766042225,-77.67187311331449,65.2689883530243
1760597793.7206337,-5.414409742782715,-0.2686809391919054,1.4825794211607939,0.20083418089670796,-58.06305941540225,-80.38180284836005,73.11605887538099
1760597793.7306347,-4.641466023591842,-0.21820177476957875,1.4811614351402616,0.15573716696778075,-59.05228541630756,-81.83105600232716,80.90552068344961
1760597793.7406266,-3.7951722735935536,-0.1724616424933301,1.4582219829551557,0.10978426993164495,-59.675230269374886,-82.227522047199,88.28811360773128
1760597793.7506416,-2.8823980834724954,-0.13168195882835562,1.4146570084675638,0.06871418843866903,-60.01721433386881,-81.8470258937825,94.89877914309936
1760597793.7606182,-1.9127624917558081,-0.09525116677757302,1.3538773676930722,0.036793078767942085,-60.11012681603273,-80.98949003485347,100.40195251355932
1760597793.7706141,-0.8980438792686274,-0.06195001062112332,1.2809741379634179,0.016681586673599386,-59.92275048363948,-79.93171523973898,104.5348607233245
1760597793.7806234,0.14869251887431753,-0.030250001409378658,1.2016325777726595,0.009531086072815725,-59.36807268830794,-78.88447888466018,107.14192165851868
1760597793.7906187,1.2141317548730444,0.0014003500697566094,1.121107725423421,0.01516016313758325,-58.32516349427299,-77.96132852123222,108.19495626336666
1760597793.8009322,2.2857781603624665,0.03435484862761572,1.0434873757829946,0.03224262783334161,-56.66918681937555,-77.1644195086331,107.7964041552193
1760597793.8108463,3.352918667955179,0.06962465691746794,0.9713286513121742,0.05851127948572924,-54.30157463078606,-76.38958809414758,106.1655178305591
1760597793.8206232,4.407352291526902,0.1077904914942203,0.9056450717848201,0.09100856766507132,-51.17347753297697,-75.44935936826016,103.60998802517832
1760597793.830699,5.4437874250469545,0.14895117312292802,0.8461681455214424,0.1263985590821826,-47.29840323879168,-74.10944980925038,100.48727105860588
1760597793.8406339,6.459859386854191,0.19270367126094445,0.7917921047221803,0.1613202459877918,-42.75315947628334,-72.13205785489451,97.16101472449925
1760597793.8506184,7.455783701945387,0.23816647410388667,0.7411072004059486,0.1927371011820839,-37.66881608874027,-69.31823054453855,93.9584661704788
1760597793.8606107,8.433721786505759,0.284062984602936,0.6929252213739828,0.218232128512644,-32.214936055042536,-65.5420579276291,91.13453695687862
1760597793.8706183,9.396979854714376,0.328870603914222,0.6467031704256158,0.23620556576461857,-26.58077295568974,-60.77128424637345,88.8471909659851
1760597793.8806105,10.34917702729611,0.3710177542446072,0.6027839950634083,0.24594674291692606,-20.95670055847585,-55.07169518238467,87.14706389038429
1760597793.8906145,11.29350088893422,0.4090862810952227,0.5624001469026578,0.24757358785641095,-15.518126981515733,-48.59571097369917,85.98200341840469
1760597793.900624,12.232125768133622,0.441964847914676,0.5274273974651658,0.24186374056400986,-10.41289616979618,-41.55839791678234,85.21492615297294
1760597793.910607,13.165818311237537,0.46891014491883554,0.4999342236944527,0.23002937810399202,-5.752086402226367,-34.206187637126334,84.65138190917125
1760597793.920617,14.093717486032531,0.48950741641181966,0.48163852159073545,0.21349745705452816,-1.6035516196863693,-26.784668630797594,84.07180011460414
1760597793.930612,15.013265752794634,0.5035665974777553,0.4734290401692862,0.19374279963893437,2.012288992441065,-19.511633536842183,83.26282916625418
1760597793.9406502,15.920278578083451,0.5110186364257664,0.47509706239964733,0.172193121651624,5.124177864394947,-12.56001407714801,82.04266355291777
1760597793.950626,16.809146468195813,0.5118685508948034,0.48534943993967955,0.1501974482160927,7.808242197119228,-6.052686047778389,80.27680122492265
1760597793.9606457,17.673151089815956,0.50622749070183,0.5020774433131808,0.1290324233601729,10.181439646874416,-0.06810436552028158,77.88301477783284
1760597793.970613,18.504855919646833,0.49441297751560315,0.5227863534997816,0.10991742964555012,12.389496475702192,5.346765008498314,74.82688045005048
1760597793.9806275,19.296523672696427,0.4770875544913061,0.5450671668067055,0.09401525618524938,14.589764077951916,10.161023235752635,71.1112295198056
1760597793.990692,20.040523295483162,0.45539769667721,0.5670047900542309,0.08240413031980376,16.930712520480487,14.346589125037916,66.76374779629485
1760597794.0006287,20.729708417801447,0.4310744578433223,0.5874506897523818,0.0760160835822489,19.53070892888227,17.870581020601296,61.82652167939909
1760597794.010664,21.357765292302528,0.40646462467536765,0.6061279667667244,0.07554566645585992,22.45899932899976,20.69517291905596,56.3499932445049
1760597794.020619,21.91953559653606,0.38447139215401316,0.6235716865992773,0.08134120041341117,25.721427972871545,22.785218773670543,50.39212752283464
1760597794.0306282,22.411317258233517,0.3683921958068522,0.6409313906515839,0.09329599679726878,29.252619784015497,24.122591408457556,44.02210742620076
1760597794.0406656,22.8311369861658,0.3616492991704523,0.6596770026624232,0.11075815981846589,32.91544016840569,24.72499814091582,37.326820849893444
1760597794.0506432,23.178974995193567,0.36741964665438726,0.6812570985992147,0.13247593507666913,36.50781759906585,24.666005285443664,30.41782877029016
1760597794.0606852,23.456909668700288,0.3881869389141821,0.706760554982597,0.1565942221373144,39.776606166731526,24.092206053060995,23.43634114485361
1760597794.0706277,23.6691428122322,0.42526126979639817,0.7366269832765818,0.18071933879400046,42.43799899188891,23.233058069297872,16.55395853027574
1760597794.0806644,23.8218695198801,0.4783358816943584,0.7704394383189458,0.202071028855709,44.2038513604253,22.399101198107587,9.967580834903657
1760597794.0906446,23.922971117053716,0.5451665479584314,0.806823365389321,0.21773578469788657,44.81290465882515,21.96521601948602,3.887892712213382
1760597794.1006722,23.981530076132607,0.6214556735369492,0.8434753047725605,0.2250181242753518,44.065153681579375,22.33738775178908,-1.4779773276770973
1760597794.1106362,24.007185374198794,0.700998628937487,0.8773450854212946,0.2218582131460385,41.85642639878404,23.904099201610347,-5.947960578888026
1760597794.1206532,24.009362594854355,0.7761153890127366,0.9049806269017521,0.20725400713371528,38.20887546410142,26.976797660866932,-9.38836584703769
1760597794.130608,23.99642755048078,0.8383588067489613,0.9230141109195305,0.18160459947000118,33.29206166085504,31.727301412318052,-11.736366120733985
1760597794.1406395,23.97482890884185,0.8794611742988926,0.928735703073996,0.14688476173415232,27.42927181667323,38.132615776184444,-13.01887628553142
1760597794.1506164,23.948314252838507,0.892441612147803,0.9206744374915758,0.1065714350143695,21.085036542979775,45.938508035713944,-13.364910639747908
1760597794.1606112,23.917319706264173,0.8727407182633646,0.8990842274394825,0.06527765781080967,14.832419787787364,54.651894808878716,-13.008488401849508
1760597794.1706223,23.87863606541124,0.8191856669625327,0.8662226815421712,0.02811202085193924,9.302054080314681,63.568717005911026,-12.279560662373463
1760597794.1806736,23.825434853704976,0.734553735043619,0.826332441794514,-0.000142334434111477,5.118403441771747,71.83883630204963,-11.58154738622414
1760597794.1906505,23.747693611612377,0.6255408918257932,0.7852991292474727,-0.01587342779192751,2.8315234790742734,78.56306130163486,-11.355950019013912
1760597794.200667,23.63300025158251,0.5020656843242587,0.7500368647826805,-0.017328785717713124,2.853758853071291,82.91074141951366,-12.036858829728951
1760597794.2106235,23.467657191512657,0.3759971534644988,0.7276945647838328,-0.004984850580126177,5.409962745689945,84.24109213252902,-14.000458597575632
1760597794.2210102,23.237959274022902,0.2595177611669911,0.7247734064354011,0.018495505861479713,10.507452826053866,82.2090172557254,-17.516302632816622
1760597794.2306292,22.93149023409726,0.16338688214086167,0.7462300496207249,0.0487133910172868,17.928880611932243,76.83729113921547,-22.707792771383307
1760597794.2406425,22.53827486796585,0.09537332551276723,0.7946410814507789,0.08029884235699593,27.247901523710322,68.54137242167249,-29.528648769143988
1760597794.2506382,22.051645416992713,0.05910065880992124,0.8695233862697915,0.10784102620639992,37.8642404194831,58.10017952617256,-37.75987090409455
1760597794.260638,21.46873529531991,0.053501302083133355,0.9669274177008275,0.12681429786483955,49.05220657180059,46.574677482261514,-47.02794181161029
1760597794.270617,20.790592228184835,0.07299586391215579,1.0794281999787003,0.13433556223882578,60.015985818516995,35.184346264597465,-56.840793974671996
1760597794.2806616,20.021982425488982,0.10840109235270101,1.196618287656403,0.12961038399673247,69.94649796551523,25.157809789176007,-66.63488761994003
1760597794.2906404,19.17100949594663,0.14843928626534633,1.3061497852887958,0.11396774977493691,78.07730936311671,17.577285882585738,-75.82567017811883
1760597794.3006914,18.248677265740348,0.18160465098336478,1.3952782540973787,0.09045468420679041,83.7393064834192,13.237261568210592,-83.85486956944494
1760597794.3106291,17.26848271401476,0.1980696128165044,1.4527377217486808,0.06305901985110597,86.41425215404338,12.536470515762941,-90.23081212818495
1760597794.3206637,16.246051425947577,0.1913044996664076,1.4706433749945813,0.035727676698019434,85.785799865793,15.419184232359658,-94.56097544773291
1760597794.33071,15.198752928180124,0.15913006747859146,1.4460175388353567,0.01141741896841348,81.78382971034307,21.376920363626937,-96.57794087947124
1760597794.3406537,14.145183977282603,0.10400074000551694,1.3815269793609033,-0.00856736263927253,74.61519342773046,29.514531530218235,-96.16012381175925
1760597794.3506885,13.104399987116663,0.03242247189971876,1.2851612370771819,-0.024748427455015893,64.7721983451318,38.675091727054244,-93.34743118490222
1760597794.360643,12.09481712559004,-0.04643272078670056,1.1688649765873904,-0.03909292694910779,53.01055867285167,47.60684019011258,-88.3501046934406
1760597794.370622,11.132805353214568,-0.1226428748998736,1.0464550756256692,-0.05419815381997334,40.29195785773214,55.14511463623934,-81.54711106573717
1760597794.3806474,10.23113444253655,-0.18752181319894534,0.931352296524286,-0.07231599394597656,27.6925466584885,60.376534261600646,-73.4691699329749
1760597794.3908389,9.397575815314724,-0.2351614526012237,0.8346515599728612,-0.09453744551883324,16.28610760073237,62.75495869628851,-64.76188080929674
1760597794.4006221,8.634031902859494,-0.26315968841733495,0.7638779491458368,-0.12038303286201982,7.017247355944956,62.149229899896014,-56.127440748258294
1760597794.4106777,7.936503876804782,-0.2724451070449301,0.7225336130401474,-0.1478950299774226,0.5841497310257577,58.81820379532959,-48.249045185802046
1760597794.4206953,7.296015097386552,-0.2663996728932771,0.7103351524377219,-0.17416648869576165,-2.649031245585565,53.32433675308197,-41.70850803376282
1760597794.4306457,6.700344987358219,-0.2496525158010236,0.7239265683346282,-0.1961220455534122,-2.693705212983993,46.40893449718934,-36.91223018390839
1760597794.440659,6.136199531357716,-0.22692406430025816,0.7578318213584425,-0.21131239784663536,0.07649280074310828,38.85753923628164,-34.04106630315731
1760597794.450629,5.591342433132255,-0.20218008054171713,0.8054512897881903,-0.21850191307338912,4.992352918074099,31.382147455981936,-33.03518260583091
1760597794.4606433,5.056266697404937,-0.1781933156195698,0.8599687359313947,-0.21790690795295561,11.196848311345523,24.53913667310325,-33.617038097588306
1760597794.470696,4.52515436943992,-0.15647869328267774,0.915092775659322,-0.2110561483691987,17.773816538389273,18.690512024617043,-35.34689547197652
1760597794.4806676,3.996065346226077,-0.13749801030874606,0.965597736533286,-0.20035582309576333,23.87425185147108,14.004831838891395,-37.698533185452014
1760597794.4906392,3.4704482495576943,-0.12101475764314465,1.0076532337493767,-0.1885104160020451,28.819209869097,10.486283403069603,-40.13984115851164
1760597794.500642,2.9521606354779273,-0.10649182798663671,1.038947590805328,-0.1779622939836306,32.165070693852684,8.017708267838657,-42.20405923652257
1760597794.510645,2.446232855246266,-0.09344307955361388,1.0586260859094159,-0.17047611159419937,33.72588460215314,6.405470854785568,-43.541537213653406
1760597794.5206475,1.9576174630140841,-0.0816708143309735,1.0670820922934448,-0.16693214756844993,33.55613699991993,5.418717325376035,-43.94731071069441
1760597794.5305948,1.4901357125279586,-0.07135202329889823,1.0656517750221597,-0.16732880147068066,31.903519991708148,4.820277266494438,-43.364866131769276
1760597794.5406687,1.0457695387437627,-0.06297752552000395,1.0562672613787558,-0.17094722045703242,29.144362626746265,4.389622809704451,-41.87019931734462
1760597794.5506492,0.6243640887301776,-0.05718883895493321,1.0411201571680453,-0.17661002599005848,25.71445530062369,3.9395275106613314,-39.64229806145966
1760597794.5606596,0.22372116004962758,-0.05458107504605842,1.022378313033515,-0.1829684121270589,22.04588910942069,3.3278098595449204,-36.92662097007205
1760597794.570664,-0.16000102047241338,-0.05553580402375921,1.001984033861227,-0.1887659453479604,18.517202968086576,2.4646101770540794,-33.99742415010979
1760597794.5806377,-0.5316973046799215,-0.0601211264533216,0.9815434836744973,-0.19304305483281547,15.420516329737485,1.3148198214795235,-31.123438683201137
1760597794.5906181,-0.8966487045488346,-0.06806497458666735,0.962299152756283,-0.19526008575926027,12.946115541017063,-0.10495171443137231,-28.539906295042393
1760597794.6006572,-1.2598730634101294,-0.07878670941948222,0.9451635769470677,-0.1953300251067052,11.182540172893388,-1.7350450017970662,-26.428643002380458
1760597794.6106565,-1.6255618676783223,-0.09146407115989676,0.9307850669273183,-0.19356569810833352,10.128691222526516,-3.486364098400544,-24.906724921982338
1760597794.620653,-1.9966481758819699,-0.10511318543308866,0.919616558207113,-0.1905593252995384,9.713793690701525,-5.2573414835638115,-24.023547205660464
1760597794.630762,-2.3745304935908704,-0.11866450495553585,0.9119667376338918,-0.18702235508202186,9.82104540940518,-6.952033170276767,-23.765320181294936
1760597794.6407115,-2.758959737747754,-0.13102440282805977,0.9080243419787126,-0.1836181305967873,10.311284306266396,-8.496911253549124,-24.065482340967932
1760597794.6506453,-3.148079709789085,-0.1411182556488711,0.9078562186876027,-0.1808182465700075,11.043812027756045,-9.85409253279928,-24.819048071632377
1760597794.6606445,-3.5385962028768945,-0.1479158505588459,0.9113849828168356,-0.17880631705697128,11.89245442288334,-11.029185864916778,-25.898658591830415
1760597794.6706252,-3.926040178270752,-0.15044557904005584,0.9183546039603057,-0.17744256385781845,12.755892239741733,-12.072568753102788,-27.170155051089004
1760597794.6808412,-4.305091199441354,-0.14781057843248094,0.9282941643010634,-0.17629152456324848,13.562170087647981,-13.073665471588834,-28.505861472491613
1760597794.6906235,-4.669938474465274,-0.13922462012457792,0.9404916581064968,-0.17470504577309148,14.268025298176607,-14.148641828183305,-29.79438076527596
1760597794.7006657,-5.014672215814944,-0.12408403882290742,0.9539901573763181,-0.17194475543630608,14.854221100744088,-15.422771260165534,-30.946427709218614
1760597794.7106562,-5.333708989946236,-0.10208290972997651,0.9676171128772735,-0.16732309421632127,15.318386054864039,-17.009464993840545,-31.896888978898108
1760597794.7206993,-5.62225489711475,-0.07336408699242075,0.9800539165016935,-0.16034004813136235,15.666947608108359,-18.988514471415023,-32.60379124657068
1760597794.7306511,-5.876798359583515,-0.03868307585427784,0.9899476336615051,-0.1507942117606866,15.907628379612172,-21.386413277073803,-33.0451180675762
1760597794.7406683,-6.095603718011965,0.0004501982814405085,0.9960604301390177,-0.1388518793606569,16.043698372077447,-24.161674033282775,-33.214451027257134
1760597794.7506895,-6.279154451988357,0.041691574853922705,0.9974447479249045,-0.12506592419040438,16.070800147907853,-27.197806631870044,-33.116276575960306
1760597794.7606857,-6.430477929556785,0.0818810729773207,0.9936241030784335,-0.11034557137219785,15.976732154462818,-30.306043154043554,-32.76158121882368
1760597794.770721,-6.555278118889626,0.117184006350147,0.9847519061139404,-0.09588641257440145,15.74411124509759,-33.238940174991704,-32.1641368357223
1760597794.780665,-6.661811206807904,0.14336200943243213,0.9717164113179333,-0.08307478875042633,15.355347696870483,-35.714662646542564,-31.33770489786024
1760597794.7906203,-6.760459802199409,0.15616276380507538,0.9561611801338105,-0.07338041533357638,14.798879507059429,-37.450167778255384,-30.294264687486894
1760597794.8006663,-6.862990660087049,0.15180008307825837,0.9403982407263299,-0.06824607795913529,14.07519961422541,-38.19988343643827,-29.043263695610293
1760597794.8106687,-6.981517054946591,0.1274790430135666,0.9272047069163593,-0.06897573923128272,13.200988531804745,-37.79508616678406,-27.591764697422505
1760597794.8206916,-7.127231791128184,0.08190206330620776,0.9195111307047468,-0.07661613733816937,12.209762889038824,-36.178325041952306,-25.945214071241114
1760597794.8307135,-7.309030220499835,0.015674298996091823,0.9200087281014886,-0.09182558164264086,11.147947483975383,-33.42718677772135,-24.108401400755902
1760597794.8406425,-7.532194969437718,-0.06847944894884951,0.930720275981477,-0.11472913426247837,10.066160637048243,-29.762599839720263,-22.086069952857375
1760597794.8506408,-7.797346972777735,-0.16575910361272123,0.9525937370476073,-0.14477085029090336,9.006645593469464,-25.538663252937354,-19.88263161127426
1760597794.8606498,-8.099863339387518,-0.269631615232479,0.9851853435998016,-0.18058810993196892,7.9889503438946265,-21.213410247899333,-17.50057838075713
1760597794.8706384,-8.429912268209412,-0.3724589440164411,1.026495381650612,-0.21994603703055066,6.996820599222427,-17.302622236524133,-14.937452582727483
1760597794.8806608,-8.773159730384927,-0.4663477909006762,1.0730029232961296,-0.2597760295557305,5.969480726145131,-14.321427733845352,-12.181585680903872
1760597794.8906476,-9.112076693556038,-0.5441124990861456,1.1199192616821063,-0.2963550398641014,4.799876113691496,-12.72065216129438,-9.207207107012081
1760597794.9006736,-9.427649560200383,-0.6002134419332341,1.1616520161103843,-0.325637714189279,3.341216402864211,-12.826461170686022,-5.969965683957297
1760597794.9106593,-9.701207529943014,-0.6315227460573767,1.1924471258577458,-0.3437161246520357,1.4217237802147809,-14.792450755388424,-2.4043695990402
1760597794.9208362,-9.916058235524876,-0.6377768889431447,1.207150664739748,-0.347343698416271,-1.1337628235551234,-18.572628652483093,1.5750385234496247
1760597794.9308584,-10.058676180143758,-0.6216049848944761,1.2020017732999688,-0.3344336462654477,-4.477668968156904,-23.92139447008296,6.067143597530083
1760597794.9407012,-10.119299133131163,-0.5880796401248485,1.1753363043335758,-0.3044345206374725,-8.712289885850321,-30.422585320224393,11.171730603139286
1760597794.950876,-10.091917475195158,-0.5438251290552184,1.1280638050934595,-0.25849862961887166,-13.865232746396499,-37.54436575145298,16.972062153501778
1760597794.9606624,-9.973753676098559,-0.49582176121950866,1.0637955319250487,-0.19939402536906814,-19.872359058917347,-44.711343739735,23.515445518222542
1760597794.9706357,-9.764406059188769,-0.45013759807984055,0.9885520956139138,-0.13116533131898536,-26.572532136953207,-51.38134508091278,30.795695067160942
1760597794.9808471,-9.464871822879818,-0.4108637331559334,0.9100528260779187,-0.058609854857488985,-33.71678964772673,-57.11314653378237,38.74123051211076
1760597794.9906385,-9.076670255472672,-0.3794987923656439,0.8366677441855827,0.01331957782337399,-40.99170709287633,-61.61367929657947,47.211409364367476
1760597795.0007591,-8.601254719579332,-0.35491935551490345,0.7761888109372449,0.08006418153167072,-48.05345795648608,-64.75811697631579,56.00207832523754
1760597795.0106494,-8.039828335453272,-0.33391675835041584,0.7346452463414698,0.1378688442640228,-54.56648084258633,-66.58230210486265,64.85967429711982
1760597795.0206769,-7.3935720901648585,-0.3121318978969773,0.7154218605239325,0.18401216432101566,-60.23967836360103,-67.25238844915195,73.50182013021778
1760597795.0306354,-6.664183788021615,-0.28513452718613036,0.7188863569022507,0.216875246432524,-64.85404030082786,-67.02008383485011,81.64148388578081
1760597795.04065,-5.854551155997675,-0.24940057297352042,0.7425764312951848,0.2359129673192289,-68.27797713418062,-66.17298010585107,89.01153118389811
1760597795.050648,-4.969366240911815,-0.20301793202327983,0.7818241939854504,0.2416025553499648,-70.46939285042838,-64.98845562165948,95.38682205568315
1760597795.0606833,-4.015523466138828,-0.14604206462348182,0.8306135811715523,0.23540667525647577,-71.46578270203842,-63.697286464290336,100.60160176288765
1760597795.0706747,-3.002205795411302,-0.08048825018576691,0.8824881160099919,0.21972055073184243,-71.3652497644562,-62.460246951835536,104.56051283191289
1760597795.080651,-1.9406322776007778,-0.009988047765984144,0.9313804015994228,0.19772417729286526,-70.30242170771989,-61.35834243346853,107.24208083168124
1760597795.093213,-0.8435044901356192,0.06082864974392102,0.9722721083875747,0.1730708903231473,-68.42373258432153,-60.395337523101745,108.69426711398413
1760597795.1006618,0.2757599524873745,0.1271257502983101,1.0016222809290338,0.14941342948730785,-65.86621651272047,-59.50997894851561,109.02288291999352
1760597795.1106372,1.4038907286595408,0.1846862312071802,1.0175433690301552,0.1298603909945879,-62.742909904913326,-58.59460728902405,108.37511218887391
1760597795.1206563,2.528608052741792,0.23060849269650513,1.0197526337803606,0.11651060480432125,-59.1365367522572,-57.516609938019954,106.92140028814939
1760597795.1306288,3.6393490823338137,0.2637359911370187,1.0093570164253556,0.11019184332206328,-55.10167842462011,-56.13940531338404,104.8389179534545
1760597795.1406534,4.727808468220308,0.2847495860336858,0.9885317936455562,0.11045328123426813,-50.674198012580035,-54.34033516724606,102.29873749166033
1760597795.1506472,5.788249315104387,0.29593134909685503,0.9601412845498491,0.1157845945386052,-45.88535606815753,-52.023800234936566,99.4573589873135
1760597795.1606507,6.8175623815685835,0.3006719363127181,0.9273411110283406,0.12399143605655612,-40.77706213743657,-49.12896475574347,96.45193990417148
1760597795.1706202,7.815072133241614,0.30283134362557007,0.8931997129445766,0.13264149509411172,-35.41439586379548,-45.632210882574206,93.3978647704912
1760597795.1806555,8.78211019998277,0.3060740493777532,0.8603753359758478,0.139494685167433,-29.892120413868323,-41.545172112110635,90.38721366472927
1760597795.1906443,9.721399565513432,0.31328660730467267,0.8308781751941009,0.14284264555588738,-24.333368022212184,-36.90957132293882,87.48714861943051
1760597795.20073,10.636314713364468,0.3261573071668577,0.8059368128074113,0.1417056032870591,-18.880646858286454,-31.790225384778534,84.73801330014936
1760597795.2106357,11.530101551779461,0.34496485278720956,0.7859774910477031,0.1358652475041975,-13.68115646272799,-26.267570358470664,82.15172848153405
1760597795.2206619,12.405153004974858,0.36859209994280767,0.7707140939638731,0.12574953950503295,-8.869491700636667,-20.431070397629462,79.71156436023699
1760597795.230635,13.262437580709305,0.394752505090482,0.7593311737913911,0.11222488380584544,-4.550976410982186,-14.37482892325445,77.37437281949649
1760597795.2406435,14.101165123033393,0.42039190467368015,0.7507216856399729,0.09637457635660827,-0.7883812577196118,-8.196296512183025,75.0758337175803
1760597795.250648,14.918744099491454,0.44220703115072396,0.7437265489790705,0.07933062564768152,2.4059690696480898,-1.9980156366639013,72.73841540284083
1760597795.2606912,15.711039473761772,0.45720420003826895,0.7373280301028882,0.062185217390149795,5.071550842802562,4.108797690708144,70.28093963765585
1760597795.2707443,16.47288738710122,0.46321132693784745,0.7307724691663365,0.045967236765847234,7.294274210561034,10.000800727304018,67.6281875567081
1760597795.2806675,17.19877678710604,0.4592629596295805,0.7236249539895793,0.03164939298909364,9.195185486128091,15.541275330707744,64.71900723773084
1760597795.2906947,17.883582113842152,0.44580339845000383,0.7157750404674581,0.02015252052849026,10.914817207384747,20.582712329683485,61.51183646115945
1760597795.3006544,18.523229778877624,0.42468805503218526,0.7074157008853881,0.012326146248740849,12.595226381784316,24.974082826845642,57.98726667766307
1760597795.3106823,19.115200389067525,0.3989966097050978,0.6990127679272027,0.008899300654222932,14.361875279188052,28.572767927943946,54.147993250111405
1760597795.320664,19.65880092547189,0.37269615561123626,0.6912751068569303,0.01040600004512715,16.307307541151076,31.26031832248223,50.01698709841438
1760597795.3306475,20.155179220156928,0.3502052386350178,0.6851281583383374,0.017094445040473468,18.478134190596652,32.960590347616126,45.63487558192106
1760597795.3406823,20.60709165073473,0.33591161421477544,0.6816836245099603,0.028832838758673464,20.86631375715154,33.658322307621084,41.05735459399825
1760597795.350645,21.018470001965625,0.3336918201393943,0.6821865780421699,0.045033113419278036,23.405247918341257,33.41581863281345,36.353057974692405
1760597795.3606555,21.393861188854803,0.34647272545095087,0.6879147795829822,0.06462370090609715,25.970914972760703,32.38511010290192,31.601828335955577
1760597795.3706815,21.73783013465523,0.3758658976199466,0.7000118822308027,0.08610237842733852,28.38815769892513,30.81280739060768,26.892937794012052
1760597795.380663,22.054418416241788,0.42189715704949055,0.7192587397231434,0.10768268936293184,30.44231907080528,29.034920303895376,22.32261356137563
1760597795.390644,22.346737619977617,0.4828483129382469,0.7458178739098211,0.12751937920236925,31.896564934780717,27.45928883062859,17.990236800782807
1760597795.400643,22.61674669612516,0.5552264229279728,0.7790113313736994,0.14397457161868174,32.515146354538714,26.534202408334252,13.992749860562672
1760597795.4106355,22.865219902266684,0.6338773844024586,0.8171990249686952,0.15587514779131217,32.092158202736016,26.703544268592573,10.417102197173996
1760597795.4206452,23.091864759656794,0.7122637683706685,0.8578102219098854,0.16271094611567477,30.483903353373158,28.351411346078386,7.330998104314461
1760597795.4306402,23.295513733047198,0.7829274983488315,0.8975509978740698,0.16473125891075133,27.641086863839526,31.74218590594892,4.7727629449883855
1760597795.4406624,23.474307272093064,0.8381491361116534,0.9327724800210492,0.16291699789588512,23.63541612848448,36.96467302246504,2.7417453102800904
1760597795.4506311,23.62581669551293,0.8707891089183012,0.9599457096870612,0.15883498309520389,18.674515977688113,43.890327325940355,1.1911869742125736
1760597795.4607093,23.74710993152982,0.8752460578875818,0.9761575007296381,0.15440570647542187,13.099878627685381,52.15513745880033,0.025717460884962733
1760597795.4706686,23.834813233271507,0.8483975925693524,0.9795269788901608,0.15162602849696036,7.364883279011997,61.17206550689638,-0.8946998249019018
1760597795.4806569,23.885240810061568,0.7903273725035861,0.9694571692895374,0.15228312215645132,1.9933782350531395,70.17607190080624,-1.7436438832352312
1760597795.4907074,23.89464112489857,0.7046368193848193,0.9466870037472912,0.15768324756730775,-2.4765994694236415,78.29741962975028,-2.7109802782456063
1760597795.500683,23.859554791437464,0.5982165445122133,0.9131742001181811,0.1684131187142824,-5.555495249796464,84.65287762822852,-3.982362431381992
1760597795.5106535,23.777221084907058,0.480486174445253,0.8718768752150892,0.18416176983024368,-6.860407816308262,88.44084191519616,-5.719463905557396
1760597795.5206654,23.64593371214244,0.36224175146363635,0.826495859352712,0.20364632811984051,-6.158158533510108,89.02658120541038,-8.044743307672457
1760597795.5306466,23.465243824267652,0.25432741568352474,0.7812122637192609,0.22468566834915776,-3.3859157845352135,86.00733168626985,-11.033269900673398
1760597795.540745,23.235936493445458,0.1663585025117002,0.7404318871460998,0.24444226562895185,1.3527357584162087,79.25208196135834,-14.712362109398757
1760597795.5506537,22.959755152621323,0.1056828737786837,0.7085384413330726,0.25981198826014434,7.812936191464591,68.91576688469738,-19.068059944985244
1760597795.5609117,22.638905641918903,0.07670225922834455,0.6896558574333198,0.26790111203738953,15.64758880280013,55.43103301505345,-24.0559936742928
1760597795.5706248,22.275427981527173,0.08060396406364473,0.6874149057816102,0.26650568771117344,24.45139586966924,39.48232944775922,-29.613127091350517
1760597795.580642,21.87056889537232,0.11548355235068627,0.7047073268222125,0.2545067206460965,33.801595574350614,21.96700848079553,-35.66640249575641
1760597795.5906527,21.42430899410097,0.17677783374720285,0.7434021956082781,0.23211066074046052,43.289075182078015,3.9469323319236493,-42.13483640844264
1760597795.6007266,20.935186273886153,0.25788607196213037,0.8040085295702035,0.20088993614030595,52.536140123767304,-13.407603403501668,-48.92323810472709
1760597795.610629,20.400510332758127,0.3508468634366178,0.8853005161796869,0.16360751912882202,61.20014166132571,-28.88145257537834,-55.90822214790656
1760597795.620696,19.816985269996636,0.4469619036938913,0.9839705435244593,0.12384153397567034,68.96528581604124,-41.286595625317275,-62.92002967977683
1760597795.6306663,19.181666896546837,0.5373093481247353,1.094422704163902,0.08545887422157832,75.52793857783645,-49.543340497719434,-69.72611950058186
1760597795.6406772,18.493091425988418,0.6131540358424806,1.2088417365490154,0.05201596270866513,80.58297856507428,-52.769966758552094,-76.023754106124
1760597795.6506903,17.752350829828895,0.6663205096710593,1.3176507437212828,0.026184701216656763,83.81950548858892,-50.37683308998587,-81.44827478174948
1760597795.6606607,16.963874597033595,0.6896291959465326,1.4104013464192717,0.009307219526455576,84.93291195992576,-42.15658372919975,-85.60111579364393
1760597795.6706512,16.13572056754989,0.677489433505033,1.4770347116729852,0.0011682856181324543,83.65674747529687,-28.35737326998026,-88.09693728013417
1760597795.6806598,15.279275658341808,0.6266785559476508,1.5093380665067087,3.53926260066784e-05,79.8123511886934,-9.72247143064731,-88.62335524790461
1760597795.6906393,14.408397319537524,0.5372090958669014,1.5023328503393891,0.002959879399735488,73.36805043301212,12.520716529184757,-87.00139742503893
1760597795.7006605,13.538148449802483,0.4130312272037573,1.4552966352130523,0.006277463316526809,64.49448076912459,36.734467114962065,-83.23238607095517
1760597795.7106247,12.683351603387763,0.2622225198610977,1.372160248527884,0.006216920777456217,53.60011374277269,61.00965217403635,-77.51913368294265
1760597795.7207232,11.857192800673772,0.09638010744580496,1.2611408920866767,-0.0004711278728397421,41.33294802921848,83.35858531423929,-70.25580045745225
1760597795.730644,11.070054417283492,-0.07082670638829092,1.1336490663821233,-0.015939444200655874,28.54091434983422,101.937101060969,-61.988885369598854
1760597795.7406836,10.328688516593242,-0.22566329374417834,1.0026811853360431,-0.04080208608833837,16.193107506852446,115.26129114997836,-53.35806048402941
1760597795.750637,9.635793278449828,-0.35638117470857084,0.8810168786042176,-0.07392085083979544,5.273074116966605,122.38152977108405,-45.02767415282182
1760597795.760672,8.99003581238442,-0.4547731678205604,0.7795561082693707,-0.11250646065205794,-3.338921393022845,122.98260218874279,-37.61818852043541
1760597795.770654,8.386552304766624,-0.5168801516067605,0.7060705979410635,-0.15255987163599508,-8.976275585484546,117.39297459893804,-31.643989528628857
1760597795.7806528,7.817915187894417,-0.5428026944118881,0.664533481747161,-0.1895858968584,-11.272417825702425,106.50471770893127,-27.462200174934253
1760597795.7906392,7.2754688852156795,-0.5358516733230975,0.6550616398238952,-0.21942908622545565,-10.210052111178788,91.62316019878975,-25.236957470886
1760597795.8007092,6.750824107657164,-0.5014173349818325,0.674390335307754,-0.23904495652626118,-6.124925849174099,74.27731776232491,-24.924014462924653
1760597795.810678,6.23722301152734,-0.4459124575363103,0.7167231190946628,-0.24703648591692465,0.3380262540020892,56.02584202184792,-26.279809948236736
1760597795.8206477,5.730494756008139,-0.37599899507073353,0.7747683110704694,-0.2438447629839403,8.310841544407847,38.288772150365936,-28.89624257422186
1760597795.8306546,5.229417871421,-0.2981283361384761,0.8407819917223828,-0.2315674696679837,16.81814385157781,22.225170531636348,-32.25760042330284
1760597795.8406708,4.735450751150185,-0.21829740027469755,0.9074755105580832,-0.2134695129450621,24.90379681646085,8.664277276071173,-35.81101063308999
1760597795.85066,4.251931871833473,-0.14188943826375996,0.9686983381617732,-0.19331873489731402,31.748252275679345,-1.9133702132751351,-39.038415683907616
1760597795.8606732,3.782952477782241,-0.07351552222202798,1.0198602637069414,-0.17470322303793706,36.75855972005774,-9.35572284107561,-41.51788284594033
1760597795.8707037,3.332152398620287,-0.016844392233954703,1.0581006864258784,-0.16046496924585207,39.61896502879299,-13.793291838051054,-42.96508478484491
1760597795.8807285,2.9016839344879766,0.025548448094385452,1.0822426085800692,-0.15233659179937037,40.2980373055185,-15.579475185332496,-43.25076919702676
1760597795.8906362,2.4915389515373314,0.052280217741291296,1.0925843291609223,-0.15081414608710167,39.01619985289916,-15.225728005909579,-42.395138240734454
1760597795.9006798,2.099354748727967,0.06319432626859736,1.0905853491381323,-0.1552516196097947,36.18361204790201,-13.336790678059135,-40.543903657860284
1760597795.9106774,1.7207175527206984,0.05932171216688222,1.0784996766974118,-0.16412683811949585,32.32165415616383,-10.549018939169594,-37.932831175358416
1760597795.9206898,1.3498811738829661,0.042758540379187186,1.0590041778235493,-0.17540763342477583,27.981760872497706,-7.4741142734339325,-34.84792938569408
1760597795.9307222,0.9807313378073292,0.016447035777683066,1.0348627613521002,-0.18694310460574176,23.67351720396233,-4.650697346168649,-31.587462757028796
1760597795.940658,0.6077782832307734,-0.016137177434135275,1.0086569785510193,-0.19681515509122166,19.810508531709466,-2.5064019454465676,-28.430168897094923
1760597795.9506547,0.22696973270690124,-0.05135876479834511,0.9825995792920778,-0.2036036210960323,16.678241478739466,-1.3329087096283483,-25.61196049103107
1760597795.9606876,-0.16381865452622138,-0.08580103442447184,0.9584329077849751,-0.20653799628080285,14.4243724139674,-1.2754450625357678,-23.31149637823662
1760597795.9706953,-0.5646623835676692,-0.11658700004643638,0.937402622289961,-0.20552738131606457,13.068199027766504,-2.3369409183966603,-21.643687987777028
1760597795.9807134,-0.9737925248936715,-0.14159592270992372,0.9202904939545954,-0.20107772949517883,12.524270114680757,-4.395547655527752,-20.659589856763496
1760597795.9906695,-1.3880218906705086,-0.15955502256290377,0.9074872446760657,-0.1941212124532965,12.634098470868441,-7.2328803408896984,-20.351074407855908
1760597796.0006843,-1.8032694345737408,-0.1700122824618082,0.8990861918036738,-0.18579445291845278,13.20015635897893,-10.569340194222521,-20.658944765085923
1760597796.0106444,-2.215069337844083,-0.17321311399202705,0.8949797834751205,-0.17720788477364904,14.01731225316391,-14.102328025585326,-21.483436953279718
1760597796.0206668,-2.6189787541681664,-0.16991115321787223,0.8949434714900888,-0.1692464310966294,14.898293737112551,-17.54310602204569,-22.69625012617988
1760597796.0306625,-3.010834530864299,-0.16114579377639146,0.8986949554005575,-0.1624328293379354,15.691306884088606,-20.648489373706695,-24.153295208969087
1760597796.0406504,-3.3868483738648276,-0.14801894268884516,0.9059219798498694,-0.15687144236733813,16.289359620314492,-23.244366734928175,-25.70733603333384
1760597796.0506747,-3.7435663896611446,-0.13150147531222772,0.916278341140323,-0.15227518031543186,16.63198666502891,-25.239120587785195,-27.219705512207785
1760597796.0606852,-4.077747442132099,-0.11229550077078117,0.9293543490486262,-0.1480641780995751,16.700900315756833,-26.626200021364838,-28.57036400806941
1760597796.0706546,-4.386230469469595,-0.09077095204328499,0.9446331050999994,-0.1435142237775038,16.51156563302788,-27.47625141348399,-29.665712997068518
1760597796.0807457,-4.665861237859549,-0.06698466994326661,0.9614466112104942,-0.13792653207312502,16.10279705057673,-27.920224053107063,-30.443743409496964
1760597796.0906575,-4.913535717902852,-0.040779421717845696,0.9789458206125137,-0.13078849985740823,15.52622166694188,-28.125694851838336,-30.87626830220403
1760597796.1006577,-5.1263949744773045,-0.01195067340157815,0.9960968456926278,-0.12189748175909636,14.83697011081875,-28.26931226808909,-30.968171055769076
1760597796.1106439,-5.302179129421987,0.01954029679484577,1.0117124390546193,-0.11142616530145562,14.086412824253646,-28.50873449706227,-30.753796394306164
1760597796.1206512,-5.439717877139312,0.05333762784243425,1.0245238500828853,-0.09991836551540197,13.31729759137164,-28.957649920407263,-30.29081277658757
1760597796.1308215,-5.5395039926173855,0.08848494693881645,1.0332927000526604,-0.08821706430121355,12.561307561832619,-29.667293667576043,-29.65206161346561
1760597796.1406426,-5.604266609942974,0.12328477502256566,1.036955312344377,-0.07734045297438391,11.838810130763761,-30.617212718467897,-28.916058762860235
1760597796.150689,-5.639436650961236,0.15526358736494325,1.0347840834381903,-0.06833344734788645,11.160350622386147,-31.716875345494827,-28.15691616895856
1760597796.1607244,-5.653383391208241,0.18127288649159556,1.026544066625548,-0.06212763187602557,10.529243255832423,-32.81818618080868,-27.434511022965044
1760597796.1706493,-5.657304818776424,0.1977391943762052,1.0126196707961697,-0.05943896593193371,9.944454469406185,-33.73728710215977,-26.78575063671052
1760597796.1806602,-5.664679977699152,0.2010526869686838,0.9940869926937762,-0.060720285365651404,9.402912708965603,-34.28249753719533,-26.217756673215234
1760597796.190875,-5.690242251269129,0.18805719915492794,0.9727118422165135,-0.06616883618348289,8.900462293252218,-34.28418292147162,-25.703713939306844
1760597796.2006943,-5.748508948375639,0.15657741117676488,0.9508616361532675,-0.07577370524210723,8.43093317547189,-33.62198315488373,-25.18199717717047
1760597796.2106464,-5.851997957066599,0.10590017175207311,0.9313303334936308,-0.0893787611686022,7.9832175566022805,-32.24531135545832,-24.559007138527797
1760597796.2206867,-6.00935941409607,0.03712461233348627,0.9170883289873797,-0.10673549664909825,7.5367796500725115,-30.18429451510407,-23.71590656383813
1760597796.230645,-6.223722032835844,-0.0466869895834356,0.9109820837974619,-0.12752650269076196,7.056578815009094,-27.550084597193568,-22.519129239241355
1760597796.240935,-6.491569558223044,-0.14059262236016942,0.9154189657989783,-0.15135221564039048,6.488821956952443,-24.525239326690798,-20.834123740871036
1760597796.2506578,-6.802404053504474,-0.23808418843549148,0.9320780457244768,-0.17768791860759664,5.759122765522167,-21.346177040873087,-18.541291992339833
1760597796.2606986,-7.139326536363915,-0.33159510131069514,0.9616843688726999,-0.20583070405203366,4.774386944054752,-18.28031064476633,-15.55254824334907
1760597796.2706535,-7.4805035675341705,-0.4131483958690516,1.003872803484436,-0.23486271860437152,3.428995475943744,-15.600446200251453,-11.826469582827459
1760597796.2807207,-7.80133025841746,-0.47508706063084144,1.0571531053705598,-0.2636538478947181,1.6147413853935295,-13.558686358442527,-7.379768925351414
1760597796.2907288,-8.07697855593322,-0.5108265952794521,1.1189764001595535,-0.29091365017108295,-0.7671612748834811,-12.361723132386386,-2.292926072038066
1760597796.3008711,-8.284956908876596,-0.5155656838755212,1.18589603913739,-0.3152834550336505,-3.794390229477234,-12.149224419994011,3.291631895838816
1760597796.3106775,-8.407315300829202,-0.4868863821418781,1.253808464415912,-0.33544351122726207,-7.514525009516571,-12.977017376104873,9.179388499358256
1760597796.320911,-8.432206620677162,-0.42517713462551904,1.3182489253269167,-0.3502047207076252,-11.940356339160116,-14.80681036829468,15.140884145573414
1760597796.3306682,-8.354643276896347,-0.33382438326444763,1.374706746770191,-0.35856258936468954,-17.04983214174741,-17.504066927211216,20.93404338103575
1760597796.3406684,-8.176433715498527,-0.219136477924387,1.4189258201423214,-0.35970943321839455,-22.789681104120348,-20.84514350441282,26.328560873144127
1760597796.350772,-7.905409491413981,-0.08997705869705099,1.4471744444947898,-0.35302375860873564,-29.080920752733476,-24.533806870476894,31.128889242583945
1760597796.3607142,-7.554132996535408,0.042908603675871224,1.4564967835389089,-0.33807640434712494,-35.82438072768006,-28.22584103143234,35.19285611295501
1760597796.3706684,-7.138302081452262,0.16788110176896845,1.4449765907468055,-0.3147020053548573,-42.9050013328932,-31.559023978118326,38.44399438828956
1760597796.3807456,-6.675051937194767,0.2736828392336945,1.4120352709454023,-0.28316927962748545,-50.19467826834391,-34.18488536039593,40.87676686107891
1760597796.3906896,-6.181318093702278,0.35090165167667736,1.358745118653347,-0.24443450969960115,-57.554376644294315,-35.79873198414829,42.5545910338577
1760597796.4007204,-5.672389014351357,0.39339570290365333,1.288070772556306,-0.20038167592289954,-64.83666799842773,-36.16527681559208,43.60094190926334
1760597796.4107044,-5.160753791304116,0.39932673353846593,1.2048858828647695,-0.1538785749230215,-71.8894442358976,-35.13826018624338,44.184191513289754
1760597796.4206939,-4.655334310839179,0.37144257265626657,1.1156107021399884,-0.1084956470089701,-78.56051526183235,-32.673249440161946,44.497536104338586
1760597796.4306543,-4.161167108415622,0.3164482249321365,1.0274304240892957,-0.06789292026021848,-84.70190082209417,-28.833204784766547,44.73628668377941
1760597796.4406686,-3.6795585029054485,0.2436208254992208,0.9472365021678515,-0.03508522435365828,-90.17271975237254,-23.786462406805988,45.07554112557065
1760597796.4507272,-3.208678713908515,0.16306411319267433,0.8805596519231512,-0.011873879759297436,-94.84065584799808,-17.79674397773901,45.651360561835844
1760597796.4606802,-2.744496132506399,0.08405119085136481,0.8307641919712798,0.0013682108958264136,-98.58316034600251,-11.205055049496062,46.54784424941103
1760597796.470701,-2.2818988131307036,0.013794535706071217,0.7986833510177922,0.005549511630896374,-101.28996196200545,-4.404210148944714,47.791164531142584
1760597796.480667,-1.8158254039013806,-0.043200921666814524,0.7827520623172112,0.002481483387880548,-102.86779831818292,2.191825444478563,49.350231261824426
1760597796.4908776,-1.3422402889121754,-0.08521118861418654,0.7795681102200449,-0.005550543675663344,-103.24683218524164,8.180122192199304,51.142737778932606
1760597796.5006948,-0.8588298414804763,-0.11290162791061335,0.7847150375274826,-0.016126213543906972,-102.38678704867041,13.198247680413099,53.04510766934704
1760597796.5106502,-0.36535229331063984,-0.12861917928101171,0.7936451189111771,-0.02688797215494484,-100.28043236199746,16.947537007867396,54.90510651511053
1760597796.5207093,0.13637036181154757,-0.13552797337664207,0.8024483620905836,-0.03562746928482595,-96.95303872936212,19.20851925793891,56.5562015748412
1760597796.5306664,0.6427797745200768,-0.13674645658274526,0.8083891779998553,-0.04032421652805031,-92.45818348955937,19.84878662009308,57.83288748115511
1760597796.5407343,1.1491474423452002,-0.13463154920722836,0.8101462945385367,-0.03919542800728806,-86.87177225765792,18.824952990303963,58.5861561896701
1760597796.550679,1.6502707983155342,-0.1303253380595813,0.8077428914922563,-0.03079150894038273,-80.28669000585558,16.180892276869166,58.69819186598585
1760597796.5607502,2.1411828695600033,-0.12362899949266838,0.8022158538664622,-0.01413529322008038,-72.81013069678527,12.044229677890325,58.09527917472417
1760597796.5706825,2.6177752904284928,-0.11320599901482555,0.7951393109868191,0.011132055089124987,-64.56475356503259,6.622219797766873,56.757812351353216
1760597796.580701,3.077264257096097,-0.09705887538505417,0.7881515543268696,0.0446444457414895,-55.69359156648428,0.1968203517781841,54.72614051308346
1760597796.5906696,3.5184558021497563,-0.07317976909215976,0.7826043824041649,0.08526693113097229,-46.36712272683172,-6.882785911894531,52.100810879573096
1760597796.600683,3.9417838642320944,-0.04024174605891264,0.7793773634372078,0.13111384791714878,-36.78939521269193,-14.213172726473616,49.03578863555132
1760597796.6107144,4.349112526665129,0.0018222076966145837,0.7788306808760708,0.17962943770824286,-27.199265365296625,-21.35812543754402,45.72379914486958
1760597796.6206706,4.743325965013994,0.05149823540141707,0.7808449860356056,0.22774609777331353,-17.863323994461002,-27.879776954588035,42.374311708107356
1760597796.630669,5.127774841976431,0.10572632809900487,0.7849076882016713,0.27213793652617907,-9.059093215391613,-33.37729454894349,39.186717576727624
1760597796.640915,5.505689003696881,0.1603045984522181,0.790225477371268,0.3095685955259203,-1.0500619287502881,-37.5273130972971,36.323263519552945
1760597796.650669,5.87968301255994,0.21058092291397074,0.7958538307821454,0.33729859082594504,5.942966072161714,-40.11812721927237,33.88729267455518
1760597796.660769,6.251462618220374,0.2522734757171752,0.8008326447702704,0.35348216145344336,11.768114417079362,-41.07027966097611,31.911620844655655
1760597796.6706696,6.6217905610852945,0.28223313837327085,0.8043124294170352,0.3574668773715001,16.360486563334643,-40.43943201882783,30.359569605545815
1760597796.680681,6.9907040128821745,0.2989870096300473,0.8056590924469108,0.34992500064716336,19.74816560706157,-38.40169112015923,29.13817360541259
1760597796.6906688,7.35791254782586,0.3029642435614875,0.8045347585702867,0.3327854980693461,22.044827393600375,-35.22507030177077,28.120437570575135
1760597796.700685,7.723262074298716,0.2963768878639702,0.8009530468801201,0.3089780923143988,23.43005682497442,-31.232643025944775,27.171923703595997
1760597796.7106771,8.087137772305155,0.28279463594637716,0.7952969868039144,0.2820345778362272,24.120735835744988,-26.76349125817329,26.176560283066294
1760597796.7206903,8.450700337330089,0.2665068943586245,0.788282373001402,0.2556180842865824,24.338862250331157,-22.13726561493848,25.057199650094386
1760597796.7307038,8.815899154239405,0.251800672212422,0.7808605634035977,0.23306270648634614,24.28198309780682,-17.627045861661514,23.78783284853086
1760597796.74069,9.185271359611843,0.24229211526705033,0.7740740574566839,0.21699604169498385,24.101339634924642,-13.443134266643163,22.396155436072114
1760597796.7506735,9.561598804476226,0.24043125789428418,0.7688917784182776,0.20909251000123813,23.890320210447268,-9.727953223294742,20.956981424476947
1760597796.7606544,9.947531960420854,0.2472550352869219,0.7660564274360532,0.20997949358232065,23.683213268130526,-6.560250503611977,19.57843598132504
1760597796.7706745,10.345281421318859,0.26240035816550167,0.7659769879198088,0.21929195167818843,23.462471939716806,-3.9659097401838337,18.383681568382006
1760597796.7807324,10.756428684769594,0.28432836860923527,0.7686931401717084,0.23584147942356098,23.171894462085696,-1.9327460491694366,17.491136076415927
1760597796.7907228,11.181852253877343,0.3106795989364838,0.773920513507765,0.2578451383700812,22.733057469325562,-0.4271606878795504,16.995904773064645
1760597796.8007457,11.621735793533867,0.3386843714158373,0.7811602903439469,0.28316230770394585,22.062714717318652,0.5892194647819556,16.954704016377704
1760597796.8107,12.07562380356247,0.365573184871144,0.7898360111107704,0.3095093300006195,21.08939166978674,1.144969279236562,17.37605097866493
1760597796.820697,12.54249789583607,0.38894629247591833,0.7994140074828204,0.3346436906868331,19.767821481227404,1.2485761332630827,18.21691856707691
1760597796.8306797,13.02085220126184,0.4070667178226878,0.8094712079902276,0.3565189550890987,18.090092090476425,0.884240000341849,19.386296377266415
1760597796.8406594,13.50875193959296,0.41904429014797784,0.8196899445900548,0.3734074465081942,16.092502208719395,0.014510386138535461,20.755110731229397
1760597796.8506713,14.00386843860866,0.42488841423740076,0.8297808672688959,0.38397956566931857,13.857347802620858,-1.410775376117132,22.170882576820055
1760597796.8607092,14.503497649061021,0.42543062679890775,0.8393590721596589,0.38733203452986764,11.509313687068884,-3.440829432384291,23.474651079682797
1760597796.8706534,15.004586006765363,0.42215058020793983,0.8478184527651558,0.3829758268921318,9.20677556195807,-6.107684471377927,24.517387647716035
1760597796.8807113,15.503799947226842,0.4169619491580037,0.8542584162495024,0.3708109940654199,7.128936069864794,-9.409674063302399,25.17349510531358
1760597796.890668,15.997670273940265,0.41201003874549263,0.8575119793929727,0.3511120622687407,5.460189763910383,-13.296656217257036,25.349840393551098
1760597796.9006827,16.482811912163843,0.40950346322277564,0.8563038371335999,0.3245280016062654,4.3734441983122,-17.658565668394655,24.989730387833678
1760597796.910669,16.956171832609694,0.4115685679153962,0.8495340604562481,0.2920825605699402,4.0143463671791375,-22.318379247851777,24.072005444792268
1760597796.9206917,17.415216560501154,0.42009705177343243,0.8366461556578543,0.25515464051751713,4.488406346984013,-27.030145516977274,22.605907182676702
1760597796.9306855,17.857959771453153,0.43656154476003073,0.8180080522670202,0.21542382304057,5.852745057664615,-31.482426468820766,20.62265862540117
1760597796.940673,18.282758756406306,0.4617941950819607,0.7952187839817142,0.17477834524295954,8.113543704756307,-35.30731985182938,18.16489324021479
1760597796.950708,18.68786514366923,0.49574679932804216,0.7712549650753969,0.13519549032257103,11.229275639222076,-38.09512788899759,15.275243466612212
1760597796.9606817,19.07077973886906,0.5372680339126136,0.7503885449398314,0.09861045684630008,15.118629621136042,-39.414659757834016,11.985551577466138
1760597796.9706686,19.42751571180902,0.5839410181393996,0.7378374710465657,0.0667861015715734,19.671017411504796,-38.83906240122518,8.308263183078958
1760597796.9806876,19.751906854393617,0.632023576144551,0.7391501960283743,0.04118785959269982,24.757098576941434,-35.97692809112257,4.231518800721157
1760597796.9906807,20.035102065301903,0.6765264065338802,0.759370055177185,0.02286502444211881,30.23704904315735,-30.508144303740437,-0.28084114638440155
1760597797.0006747,20.26536427535441,0.7114542636251879,0.8020726268717938,0.01234464202383526,35.96517354979176,-22.223386277331294,-5.28372617906475
1760597797.0106933,20.428249721083592,0.7302238741756047,0.8684135730602947,0.009552252806596752,41.79055484299148,-11.06517634946356,-10.839841456572403
1760597797.020696,20.50719360235132,0.7262568407178768,0.9563597422191669,0.013777722049873466,47.55446757230984,2.832928088420346,-17.004291034624814
1760597797.0306797,20.484481935238627,0.693722313742513,1.060292562392144,0.023701421875458137,53.08612450291473,19.11395258036241,-23.806437541867627
1760597797.0406773,20.342553924906586,0.6283734414954495,1.1711565496461365,0.03748680108997773,58.198901940597025,37.17808356087258,-31.23125880281936
1760597797.0506885,20.06555385721464,0.5283880946861222,1.2772652765930392,0.05293158466876864,62.68947660837967,56.18288941041691,-39.20273514445299
1760597797.060679,19.64102829967259,0.39509278383274427,1.3657685013199377,0.06765352980593048,66.34225531690008,75.0693728363729,-47.57187447284845
1760597797.0706818,19.06163527909014,0.23342618108447702,1.424634800265516,0.07927496707754308,68.94099734865607,92.6182149825822,-56.111864686863164
1760597797.0806875,18.32669748170181,0.051998564451224444,1.4448359443416716,0.08557604170011483,70.2884773404268,107.53717646855378,-64.52246948531035
1760597797.0906885,17.44340090106227,-0.13736102596361696,1.4222744085582668,0.08461416384764868,70.23330343138626,118.5757940202709,-72.44503389391147
1760597797.1006746,16.427427015268268,-0.32060536982000604,1.3589394671031874,0.07484048177469355,68.70064285048926,124.65790667124985,-79.4882683040165
1760597797.1106791,15.302823733132188,-0.4829542382682018,1.262883462556343,0.05525576214264013,65.72102801146494,125.017076549406,-85.26337953255927
1760597797.1206827,14.100979522402351,-0.6106939959357385,1.1469016915129004,0.025621706354545953,61.44953983369419,119.31564324628364,-89.42533140508498
1760597797.1306868,12.858672380069295,-0.6930253481554481,1.0261905082239287,-0.013310357531506176,56.16766246295725,107.7263008726219,-91.71537263078089
1760597797.140676,11.61531381313354,-0.723632153106269,0.9155776458822019,-0.059640139150759816,50.26274304447083,90.95733930065217,-91.99872432835315
1760597797.150685,10.409670921250292,-0.7016500142667352,0.8270238238391714,-0.11032591473551537,44.1850669251213,70.21001115552693,-90.29071579799809
1760597797.1606684,9.27648193008414,-0.631811232932157,0.7679583486899251,-0.16142173315736363,38.388720633570294,47.06795074627888,-86.76518483458446
1760597797.1706808,8.243434975594914,-0.5237249778057996,0.7407142845491532,-0.2085437610518405,33.26753724884752,23.33130468434409,-81.74122789474517
1760597797.1807237,7.328931117712177,-0.3904591520276586,0.74299881622255,-0.24749647487441254,29.099599128838488,0.8188613275646467,-75.64846191860481
1760597797.1907995,6.540912398571699,-0.2467369086150539,0.7690879430995359,-0.27493492504922623,26.012271270679307,-18.832366138164854,-68.97585008831318
1760597797.200688,5.876848817736173,-0.10709258419489134,0.8113348470516828,-0.28891550611473205,23.9750412186396,-34.34003784035624,-62.21308638096213
1760597797.2106783,5.324798001960886,0.015734191098234106,0.8616230437423675,-0.28920476622608066,22.820819798704267,-44.89696008907921,-55.7950143704881
1760597797.2207112,4.865315958996929,0.11199140735475727,0.9125230568385072,-0.27727187236367296,22.289621325115576,-50.224267016318706,-50.05823898425497
1760597797.2308695,4.473919896467466,0.17561375597293,0.9580561429061862,-0.2559707114232685,22.08370532697505,-50.555090937835004,-45.21583864649626
1760597797.2406595,4.1237805070347555,0.20441769056934,0.9940801435938095,-0.22899719875826158,21.921745468455086,-46.55860599410873,-41.35216538936681
1760597797.2508907,3.7883410900776457,0.19983695968135187,1.0183704441005417,-0.2002571237719001,21.581522760014927,-39.222937453524764,-38.436071954109515
1760597797.2606742,3.443614661547517,0.16629043799795093,1.0304794083924356,-0.17328290569644586,20.924902032814344,-29.718829543206002,-36.348026295417505
1760597797.2706776,3.069988344258586,0.11031426872819301,1.031442552752641,-0.15080126566478286,19.903770561595238,-19.26431139488995,-34.91478130121871
1760597797.2806687,2.6534532430900626,0.03961282040738653,1.023383018531577,-0.1344996500154985,18.549734356344203,-9.005613902963926,-33.944825189500946
1760597797.2907858,2.186257910218525,-0.0378271085099815,1.0090608344686196,-0.1249863216485265,16.952871871133652,0.07648439555914834,-33.258802841146334
1760597797.3007061,1.66703387490779,-0.11446145961805229,0.9914180606539136,-0.12190048911322375,15.235624378075375,7.231072187619386,-32.71113829572036
1760597797.3107276,1.1004537809977442,-0.1837219671285281,0.9731739289414182,-0.12411303938159654,13.527315931888795,11.97223109439342,-32.20153880005216
1760597797.3207767,0.4964696765115469,-0.24037707527084443,0.9565159681311607,-0.12996420327894903,11.943382878322417,14.086938646641997,-31.67719370457387
1760597797.3307467,-0.13082936974632176,-0.2807553332426784,0.9429133534051878,-0.1375006818459192,10.571667047424421,13.618812355328993,-31.12780564381181
1760597797.3407145,-0.7646799992621182,-0.30284872485252157,0.9330549072648789,-0.14469043837039322,9.466462810171024,10.831346507014121,-30.576012584961976
1760597797.3507428,-1.3873152999608227,-0.3062888522366054,0.9268952197960466,-0.14960572320764287,8.649603358736409,6.155036003089018,-30.065537668760438
1760597797.360756,-1.9816717731160831,-0.2921820324149093,0.9237829757750905,-0.15057594875067953,8.11680829139664,0.12387577315072551,-29.648943486308266
1760597797.3707454,-2.5329282967574973,-0.26281075840383156,0.922645048272445,-0.14632127477669832,7.84686624118712,-6.69204806186149,-29.376450980658102
1760597797.3807743,-3.0296936024303065,-0.22124781878175195,0.9222037332549422,-0.13608005393128703,7.811082565649356,-13.75030751606643,-29.286926506832224
1760597797.3906798,-3.464733981041021,-0.1709606503445965,0.9212073029203375,-0.11973299930617375,7.980807021728071,-20.588755974533235,-29.40170148465251
1760597797.4006717,-3.8352338098722853,-0.11548640473020913,0.9186528828094326,-0.09790587665232268,8.331647026159363,-26.86095899071404,-29.7213168607695
1760597797.4106708,-4.142665544377674,-0.05823030444006057,0.9139766474991938,-0.07201323340517324,8.84392759230414,-32.350954646855826,-30.224725940397764
1760597797.4209702,-4.392384095780774,-0.0023955751420795157,0.9071834321820961,-0.04420183541191727,9.49983390838815,-36.96713637243162,-30.870152824387407
1760597797.4307024,-4.593050794426118,0.048988973839614425,0.8988897792174023,-0.017166267606644362,10.27830002014693,-40.718354371024944,-31.5967854698703
1760597797.440687,-4.755951618519806,0.09300531887590732,0.8902628575048419,0.00616646430281469,11.14900432481939,-43.678041223268096,-32.326738312897724
1760597797.4506745,-4.894226943231453,0.12681586001004236,0.88285308093602,0.023055888702846344,12.066787643789786,-45.94378088113778,-32.9671423103721
1760597797.4606774,-5.021997894983676,0.14772337134903582,0.8783416232405703,0.03140597877696334,12.967511523859095,-47.6000050598198,-33.412687648706715
1760597797.4706647,-5.153372724374221,0.15335022964080477,0.8782551371966222,0.030158099792551237,13.76603680195595,-48.69046533033339,-33.54931434731645
1760597797.4806535,-5.301348630813629,0.14192837418522053,0.8837274460692192,0.019494421987323325,14.356842299126818,-49.20505676396161,-33.259862968321464
1760597797.4906752,-5.4766759490801995,0.11265207955666384,0.8953836907618559,0.0007613459737131287,14.617791285480932,-49.08281545480986,-32.432238170893
1760597797.500683,-5.686795410132823,0.06601324224046314,0.9133676209417433,-0.023876080527118395,14.4173610077665,-48.22989636964925,-30.969983308727297
1760597797.5106742,-5.934975815522726,0.0040216677804140845,0.9374554849292109,-0.05192351349879033,13.625009918523203,-46.54858420040132,-28.804263229558345
1760597797.5206716,-6.219771411113845,-0.06978248428895056,0.9671575872825042,-0.08101957127825579,12.123471572102554,-43.97147009121238,-25.905402108068643
1760597797.5307288,-6.534897282610847,-0.1505842456947177,1.0017272165036675,-0.10924076442555632,9.82123253214127,-40.49424814563898,-22.291639348264262
1760597797.5406678,-6.869588626317124,-0.23281661824919722,1.040056469540987,-0.1351970248041927,6.663686515072876,-36.20118427630712,-18.032828907224147
1760597797.5506928,-7.209457694330784,-0.31087491038024,1.0805071964625403,-0.15794039712423724,2.6421862299578156,-31.278840757892777,-13.247403167161226
1760597797.5606709,-7.537787221606438,-0.37988353106320705,1.120775418784103,-0.17676689331655462,-2.1993112515794446,-26.01559826854918,-8.091915819379592
1760597797.570667,-7.837110653703285,-0.43634710746625455,1.1578990851339144,-0.19101591196693435,-7.760544593230068,-20.786505155593844,-2.74370217596445
1760597797.580685,-8.090848452722986,-0.47853433332412304,1.188490108165241,-0.19995029592356905,-13.885365729312383,-16.024780001577625,2.6215251854803734
1760597797.590677,-8.284723988073637,-0.5065040084774471,1.2092157367375822,-0.20274695486995045,-20.36772883322826,-12.182784871364758,7.854179027766733
1760597797.6007037,-8.40770004097044,-0.5217738911839672,1.217482131053134,-0.1985748919320133,-26.96414795689991,-9.686428961401088,12.853609892448699
1760597797.6106994,-8.452272072867249,-0.526726711462341,1.2121932385833267,-0.1867093526663494,-33.412259165201384,-8.887755419340522,17.585177558632367
1760597797.6206856,-8.414109852784872,-0.5239138945874463,1.1943939359083742,-0.1666338823138218,-39.453683848921415,-10.020911767282676,22.088046726828455
1760597797.630683,-8.29120507116688,-0.515437988594197,1.167590700083756,-0.13810631886696914,-44.85825035212394,-13.166814638834316,26.47145922122146
1760597797.6406963,-8.08280315439341,-0.5025673328992795,1.137590694791261,-0.10119389548877855,-49.44604475056925,-18.231585734662932,30.898965440557355
1760597797.6506884,-7.788439168321504,-0.48566913270504497,1.1117969264182244,-0.05630372153263926,-53.10383508024667,-24.94313528706766,35.56187326726793
1760597797.6606767,-7.407355386075062,-0.46445292000779315,1.0980166828638926,-0.0042401996938127365,-55.793153493237256,-32.86880284051081,40.6448323656372
1760597797.6707296,-6.938465285347306,-0.4384169122813922,1.102959024374175,0.05369354919372339,-57.548592704766044,-41.454435480306586,46.288047979702014
1760597797.6806827,-6.3808718610445965,-0.407320365997105,1.1306929706780313,0.11556490470218185,-58.46638771346832,-50.08178142042802,52.55199913637795
1760597797.6906838,-5.73478658014387,-0.3715042422159879,1.1813919498899323,0.17870382897000406,-58.684798589570825,-58.137285761096535,59.391268002891564
1760597797.700666,-5.00257616858653,-0.33196033069751196,1.2506890674825122,0.23969751688594174,-58.359028358622616,-65.08232874089975,66.6435495229813
1760597797.710686,-4.189627652428553,-0.2901654368567007,1.3299025368795006,0.29457015381482543,-57.63437330019424,-70.51362832804236,74.03773318781681
1760597797.720667,-3.304780470116552,-0.24778692548487052,1.4072491240521507,0.3391973168152997,-56.62189189610889,-74.20358065742892,81.22139959873995
1760597797.7306786,-2.360199944915249,-0.20638706060294043,1.4699352348491799,0.369930202207407,-55.38079982006412,-76.11374050033427,87.80409593980801
1760597797.740672,-1.3707018322671398,-0.16720942004414163,1.5067226936937241,0.38430119198036644,-53.9108249967317,-76.37968908314586,93.4095155375747
1760597797.7506838,-0.3526364230696911,-0.13105818982686207,1.5103137076619069,0.381596883275267,-52.15604218016898,-75.27097655519613,97.72798415261408
1760597797.760713,0.6775044916169469,-0.09823174261275949,1.478863803814619,0.36308762533585137,-50.0197139983582,-73.13441677116676,100.5605797506946
1760597797.7706735,1.704566082679558,-0.06847897863505815,1.4162132234264169,0.3318195100716491,-47.3877758779311,-70.3317462994638,101.84757118390219
1760597797.7806842,2.716090728873917,-0.04099128317310059,1.3308889960382866,0.29203979024003834,-44.15700335291175,-67.18299783822725,101.67646409833236
1760597797.790705,3.70336671406314,-0.014471104107940723,1.2342878320038595,0.24843846883446433,-40.262838872769706,-63.924971360189716,100.26847889801907
1760597797.8006983,4.662011293117721,0.012696302107153461,1.1385533077786576,0.20540512032532185,-35.70169807962884,-60.690535462009684,97.94603654960417
1760597797.8106976,5.591999282210475,0.04217956609760335,1.054581134698995,0.16644972791110485,-30.54353892823732,-57.51006471621625,95.08689714704572
1760597797.8206844,6.497129395447159,0.07539260909856972,0.9904528696823035,0.1338644019171665,-24.932389355804048,-54.33208822018776,92.07241117801249
1760597797.8306923,7.384005049591065,0.11320604657962893,0.950470643499386,0.10863814453087717,-19.074845268586806,-51.0569891085134,89.23779678595106
1760597797.840679,8.260680963899645,0.15574330001967152,0.9348528038058022,0.0905917600968391,-13.218621443632,-47.575806219493586,86.83160891942603
1760597797.8507059,9.13517841343151,0.20230539331780384,0.9400570239348882,0.07867192848501942,-7.624660403858845,-43.8059773112768,84.98986981286632
1760597797.8607013,10.014090498450415,0.25143436409687514,0.9596275591226403,0.07132475268348927,-2.5370220052000714,-39.71714554626791,83.7279610787543
1760597797.870688,10.901480284530713,0.30109154690199835,0.9854149834039773,0.06686380928067212,1.8451345105554204,-35.34264761919517,82.9506271293725
1760597797.8806922,11.798221781665532,0.34890704880005274,1.0089825087541802,0.06376503102689939,5.3896829630569565,-30.775536490177025,82.47762836618294
1760597797.8907042,12.701855549055866,0.39245623852459055,1.0229832218055324,0.06085456027035124,8.045044657956028,-26.151363124943597,82.0800716667569
1760597797.9007046,13.606942758993966,0.42953276107171384,1.0222708867921886,0.057388910638135344,9.843691805601646,-21.622751972338754,81.5206711505956
1760597797.9106975,14.505822835393092,0.45840058559655966,1.004531903469285,0.05304980472899721,10.895562391691769,-17.332301521465467,80.5906878036884
1760597797.920686,15.38962547520345,0.4780051695253141,0.9703384965057756,0.04788718113384805,11.372508659465574,-13.39003901196692,79.13746740518322
1760597797.930692,16.249364234995813,0.48810887123233004,0.9226893819376759,0.042241777436302634,11.486003456581004,-9.859759115438543,77.07912978516369
1760597797.9407096,17.076944910277927,0.48931167187590935,0.8662270275521853,0.03666631093400982,11.461202210912104,-6.755918103665657,74.40607961911743
1760597797.9507074,17.86595264437133,0.4829427839151803,0.806347323039251,0.031850567972973656,11.510871562950541,-4.05025967486179,71.17148751595423
1760597797.9606736,18.612129396534932,0.4708503385347469,0.7483755430176833,0.028547564090607103,11.812534366883122,-1.6855513362041459,67.47423519945163
1760597797.9706845,19.3135090086156,0.4551473452079446,0.696917688875395,0.027495712339720424,12.491481310153949,0.4071780564398603,63.43821994985896
1760597797.9806983,19.97023167408675,0.4379773444705625,0.6554341326768431,0.029333576499395348,13.611185701472817,2.2917781842286282,59.19173697456955
1760597797.9907188,20.584105068947434,0.42134720096011236,0.6260364605606592,0.03450865002233548,15.17135693484069,4.014036286309606,54.85009849819766
1760597798.0006912,21.15800953096966,0.4070483275895076,0.6094833381107307,0.04318976915749143,17.11268724204772,5.5953658225199785,50.503779312485996
1760597798.0106823,21.69525651853815,0.39665917343701307,0.6053403882125457,0.0552015427187943,19.32653649043792,7.034654652768335,46.21330248037487
1760597798.0206647,22.199004082546356,0.3915973262965404,0.6122611905560321,0.07000084640573191,21.667460575040913,8.318446967990674,42.01093177336113
1760597798.0306954,22.671813651915162,0.39317509979520066,0.628335883980695,0.08670352734888877,23.966612009935275,9.438256838497805,37.90813777787724
1760597798.0407593,23.11540268146513,0.40261072590336283,0.6514441152045587,0.10415127264726715,26.04458364217805,10.412491333668397,33.906871856627845
1760597798.0507057,23.530611330061976,0.4209575184049377,0.6795486385432059,0.12100264919912541,27.72312832136598,11.30922667982186,30.01205322904259
1760597798.060713,23.917563372771426,0.448933831903079,0.7108804109674032,0.13584443604501537,28.836120155632354,12.265071251923494,26.24245283049864
1760597798.0706944,24.275967444386367,0.48666399535776034,0.7439944846804973,0.14733134865409306,29.24074240258033,13.494907945124938,22.637371930015142
1760597798.0807428,24.605477816876775,0.5333689255915328,0.7777105122426483,0.15435518293912825,28.8298841142704,15.287807823773566,19.257138398399675
1760597798.0907063,24.906015843954837,0.5870690035465653,0.8109808359297271,0.1562224934311055,27.546080545506726,17.985978144868636,16.176429003365115
1760597798.1007187,25.177947773023515,0.6443779059984984,0.8427442934823697,0.15280275716758793,25.396288481645037,21.94608748593286,13.470684916333726
1760597798.1107166,25.422030317447803,0.7004734440650408,0.8718231347073641,0.14460969430985288,22.465670521167993,27.485379591672967,11.197278873484029
1760597798.1207862,25.639080489774628,0.7493266278127746,0.8969060633222387,0.13279478215364518,18.92761814109649,34.81828190254266,9.37443355655426
1760597798.1307666,25.8293988992561,0.7842439053171132,0.9166343564539952,0.1190531681930893,15.046641284943803,43.99231977510882,7.9619594206134385
1760597798.1406703,25.99205912350789,0.7987189562919482,0.9297729562579158,0.10545904926520712,11.17069373201465,54.834505811929375,6.848412308809223
1760597798.150717,26.124242374783456,0.7874987159885055,0.9354150803971951,0.09425516725981362,7.710312215101933,66.9201955446267,5.848990365452669
1760597798.1607409,26.220819071345883,0.7476666532845548,0.9331577623743187,0.0876168486369217,5.1039593795113545,79.57476327924707,4.717158161021052
1760597798.1707268,26.274342951160634,0.6794837408999569,0.9232090578875289,0.08739994118641356,3.7721116497019187,91.91379484891695,3.17051965289221
1760597798.1807256,26.2755366579269,0.586751310334145,0.9064285517322839,0.09487930505347897,4.0661023270543595,102.92033442960818,0.9281381990600909
1760597798.190715,26.21423531625475,0.4765744747567767,0.8843286685443409,0.11050089281803253,6.220237041835864,111.54990362114333,-2.2468816762459403
1760597798.2007189,26.08064624926579,0.3585603321289239,0.8590614440745972,0.13369551644349548,10.316214078374681,116.84803871628739,-6.507959162070887
1760597798.2107232,25.866704439318028,0.2436126297767142,0.8333951086703136,0.1628139199627276,16.266971399954915,118.06291893159559,-11.897082971248286
1760597798.2207189,25.567273347699263,0.1425446374336318,0.810662350894343,0.19522950805945372,23.822981526705796,114.7376585048454,-18.33404145030421
1760597798.2307122,25.180967093842952,0.06473144814165557,0.7946454595454694,0.22762133311145352,32.59889109877563,106.77168067241767,-25.624352692787856
1760597798.2407057,24.71044526034093,0.016987513349508824,0.7893565864064295,0.25640646881817236,42.11416857806551,94.446220815311,-33.483308790051176
1760597798.2507143,24.16213547905364,0.0028007854436421778,0.7986789886906842,0.2782512889769184,51.839581453274675,78.41384859129766,-41.57072908337234
1760597798.2606754,23.54544749748895,0.02198919674535221,0.825862647686738,0.29056846193862806,61.24192369398068,59.65532705221465,-49.529757984641584
1760597798.270712,22.871634551893624,0.0707799324255234,0.8729127672914523,0.2919062822817541,69.82139548454123,39.409161229491026,-57.02309142896002
1760597798.2807019,22.15251655735064,0.14226049822078773,0.9399586965380076,0.2821568606061206,77.13840059725267,19.08008359525961,-63.7611297120367
1760597798.2907045,21.39929355886901,0.22712020970264063,1.0247278643588653,0.26254369525223564,82.82894826611478,0.1327775765030924,-69.51860669253041
1760597798.3007057,20.62164540353808,0.3145908288003413,1.1222641669785052,0.23539071003415724,86.61032463394909,-16.02321528374543,-74.13898734470598
1760597798.3107,19.827243931928813,0.39350070865506304,1.2250179653695772,0.20371714513553904,88.28090536280843,-28.151540139114697,-77.52879513420694
1760597798.3206677,19.021714404627797,0.45337092294553105,1.3233939364259608,0.17073671370450452,87.71917607247522,-35.30329280447243,-79.64624181714368
1760597798.330729,18.208994031620062,0.4854941187893819,1.40677363028699,0.13935500051854788,84.88662247012239,-36.91875530526006,-80.48937804208785
1760597798.3407066,17.39196612880868,0.4839344319611795,1.4649328600579214,0.11175083514050983,79.83714556392479,-32.905181765120915,-80.08814430803089
1760597798.350724,16.57321007018374,0.44636047682875346,1.48965949608612,0.08909880302115677,72.7325173781655,-23.677077770280892,-78.50244417403746
1760597798.360699,15.755700665203891,0.3745758919339546,1.4762721219500015,0.07145483155295178,63.85984583183894,-10.14560861470716,-75.82554892280707
1760597798.3707042,14.943307589294893,0.2745677400634639,1.4246875015208151,0.057806254372741506,53.64403604258098,6.351995884778892,-72.1899688955186
1760597798.3807216,14.140976207106746,0.15590234505505285,1.3397295135878888,0.04629123813204258,42.646899841769546,24.183333093528542,-67.77233744131108
1760597798.3907223,13.354514473250914,0.030413008966260178,1.2305331841142673,0.034594001762353485,31.54567414264788,41.60018156563291,-62.79484359867536
1760597798.4006646,12.58997760852863,-0.08965461573187167,1.1091366222905679,0.020482046786723145,21.08739151239764,56.94223566829271,-57.5221373947111
1760597798.4107034,11.852742462886528,-0.19363379319079507,0.9885772267526719,0.002374096582013806,12.021049595340589,68.83280106332813,-52.25298489595905
1760597798.4207098,11.146481589716004,-0.2740418602734815,0.8809222728667377,-0.02022744012276643,5.015330659428713,76.33288224953746,-47.30514326401896
1760597798.4306908,10.47233555465681,-0.32737623622786877,0.7956353132441445,-0.04658378691626522,0.5740607059278166,79.02732139066514,-42.991512674761246
1760597798.4407017,9.82858337256977,-0.3539606918455841,0.7385459894344585,-0.07489822513787649,-1.0363581259651524,77.03074676047662,-39.58729398479498
1760597798.4507105,9.210995479193738,-0.3570239519944376,0.7115189894734931,-0.10276622570861259,0.16616797714399495,70.91811097113019,-37.29170663111001
1760597798.4606962,8.613847213980977,-0.3414045201175301,0.7127644958869906,-0.12776206199603768,3.868984740905835,61.599573757016465,-36.19206232666561
1760597798.4706917,8.03135164783439,-0.3123064938828145,0.7376274685344333,-0.14800484295812286,9.496123489104763,50.16842504466274,-36.2402642674566
1760597798.4806747,7.459130847225351,-0.27440875046225743,0.7796429241143888,-0.16256687535915723,16.2796613147684,37.75184112784438,-37.25043114225782
1760597798.4907143,6.895338878516527,-0.23143841836573506,0.8316426838622473,-0.17163126255338948,23.360926671246958,25.388055350488354,-38.921296509695814
1760597798.5007234,6.341166102620063,-0.18614816218931232,0.8867351794025666,-0.17636779121755228,29.904711354708144,13.942665849287739,-40.880107133720806
1760597798.510714,5.800630524400303,-0.14054205345148046,0.9390403953074205,-0.17857154262616967,35.206432469566344,4.065280608110762,-42.73872598209463
1760597798.5206707,5.27973173295985,-0.09618473162954612,0.9841309363417801,-0.18017630365767084,38.77374218809282,-3.820792712631215,-44.149826289050175
1760597798.530712,4.785167009393483,-0.05447344058859546,1.0191920398840175,-0.18278566366480867,40.37006667283707,-9.506715193362899,-44.85212466434952
1760597798.5407205,4.322874504954236,-0.01681169275416644,1.0429556168214607,-0.1873448638006195,40.016119874491245,-12.974206258074371,-44.69756327460019
1760597798.550723,3.8966771692645104,0.01533219893854523,1.0554795034717455,-0.1940178568092868,37.954026834727514,-14.366270930055641,-43.65837554387653
1760597798.5606945,3.507264944802179,0.04047648847400722,1.057837463279104,-0.20226504477908536,34.585068725610725,-13.955613795201215,-41.816343104841756
1760597798.5707512,3.1516865310611135,0.057272038983289926,1.0517723629365288,-0.21106520038752685,30.395037677024085,-12.11129303617065,-39.339294355768764
1760597798.580712,2.823436206964547,0.0647140798488695,1.039356204306363,-0.21920311043320237,25.88078425116155,-9.263357174257283,-36.45083493472968
1760597798.5907295,2.5131216834560663,0.06236886025058777,1.0226959406666378,-0.22554931192061997,21.488638628839745,-5.8657880751009,-33.398793777293555
1760597798.6006775,2.209596866194394,0.05054821033110386,1.003715678832565,-0.2292784366185745,17.571208244284175,-2.359326753467579,-30.426490900980678
1760597798.6107283,1.901362069738903,0.03037361076605769,0.9840304767397853,-0.2299971092498085,14.364750786863745,0.8630744083751168,-27.749292409697933
1760597798.6206694,1.5779988343526243,0.003706528985896673,0.9649082486232116,-0.22777434347191747,11.985737216865125,3.4848935271723236,-25.537514180791508
1760597798.6307027,1.2314238514137725,-0.027036952240216062,0.9473004032817571,-0.22308441681477018,10.442795338566457,5.2858013869254235,-23.905833647075543
1760597798.6407094,0.8568002024040147,-0.05914387707388019,0.9319126381370563,-0.21668411227058104,9.659037432792324,6.150575138557306,-22.90895596459964
1760597798.6507533,0.4530117945125898,-0.08988593957005828,0.9192854079477548,-0.2094530705453461,9.49965081017399,6.0665520624689995,-22.54313099750074
1760597798.6606622,0.02267632609724167,-0.11678130236634222,0.909857633581271,-0.20222766125938946,9.800249559798683,5.110406826924637,-22.75294863272709
1760597798.6707067,-0.42826124163642354,-0.13780116190516303,0.9039958499559937,-0.19565585175514252,10.392492270223325,3.426298859865014,-23.442492871506357
1760597798.6807454,-0.8912564891895515,-0.151496594844274,0.9019829106105088,-0.19009446505607644,11.124570496683292,1.1984861768375983,-24.489454912293034
1760597798.6907153,-1.3560826274726792,-0.15703735115200362,0.9039725609475047,-0.1855623620697723,11.875198399143738,-1.3777635731266766,-25.760386597917798
1760597798.7006714,-1.8118019706730046,-0.15417311642398315,0.9099246595389022,-0.1817542062927322,12.560641943594703,-4.122880184313484,-27.12514042963834
1760597798.7107093,-2.2476825499973687,-0.14314350065314585,0.9195389587789304,-0.1781100209262505,13.135133991631704,-6.893604203105924,-28.468799931666627
1760597798.720663,-2.6539921305744127,-0.12457012839599993,0.9322047019045108,-0.1739269346860611,13.585723890435679,-9.594788740980164,-29.69996739768943
1760597798.730703,-3.0226428257242954,-0.09936096381907851,0.9469809612967963,-0.16849330947754418,13.923147047796101,-12.18111095468325,-30.754932141316317
1760597798.7407033,-3.34768812829493,-0.06864645186799272,0.9626194771314435,-0.1612230533409095,14.170601858018452,-14.64904051836183,-31.597810343951032
1760597798.750742,-3.6256873172393105,-0.033754394005608784,0.9776374748627203,-0.15176920063191224,14.352365093414951,-17.020961949445972,-32.217161937903334
1760597798.7607331,-3.8559526839537708,0.0037808312563152534,0.9904418366824425,-0.14010033627263843,14.483994425007488,-19.324585709654,-32.619876370728136
1760597798.7708945,-4.040687274048784,0.04218824062710317,0.9994978037077208,-0.12653068438780138,14.565514640240105,-21.571533408650936,-32.823329828681636
1760597798.7806964,-4.185008652583261,0.0794299408610038,1.0035260905889498,-0.11170345761620065,14.578511139992886,-23.739139099546122,-32.846974070505105
1760597798.790816,-4.296840780722984,0.11319522137511899,1.0017041317868944,-0.09653544218170357,14.487490485825965,-25.759037282722872,-32.704594918260874
1760597798.8007317,-4.386644673463323,0.14094377312003517,0.9938425168890078,-0.08213684043168759,14.245242769196704,-27.51506287549819,-32.39842389661504
1760597798.8107238,-4.466952625254975,0.16001759453186962,0.9805077821555941,-0.0697225012128634,13.801313394116447,-28.851518144800984,-31.916056711069935
1760597798.8207438,-4.551674408961861,0.16782973608879845,0.9630673025218391,-0.06052788766412191,13.112155498015818,-29.591181136980058,-31.230723351856625
1760597798.8307185,-4.655161143303165,0.1621199601044758,0.9436396852044612,-0.05573594555514875,12.151186360386271,-29.560789002539074,-30.304917761719963
1760597798.840737,-4.791046185268683,0.14124522707591164,0.9249432285477788,-0.056412058038645865,10.916883401569109,-28.62040733042864,-29.096828460616532
1760597798.8507624,-4.970931155593798,0.10445402346142915,0.9100447975416124,-0.06343772394587574,9.437260623539792,-26.692365330715724,-27.568526879226894
1760597798.8607202,-5.203042207565176,0.05208745005458006,0.9020226523684546,-0.07743283460905359,7.76954962752916,-23.78545725051884,-25.694552733531854
1760597798.8707309,-5.491034099261755,-0.01433820437595394,0.903570951725142,-0.09866152967403875,5.994606955261002,-20.010850626577916,-23.46942874438159
1760597798.8807228,-5.833150048008414,-0.09218734074360128,0.916589566524786,-0.1269251141989078,4.206396616099593,-15.58738594675929,-20.912752981790813
1760597798.8907444,-6.221935835176312,-0.17789123677498156,0.9418150602598274,-0.1614551435674167,2.497769987333866,-10.83536672300247,-18.070836767558244
1760597798.9007692,-6.64464519984669,-0.26723413445868704,0.9785521500348018,-0.20082913956518963,0.9445690840177547,-6.159180117634977,-15.014305422983076
1760597798.9107351,-7.084360747111952,-0.35569494289235126,1.0245586309616876,-0.24293803895213212,-0.40938526652775387,-2.0199436898620147,-11.83154864518454
1760597798.9207208,-7.521708650104126,-0.43879487632558223,1.0761222269991644,-0.2850341634886469,-1.5638265874590653,1.100134757602727,-8.618333972077235
1760597798.930718,-7.936902352638278,-0.5124054481113355,1.1283470541954725,-0.3238783739448506,-2.5680709334809952,2.7396247175780464,-5.464322974598788
1760597798.9407363,-8.311755258212056,-0.5729859419347063,1.1756416444415092,-0.35598732356568097,-3.520502655300889,2.503336197452981,-2.4377464604828325
1760597798.9507327,-8.63129233199494,-0.6177419674394818,1.212370090518301,-0.37796227252208187,-4.561539339212507,0.10781793304860299,0.4298851941200171
1760597798.9608371,-8.884677833822373,-0.6447182888172627,1.2335944155841576,-0.3868643449554778,-5.860948178399979,-4.577810399175651,3.1565513009755546
1760597798.970732,-9.065339224729831,-0.6528502427789643,1.2358064754214164,-0.3805888217312826,-7.6009278743803605,-11.501353751491513,5.817080408030997
1760597798.9807553,-9.170356200816883,-0.6419954332159252,1.2175324855249494,-0.3581840385592906,-9.956606986266467,-20.41331016100774,8.54226260389226
1760597798.9907415,-9.199342261532609,-0.6129539446691716,1.1797011674230322,-0.3200613167712229,-13.075602257244986,-30.87398095042332,11.507661576029873
1760597799.000733,-9.153133253257762,-0.5674657012365797,1.1256983709115418,-0.2680540393355191,-17.05818300498765,-42.2846374723371,14.911759163746181
1760597799.010765,-9.032598989216252,-0.5081552702599436,1.0610785852506466,-0.20530647104282065,-21.93962862441217,-53.941664944340644,18.945519731973402
1760597799.0207202,-8.837822128059612,-0.43839050289724524,0.9929527960732788,-0.1360008860085661,-27.67669542439715,-65.10798670189585,23.758109961726973
1760597799.030803,-8.567772701423143,-0.3620420981469225,0.9291127210756898,-0.06495652859140043,-34.14057436099503,-75.09191832449926,29.425389875906593
1760597799.0407326,-8.220483061202671,-0.2831692598766777,0.8769862590772433,0.0028505343190087453,-41.11878960980865,-83.3214180897647,35.92797668594178
1760597799.050746,-7.793625410637203,-0.20568647349898997,0.8425572674768114,0.06279337787929579,-48.32758318964787,-89.4023158053956,43.143888283518926
1760597799.0607262,-7.285325248737622,-0.13306251562082858,0.8294252438780053,0.11107625103966452,-55.43442464198255,-93.15218196854558,50.85758430980956
1760597799.0707173,-6.695009994656722,-0.06806817751671498,0.8382061797430341,0.14514530113810017,-62.08805578902164,-94.60593601300334,58.78370839462721
1760597799.0807836,-6.024096054988819,-0.012565398244380457,0.8664436162807145,0.16397718842607248,-67.95179768446236,-93.99392467060389,66.60095985116894
1760597799.0907924,-5.276367268522935,0.032646152260212204,0.9090851828358828,0.16819608577141176,-72.73520372870506,-91.69724600665063,73.98987281111637
1760597799.1007676,-4.457985933420344,0.06786587111758657,0.9594231044646901,0.15998767573743983,-76.21956958697604,-88.18813063487656,80.6680740568396
1760597799.11074,-3.5771726121438303,0.09435451557697436,1.0102728906675544,0.14280607274422363,-78.27405548969271,-83.96491283528685,86.41769724927978
1760597799.1207545,-2.643657354524702,0.11402351147784376,1.0551172896338703,0.12089419550983312,-78.86085123386731,-79.4912639575193,91.10158923986394
1760597799.1307912,-1.6680290497929582,0.1290226123850033,1.0889753068777541,0.09867164092758379,-78.02954188846793,-75.14786525335013,94.66715547623423
1760597799.1408455,-0.6610977621272746,0.14133434499739153,1.1088557637527223,0.08009605503533195,-75.90238950974242,-71.20185731656917,97.13874002038524
1760597799.150847,0.36664969420678606,0.15247880507150052,1.1137866566487113,0.06813781603981921,-72.65351319835816,-67.79583634427756,98.60117187892058
1760597799.1607955,1.4054638647908677,0.16339278843324528,1.1045187904407447,0.06447622740773559,-68.48573379628765,-64.95473062154478,99.17838101366776
1760597799.170798,2.446616888715905,0.17448836484110844,1.0830482950718305,0.06944305281477132,-63.60889446834003,-62.60640549674884,99.01147155261401
1760597799.1808057,3.48257870739097,0.18584070944764983,1.0520951059277368,0.08216810419193146,-58.22270914350203,-60.61067418914594,98.24010513575276
1760597799.1908214,4.507110757604992,0.19742360570644307,1.0146397168489245,0.10085571452438877,-52.50589646721449,-58.791332042256165,96.98966989504893
1760597799.2008138,5.515295436408481,0.20931107089187564,0.9735763184148938,0.12312700271933284,-46.61193406022244,-56.966479636047346,95.36499874186345
1760597799.2108085,6.503510626977723,0.22178877392626575,0.931495846532632,0.14637696083925633,-40.67050455964306,-54.97348239989448,93.44987591596103
1760597799.2208326,7.469353004007749,0.23535521719340413,0.8905769385604042,0.16810630131720164,-34.79275094874591,-52.68627244027594,91.31056055023421
1760597799.2308865,8.411511878261617,0.2506252762326191,0.8525451097917571,0.1861951826282349,-29.077929453436287,-50.024170646871646,89.00116558115548
1760597799.2414796,9.329594801578704,0.26816828056701103,0.8186622505845154,0.1990938542452721,-23.61903634148818,-46.952812332094204,86.56888028576735
1760597799.250897,10.223906071805315,0.288319756013782,0.7897233300145606,0.20591804267492428,-18.505471579356428,-43.47891866476888,84.05751975026355
1760597799.2608254,11.095181908327163,0.31100785960365535,0.7660551569558024,0.20645310173339537,-13.821637167325049,-39.64140789498262,81.50852667986653
1760597799.2707982,11.94429461807,0.33563752887005804,0.7475258943857238,0.2010844827031956,-9.64137483816369,-35.501555054757155,78.95923159463966
1760597799.2807746,12.771951826340514,0.36107326377402504,0.7335811169994493,0.1906786530195035,-6.019192742697273,-31.134496281386,76.43886718085902
1760597799.2907722,13.578429621304286,0.3857455010637701,0.7233212650685893,0.17643860805680436,-2.980181162544241,-26.62336406448385,73.9634841444925
1760597799.3007493,14.363382404647917,0.40787208135366826,0.7156250782490858,0.15975387610115638,-0.5111817248883689,-22.056046894004172,71.53136382409535
1760597799.3108208,15.12576316296432,0.425747543570847,0.7093073407108078,0.14205872613603449,1.4441053798578594,-17.523563797131462,69.12051130060522
1760597799.3208432,15.863867898676304,0.4380308715179563,0.703286075654077,0.12470695207247763,2.984015217518388,-13.118764725924194,66.68923137369791
1760597799.3307552,16.575493846915727,0.4439686239225097,0.6967316324173882,0.10886916667889016,4.241035993836824,-8.934435707329865,64.17987837262787
1760597799.3407726,17.258179944285242,0.4435168877832732,0.6891775599261877,0.09545821122413874,5.367906334443132,-5.060469073962278,61.52506669917974
1760597799.3507576,17.90948432845782,0.4373554584443146,0.6805839995273816,0.08508742498723808,6.519732499774473,-1.580205353281114,58.65521483410168
1760597799.3607633,18.527249332709577,0.4268099652996366,0.6713514719596171,0.07806343347850106,7.834898090215312,1.433743929462905,55.50627279512673
1760597799.3707685,19.109809634143975,0.4137093920755541,0.6622844074134092,0.07441028580258137,9.417650107488353,3.92392559622905,52.026714238867854
1760597799.3807464,19.656112725884274,0.4002092181973956,0.6545033562613531,0.0739170880115138,11.324809377371851,5.852697071119063,48.18322066867816
1760597799.3907533,20.165739986164084,0.38860684295188497,0.6493082070619586,0.07619855042733882,13.558223304700302,7.2073615607901225,43.964823701666575
1760597799.4007485,20.638836802533664,0.3811674079123572,0.6480044632329424,0.08075767662862945,16.063571575627137,8.00617796274861,39.38549798235631
1760597799.4107473,21.075976305958374,0.3799658624776326,0.6517166789392073,0.08704168236489082,18.735183689228073,8.305441236605397,34.485274845013365
1760597799.4207435,21.477989798086227,0.3867391271907883,0.661219232256076,0.09448555607804332,21.425811953053373,8.20726695328388,29.329920091614245
1760597799.4307375,21.84579756358124,0.40273674492175493,0.6768095101520737,0.10254207117365369,23.959927655334315,7.86689902032459,24.009154627972915
1760597799.4409363,22.180268307927992,0.42856319745015303,0.6982352032696454,0.11070191242809369,26.149104010207058,7.497495095293117,18.633323947988032
1760597799.4507527,22.48212580524837,0.46401763685150005,0.7246751015425354,0.11851176553947249,27.808355259973204,7.369662661718161,13.32835576280854
1760597799.4607315,22.75190841232091,0.5079508243679006,0.7547698777330232,0.12559969214017416,28.772724914814777,7.802781268611285,8.228831844968415
1760597799.4707341,22.98997184292511,0.5581695968358014,0.7867050068350824,0.13171265525088544,28.91369606289088,9.145622137054668,3.46909953842373
1760597799.4808974,23.1965100525922,0.6114238834020658,0.8183520335193717,0.13675967914114193,28.154951439878754,11.745116854727423,-0.8274205444537837
1760597799.4907572,23.371557782668063,0.6635088665444286,0.8474672102740276,0.1408426825258468,26.486630547969547,15.904228847006975,-4.560225297769187
1760597799.500819,23.514938693728507,0.7095048288932914,0.871929144055392,0.1442572700042035,23.97665564955376,21.832402402759325,-7.664072541104412
1760597799.5107894,23.626140501963647,0.7441605804791704,0.889980934999903,0.14746082326934187,20.777153500371643,29.594561062022507,-10.120261435869638
1760597799.5207577,23.704129225069117,0.7624052873017318,0.9004380594997021,0.1510227555620823,17.123728784808414,39.06663204743345,-11.965054678651006
1760597799.5307376,23.747146229905123,0.7599506357679673,0.9028310346283893,0.15557562181436152,13.325548087585307,49.90656988365397,-13.293299049668647
1760597799.5407312,23.752552888876792,0.7339226848238747,0.8974631122124824,0.16177227925052873,9.745002073360286,61.54931567705821,-14.255488225009065
1760597799.5507445,23.71679399326528,0.6834411214699885,0.8853724854548488,0.17023387263860246,6.767189292956747,73.23169897960857,-15.047096558139675
1760597799.5607529,23.63554202673351,0.6100447666881643,0.8682021124163521,0.18146084464342788,4.761528143878277,84.04896237183866,-15.890038191675588
1760597799.5707395,23.5040578511306,0.5178556873891138,0.8480053565236456,0.19568753775863368,4.040086556759704,93.03891271942008,-17.00754419225663
1760597799.5807447,23.3177589166646,0.41339749920076396,0.8270390822824731,0.21269470697919698,4.819015086797766,99.28395755890497,-18.595394244848368
1760597799.5907495,23.0729320883481,0.3050443847834287,0.8075926471834652,0.23163732909216272,7.189978566326986,102.01720614647797,-20.793891255730053
1760597799.6007335,22.767479066173916,0.20215612429308008,0.7918698543767755,0.25096650973828316,11.107233619562171,100.71768453918384,-23.665759570184957
1760597799.6107666,22.40155063264962,0.11401582574502991,0.7819082963049883,0.2685059408055725,16.393101391784516,95.18163810409645,-27.18486544212813
1760597799.620742,21.97792101445396,0.04871501090794485,0.7795082571749369,0.2816956727605614,22.760718897655472,85.56098810974619,-31.239049300586778
1760597799.6307447,21.501983455062852,0.012135190700719261,0.7861493620139884,0.28796551839705864,29.84922056174525,72.36509030598745,-35.64754743568838
1760597799.6407487,20.981313758143127,0.007165758025015385,0.8028849375421464,0.28516872346656513,37.26406700801817,56.42699869308646,-40.19012072616986
1760597799.6510239,20.424838357555817,0.03327061167668175,0.8302133707959574,0.2719979195845504,44.61483476942901,38.839630019047696,-44.64209130737865
1760597799.6607735,19.841735126942833,0.08646558948255915,0.8679318480273595,0.24831045775074514,51.54439883188029,20.869795095178578,-48.807926740700026
1760597799.6707382,19.24026381372458,0.15970415289036127,0.9149851585218809,0.21530026533484928,57.74635061106526,3.858627756311658,-52.546288582744204
1760597799.6807344,18.626749281867994,0.24360848306508506,0.9693349576266709,0.17546848157663117,62.97061077460774,-10.884061171578493,-55.781467814301166
1760597799.690743,18.004916775721192,0.3274436218650259,1.0278910513073396,0.13237009778479247,67.01965916989,-22.185460255320393,-58.49927516172831
1760597799.7007437,17.375710664421185,0.4002206227934516,1.086557466861968,0.09015090749624774,69.7393462539688,-29.11029108487863,-60.72898492957283
1760597799.710744,16.737634842073675,0.45182790835952974,1.1404437026305152,0.052933766660444054,71.00902589847557,-31.050609230187696,-62.51613899466327
1760597799.720743,16.08755568753803,0.47411505703525275,1.1842735261143016,0.02415296865176404,70.73594855927105,-27.797565601003175,-63.89333134538254
1760597799.7294705,15.421823554192109,0.4618686586990129,1.212993708583545,0.005955032882502489,68.85846913810148,-19.58575513454705,-64.85711542907268
1760597799.7407565,14.737506768622545,0.4136038599039427,1.222541469316022,-0.0012229873873653182,65.36113019982683,-7.099932513284579,-65.35842013404475
1760597799.7507405,14.033504136824588,0.33204173125501574,1.2106605231667176,0.0011877758143332942,60.30100243344587,8.564653982474777,-65.31058210013536
1760597799.760756,13.311318329452677,0.2240830571816069,1.1775695487701503,0.010045381316469232,53.838750924618864,25.99288608689647,-64.6134856390635
