timestamp,angle,linear_acceleration_x,linear_acceleration_y,linear_acceleration_z,angular_velocity_x,angular_velocity_y,angular_velocity_z
1760959385.9525537,-1.741011248117123,-0.03420827482428034,0.980056317846595,0.052800339700493415,-1.8892647734630068,1.1588469515519346,-0.7583849030646255
1760959385.9622307,-1.761156380110744,-0.03440971975823456,0.9805025360760368,0.053539660805218624,-1.9946075155268388,1.0765778891221904,-0.7908681340088964
1760959385.9722772,-1.780559442777067,-0.034391328123237974,0.981071996285757,0.054454798392943274,-2.1002269901492996,0.996864292598808,-0.8249538711234401
1760959385.9820623,-1.7986506946120884,-0.03415238769574174,0.9817205103112713,0.05547014135458355,-2.205689091118093,0.9222177052891751,-0.8598754752008231
1760959385.9921875,-1.8149171607316053,-0.03370509369594194,0.9823991618291866,0.056495835464924614,-2.31029836428491,0.8542500973171776,-0.8946312812822
1760959386.002132,-1.8289357763236271,-0.03307545408788277,0.983058050206473,0.0574397897182163,-2.4129598170944515,0.7940261882083328,-0.9278980031064595
1760959386.0121622,-1.8404040841838596,-0.03230309213461254,0.9836501464177131,0.05822036141804161,-2.512194283760083,0.7425428999664345,-0.958034656861123
1760959386.0223637,-1.849165050375282,-0.03143952225117731,0.9841349979145544,0.05877758533304373,-2.6063014242258657,0.7012128878557139,-0.9831735758848767
1760959386.0324633,-1.8552230230524613,-0.030545049531047305,0.9844816877369085,0.05908128207446861,-2.693634618062545,0.6722094726291409,-1.0013852813412518
1760959386.042028,-1.858749667743453,-0.02968495829672518,0.9846706220058378,0.05913498490165655,-2.772932256551869,0.6585444879651257,-1.010897454221616
1760959386.0523539,-1.8600807601412768,-0.028925786870928977,0.984694134697265,0.058975197076573234,-2.843641937028966,0.6637997708103198,-1.010342542637787
1760959386.0621033,-1.8597059227434276,-0.028332220221707293,0.9845561204174015,0.05866602620697141,-2.9061770009845795,0.6915087122479113,-0.9990022854075701
1760959386.0721266,-1.8582532061148804,-0.027964647790514288,0.9842708831782777,0.058289793517907834,-2.962056664042623,0.7442692810908832,-0.9770112647568985
1760959386.0822537,-1.8564689752009116,-0.027876968868966383,0.9838613793172011,0.057934879431267655,-3.0138998243616784,0.8227431000791438,-0.9454793219757878
1760959386.092194,-1.8551917493054728,-0.028114044295659765,0.9833571622813918,0.05768281843413023,-3.065264923421212,0.924738956654257,-0.9064993574178077
1760959386.1021674,-1.8553177168476067,-0.028708432600328432,0.9827924616064283,0.05759715203750354,-3.1203484174297933,1.044585289950606,-0.8630244734262765
1760959386.1121612,-1.857756333852433,-0.029676546621242365,0.9822047132055068,0.05771629559806672,-3.18356988084053,1.1729652788359706,-0.8186232217829037
1760959386.122243,-1.8633762942549565,-0.031014733596741312,0.981633394036967,0.05805155223796718,-3.2590846015199846,1.297325184147389,-0.7771474344986727
1760959386.1321695,-1.872943877224843,-0.03269570380625882,0.9811184206282472,0.05858990116033411,-3.3502766133373636,1.40287919482079,-0.7423666515663035
1760959386.1422043,-1.8870559938856195,-0.03466526835770334,0.9806971469566196,0.05930001150550062,-3.4592943677911188,1.4741351065074648,-0.7176299595493189
1760959386.1524453,-1.9060694174923771,-0.03683904238867861,0.9803994759709502,0.06013951970284716,-3.586693297551303,1.496773116920244,-0.7056057591552659
1760959386.162588,-1.9300276669464493,-0.03909925191692454,0.9802415985711167,0.061061954472468837,-3.7312410382666257,1.459641221588293,-0.7081236755386421
1760959386.1722567,-1.9585897317071255,-0.04129299551062018,0.9802198077707232,0.06202246004836364,-3.889922092001301,1.3565928349628438,-0.7261095627108839
1760959386.1824327,-1.9909699546190633,-0.043234381220839675,0.980306137272055,0.0629821897261797,-4.058153521399622,1.1878878750287856,-0.7595786154892261
1760959386.1921697,-2.0259033539693303,-0.044712991064025126,0.9804471874363826,0.06391161155968635,-4.230198543971537,0.9609110467400684,-0.8076447410513007
1760959386.202183,-2.0616526663914865,-0.04550999076516605,0.9805669257655549,0.06479295591001136,-4.399746159967028,0.6900320997736138,-0.868519776887253
1760959386.212197,-2.096071224555969,-0.04542147592372116,0.9805738694618394,0.0656217425660508,-4.560614628733685,0.39553577395274186,-0.9395086593531288
1760959386.2221427,-2.1267300667500026,-0.04428701538363427,0.9803726679563549,0.06640693798531112,-4.707533479004926,0.10166982166380827,-1.0170456888346573
1760959386.2321784,-2.1511099791163044,-0.04202022221737953,0.9798793467406752,0.06716921062254672,-4.836957109273341,-0.1660165194945365,-1.0968492717472658
1760959386.2422352,-2.1668509143007655,-0.03863758195130082,0.979038432967062,0.06793738059172365,-4.947854684166044,-0.3837553572361154,-1.174284448479955
1760959386.2523265,-2.172042850187173,-0.03428142256373652,0.9778392900314717,0.06874432340467639,-5.042400453381869,-0.5326812432301871,-1.2450036292800766
1760959386.2621572,-2.1655332790705653,-0.02923258584870959,0.9763286355608457,0.06962443522271423,-5.126456768284952,-0.6015521788910962,-1.305881758310068
1760959386.2724226,-2.147217422768393,-0.023908320287014288,0.9746165516255362,0.07061453335838307,-5.209707295308559,-0.5886349168664149,-1.3561776454019614
1760959386.2821963,-2.118270222004128,-0.018841893711085567,0.9728741390480093,0.0717588221507421,-5.305277211897796,-0.5023908686553487,-1.3987568709434057
1760959386.2923536,-2.081277955556321,-0.014642953760427282,0.9713219717633693,0.07311714350786348,-5.428695608522313,-0.36074302695197763,-1.4411346885714713
1760959386.302213,-2.040235005223824,-0.011941397064766438,0.9702095556157115,0.07477498183042251,-5.596136256117058,-0.18891528705399382,-1.496072962063828
1760959386.3123336,-2.000386781758632,-0.011320885340624002,0.9697871841181889,0.07685359942721481,-5.822019310984957,-0.016089788665204722,-1.5815097433178318
1760959386.3222911,-1.9679169320118528,-0.013249137173203012,0.9702727289316132,0.07951847514501062,-6.1162360404394285,0.1286284971861221,-1.7196975395755565
1760959386.332201,-1.9494898434165602,-0.018010862236817735,0.9718167632908005,0.08298348907143911,-6.481409530656193,0.2202948467986853,-1.9355360265178154
1760959386.3423498,-1.9516717584166192,-0.025649321072799523,0.9744704409733279,0.08750764906852113,-6.910672671644428,0.24160214955843365,-2.254183254864893
1760959386.35233,-1.9802760890850015,-0.03592665293431314,0.9781622052991418,0.09338137317245783,-7.3864236315649965,0.18523328264465258,-2.6981398678668373
1760959386.3622105,-2.0397120473739587,-0.048317590327897765,0.9826905225112545,0.10090039876626071,-7.880435497475641,0.05477997826364494,-3.2841526862983708
1760959386.3723822,-2.132443955889068,-0.0620489023173817,0.9877381557167599,0.1103269739745252,-8.355559018198093,-0.13585951143051778,-4.020441816280084
1760959386.3822954,-2.258670511772257,-0.07618601689879498,0.9929084914929253,0.12184039656967575,-8.769044393165206,-0.3644876520026374,-4.904829111506278
1760959386.3923008,-2.4163018685529987,-0.08975430667328071,0.9977785421345036,0.1354824603046228,-9.07722018403748,-0.6037202321672419,-5.924273423781782
1760959386.4022617,-2.601257777966751,-0.10187235519430593,1.001959410723954,0.15110685200809776,-9.240963357990218,-0.8247533992032735,-7.056108905987343
1760959386.4123163,-2.8080483868410124,-0.11187089815549313,1.005153784716649,0.1683430023196645,-9.231161471337101,-1.0012340857873259,-8.270983475475969
1760959386.4223614,-3.030543872602092,-0.11937342043904482,1.0072002556102715,0.18658352734060746,-9.03326773812201,-1.112646972090249,-9.537149836588972
1760959386.4323514,-3.262800850736495,-0.12432215895144605,1.0080957352948192,0.2050013976747008,-8.650107328302248,-1.14666504525162,-10.82542093156629
1760959386.4421957,-3.499803305865049,-0.12694650391299156,1.0079910102745662,0.22259960140204366,-8.102321075417697,-1.1000245521205738,-12.113851117176873
1760959386.4522164,-3.737999608373148,-0.1276867132675144,1.0071607178968005,0.23829208222793763,-7.426225639948638,-0.9776919460692036,-13.391159633109966
1760959386.4624362,-3.975568756274136,-0.127098119730065,1.0059556034496084,0.2510094786620304,-6.669360373213554,-0.7903797587321734,-14.658144667809188
1760959386.472511,-4.212411218552321,-0.12576363012507571,1.0047480285054082,0.25981710055228596,-5.884437756249924,-0.5507824794162628,-15.926784733566173
1760959386.4822366,-4.449913715975824,-0.12423393916927881,1.0038786666029536,0.2640269885013894,-5.122673445970069,-0.2691632660918457,-17.217221216438144
1760959386.492564,-4.690570240176404,-0.12300005636347722,1.0036053392084996,0.2632832387956766,-4.427511543920341,0.05091552106768251,-18.55321082918398
1760959386.5022416,-4.937550284196685,-0.12249009211646235,1.0040514053953211,0.2576042714512161,-3.829656970285728,0.41586261815829206,-19.956873040171562
1760959386.5123491,-5.194294507962702,-0.1230786069118611,1.005156903673424,0.2473791146929458,-3.3441425860709724,0.8435254146929743,-21.44363912826012
1760959386.5222218,-5.464195233143764,-0.1251005359292786,1.0066472914584161,0.23332948331731174,-2.969883707342836,1.3622525813315192,-23.018244778252065
1760959386.532353,-5.750389231030315,-0.12886499477587968,1.00804123410224,0.21645328509909717,-2.6917868785040304,2.0073057450618697,-24.6724061543149
1760959386.5422778,-6.055658124671655,-0.13466360054952553,1.0087120459302177,0.1979561821574732,-2.485014592100355,2.8148344864359616,-26.384509133155383
1760959386.5522728,-6.382405742111664,-0.14276683633721574,1.0079972244503246,0.17916680841706045,-2.3205562672089117,3.8141055458086477,-28.121279445054796
1760959386.562257,-6.732669837345527,-0.15340399462604215,1.0053266289613692,0.16142908222191382,-2.170962091063793,5.019069397460422,-29.84106563740925
1760959386.5722182,-7.108128547463666,-0.16672691235056786,1.0003289226087737,0.14597345457974786,-2.015098958775641,6.420570446034569,-31.49812708447077
1760959386.5825427,-7.510073913626229,-0.18276303139198766,0.9928882761145553,0.1337817797151265,-1.8411211584152734,7.980522905553315,-33.04720011022625
1760959386.5921223,-7.939339462848742,-0.20136767048616366,0.9831482706581249,0.12546912601118845,-1.6473725409145006,9.629198268568652,-34.44760204653052
1760959386.602461,-8.39618323693264,-0.22218756280365937,0.9714765114619153,0.12120547940866673,-1.441393191461325,11.266442604131536,-35.66622027919687
1760959386.612163,-8.880140631587166,-0.24464701485737103,0.9584054736672748,0.1206932161181923,-1.2374178030511735,12.767190170938537,-36.67894259696272
1760959386.6221194,-9.389871529604386,-0.267964514160472,0.9445617636640757,0.12320711569931833,-1.0527813693982697,13.991077661990953,-37.47042677154855
1760959386.6321645,-9.923031778747495,-0.29120183859402277,0.9305940405485895,0.12769412367204633,-0.9036701268797004,14.795331799381072,-38.03252569543246
1760959386.6423495,-10.476198676354826,-0.31334068470320936,0.9171084293963904,0.13291982996094853,-0.8007650141739615,15.049499968949988,-38.36204306035122
1760959386.652334,-11.044873361874922,-0.33337528359527613,0.9046178376083929,0.13763931267350463,-0.7454615474039327,14.650160215127029,-38.45863864482903
1760959386.662248,-11.623571981657006,-0.350405977000583,0.8935087802966389,0.14076485987383494,-0.7273795551066479,13.533617220031916,-38.323560785378156
1760959386.6723413,-12.206006144032413,-0.36371977471745104,0.8840267809520753,0.14150404213169052,-0.723706846272634,11.68482727188538,-37.95951696421242
1760959386.6823423,-12.785343903784616,-0.3728482898357591,0.8762787976428608,0.1394478401659179,-0.7005776299527979,9.141351353240116,-37.37155104411449
1760959386.6922917,-13.354535002859185,-0.37759890147484626,0.8702484738455792,0.1345982074116055,-0.6162860298855994,5.991870175953339,-36.56843648753451
1760959386.702263,-13.906677664548969,-0.37806012752723034,0.8658186866361969,0.12733587787009953,-0.4258087604531375,2.3695266889686764,-35.56393116423093
1760959386.7122166,-14.435399022708475,-0.3745858056074791,0.8627969234346851,0.11833968959728841,-0.08595154025108856,-1.5590491003221598,-34.37730979946247
1760959386.722154,-14.935217779344391,-0.367763753059404,0.8609415217580928,0.10847528160352768,0.43954732764893983,-5.607771175838709,-33.03284884328111
1760959386.7323167,-15.401856467781453,-0.3583732760143312,0.8599885768890273,0.09867314111542855,1.1755013746474499,-9.586674161555731,-31.558273155211833
1760959386.7423227,-15.832471572299367,-0.34733313741549415,0.85967886437512,0.08981442158384204,2.1317565116339456,-13.317420469447645,-29.98246130513804
1760959386.7523699,-16.22577211747114,-0.33563877276596454,0.8597821548520369,0.0826382968004463,3.3009549554464273,-16.64716261377715,-28.332868234741795
1760959386.7621214,-16.58200232168928,-0.32428693309565515,0.860115417411609,0.07767824731911892,4.657763105071121,-19.459361526646365,-26.63314247742249
1760959386.7722073,-16.90277413433764,-0.31418889229796854,0.8605530187226503,0.07522850668014622,6.159652685480919,-21.680471173345893,-24.901314844059296
1760959386.7821748,-17.190751844697807,-0.30607863143717556,0.8610294936332782,0.07533717873952173,7.749257746412863,-23.281855931590574,-23.14876346379026
1760959386.792387,-17.449211617234106,-0.30042781863418,0.8615366710033401,0.07782068720319844,9.35828640198219,-24.276896784580696,-21.379977026948527
1760959386.8021765,-17.68152092267309,-0.29738351332115415,0.8621169269226207,0.08229599060877714,10.912899184544527,-24.713882480319615,-19.59300784171892
1760959386.812236,-17.89060306414334,-0.2967456736875117,0.8628539931615449,0.08823006991667211,12.340294924297956,-24.665845791099247,-17.78046625991861
1760959386.822298,-18.078465352017925,-0.2979969626869683,0.8638615445638039,0.0950067114492699,13.575940378979373,-24.218879723142788,-15.930945507574666
1760959386.8321834,-18.245869655030855,-0.30038571254754703,0.8652673509016636,0.10200694785875672,14.570531524511052,-23.460582335873248,-14.030830093833641
1760959386.8421848,-18.392206971585345,-0.30304816867215884,0.867189952048025,0.10869314912344866,15.295559370903938,-22.470119302655075,-12.066472344248565
1760959386.8522065,-18.51560515039897,-0.3051456430099121,0.8697084213177811,0.11468085016335686,15.746420754977398,-21.311018930339657,-10.026676960141772
1760959386.8622742,-18.613258286041386,-0.3059898215913903,0.8728305807901297,0.11978053885037966,15.942391357630655,-20.027316743332687,-7.905306575464128
1760959386.8722444,-18.681926718444657,-0.3051336186045849,0.8764658856810698,0.12399638904505511,15.923365652895923,-18.64311987144527,-5.703659627105718
1760959386.8823965,-18.718525434752674,-0.3024128696993334,0.8804075390987657,0.12748016491512262,15.743898512446194,-17.165133746387557,-3.432164600191664
1760959386.8921895,-18.720700826726286,-0.2979339118727393,0.8843282862170221,0.1304521869141653,15.465579796314618,-15.58728499230666,-1.1109541866686554
1760959386.902268,-18.68729463808173,-0.2920121377275752,0.8877943897911253,0.13311092045026504,15.149018956121163,-13.896387209107658,1.2309625050305837
1760959386.9124658,-18.618612681240354,-0.28507638883466685,0.8902999557521445,0.13555436467470625,14.846689970917037,-12.077854031177296,3.557960785390935
1760959386.922371,-18.51645496275811,-0.27756323507089026,0.8913212947612431,0.1377312704454376,14.59764050286205,-10.12067912821054,5.831235682953619
1760959386.9324026,-18.38391630446062,-0.26983042268164853,0.8903900117249189,0.13943225179864424,14.424691863761517,-8.021148400055253,8.012895711363859
1760959386.942315,-18.22501712614474,-0.2621147308816217,0.8871809882523873,0.14032198206807295,14.334346880289958,-5.7849604863429,10.070042772955965
1760959386.9522352,-18.04425579087036,-0.2545453964107797,0.8816061199675002,0.140003597789248,14.319257604446767,-3.427627798883161,11.978151137394418
1760959386.962191,-17.846177968269668,-0.2472064233102454,0.8739000534142707,0.13809718782245015,14.362807774299888,-0.9732578109994011,13.723191639829865
1760959386.97223,-17.635038312742672,-0.24022709618761634,0.8646823539277505,0.13431144136280432,14.445107044353483,1.5479081149572504,15.302199516220341
1760959386.9821718,-17.41459656998464,-0.23387345563079426,0.8549806962539531,0.12849417783454545,14.549446792705108,4.102520269391279,16.72228331619568
1760959386.9923155,-17.188055517929573,-0.22861425403785637,0.8462020357491592,0.1206587360179749,14.668073845253712,6.656793709778817,17.99832057574408
1760959387.0021994,-16.95811960226019,-0.22514095401951656,0.8400438488831437,0.110990968894041,14.806103724235912,9.177869322907974,19.149719720158604
1760959387.0121336,-16.727134017074878,-0.22432984930083294,0.8383441446136825,0.09984280675566579,14.982584042349295,11.633153029237558,20.196655863270255
1760959387.022452,-16.49725451044672,-0.22714363857853367,0.8428762805065322,0.0877159843390897,15.228104775143754,13.987439826590984,21.156166178561115
1760959387.0322096,-16.270597537419917,-0.23447970144614172,0.8551033315664028,0.07523748092210257,15.578881130019319,16.19828824451442,22.03847355277223
1760959387.0421388,-16.049327102910677,-0.24698243739162395,0.8759165893477003,0.06312744212112073,16.067869717658006,18.210750252539103,22.843918854884837
1760959387.0522268,-15.83564637965866,-0.2648459547517327,0.905392531624586,0.05215948251560949,16.714158925671864,19.953003257622477,23.56090163475611
1760959387.0623224,-15.631677491765583,-0.28764046214806027,0.9426109204181302,0.0431118262942826,17.512490383138992,21.33453587352114,24.165216693144135
1760959387.0724726,-15.439231182456915,-0.31419897619812254,0.9855802326439198,0.036706471241508394,18.425175825934836,22.248280290637606,24.62111058661854
1760959387.0822303,-15.259486242086679,-0.3425958916325767,1.0313106815115125,0.03353276576311284,19.37870530378809,22.577526140413344,24.884271858198435
1760959387.0921593,-15.092611836545837,-0.3702347660850862,1.0760574176247488,0.033953021724416256,20.266868912589167,22.207691022744037,24.906818411504705
1760959387.1022418,-14.937374446081174,-0.3940456530291588,1.115728228070013,0.03799476926168197,20.96122821924744,21.042173131288205,24.644150089556742
1760959387.1121964,-14.79078076230356,-0.4107784003787843,1.1464141144139868,0.04524797336312462,21.328390014657337,19.02068565827658,24.063263056793595
1760959387.122182,-14.64782261498868,-0.4173673896717378,1.164964046434644,0.05479988570868645,21.251946427951616,16.137755696881964,23.151722799221716
1760959387.1322532,-14.501406005365093,-0.4113327258645841,1.1694989313674515,0.06524487401547532,20.655452338495746,12.458521586320595,21.925960426045677
1760959387.14227,-14.342552631233461,-0.39117213578809445,1.159757271357091,0.07479510710262742,19.521851436249687,8.12867441401058,20.437038443388605
1760959387.1523411,-14.160945930388609,-0.3566871798878562,1.1371915785846376,0.08149338099400463,17.904778001193353,3.375523412552367,18.77184005547048
1760959387.1622612,-13.945845400524055,-0.3091789703474515,1.1047845005088601,0.08350039922729183,15.928361217508945,-1.5020948884993992,17.04810886900594
1760959387.1722836,-13.687312929859065,-0.2514503611587218,1.0666126832059886,0.07940322968151184,13.77438599084148,-6.155887818193514,15.403024317052715
1760959387.1823943,-13.37759896558698,-0.18757544014989963,1.0272386466038221,0.06847685511951548,11.658421594050532,-10.22088374695456,13.976747862202162
1760959387.1921573,-13.01245738458865,-0.12244637421005199,0.991043755879052,0.05083527355683616,9.799099679341726,-13.355265616535917,12.893945499428611
1760959387.2025332,-12.592132143465316,-0.061167094101640396,0.9616227036062123,0.02743512810115259,8.386372362730725,-15.2816065946538,12.24699007210645
1760959387.2123067,-12.121802127152565,-0.00840673066489301,0.941342304233979,-6.615949841981467e-05,7.554794598022191,-15.82291907403547,12.084092987159679
1760959387.222616,-11.611368211279846,0.03216612997811176,0.9311296037851283,-0.029560549987614978,7.366548311744392,-14.927481472974055,12.404286765076533
1760959387.2324574,-11.074586666053516,0.05827514775964312,0.9305043129674682,-0.058791131112451954,7.806486281134508,-12.678367252476509,13.159575314820692
1760959387.2421799,-10.527666409175463,0.06920917526411019,0.9378206673994579,-0.0856469701068489,8.788795318339679,-9.286390316717908,14.263233363088048
1760959387.2522278,-9.98753326047841,0.0657807088885024,0.950648326887175,-0.10840345431228375,10.172841913850235,-5.067973562768731,15.602425779126285
1760959387.2622285,-9.47000826473985,0.05010921221821555,0.9662094483464573,-0.12587785523728012,11.784754621212002,-0.41155572595955603,17.053003707424736
1760959387.2723246,-8.988144710895497,0.025285780248179804,0.9817970830320265,-0.1374895646760505,13.441136913008236,4.262698221988539,18.49437175753577
1760959387.2821963,-8.550926317072655,-0.005022002020974654,0.9951189023542636,-0.14323345996535652,14.971611569870289,8.544826180402803,19.822584925983495
1760959387.2923841,-8.162461559176592,-0.036972913778585706,1.0045316107591953,-0.14358981414333308,16.237441196165097,12.073928161935111,20.960247124194918
1760959387.3022852,-7.821733661390037,-0.06692214271609663,1.0091521515305073,-0.13940149357733836,17.14422327831596,14.570080687218733,21.862281930145564
1760959387.3127923,-7.522899554620895,-0.09173241751733502,1.008851645881709,-0.1317465921647176,17.64763350900864,15.85663121706034,22.517166771039417
1760959387.322553,-7.256085930203072,-0.10901561243016947,1.0041551946076854,-0.12182358226630448,17.75226153218551,15.871555938772845,22.943711990291085
1760959387.3322723,-7.00860455182936,-0.11730522487696135,0.9960810926398047,-0.11085304981242826,17.504499809251346,14.667806667020178,23.183908233278412
1760959387.3422768,-6.766486104931194,-0.11615964142258312,0.9859535557453253,-0.09999322098818432,16.98102535666109,12.403496409568955,23.292770039813195
1760959387.3524666,-6.516196381414134,-0.10618513978087862,0.975215319342817,-0.09026801636705013,16.274669789460887,9.323352502368534,23.326468862236858
1760959387.3623595,-6.246353043251987,-0.08895853980640324,0.9652561301951398,-0.08251089283573222,15.479549588017868,5.7332522057431445,23.330340461696693
1760959387.3721628,-5.949227416763628,-0.06683555814716095,0.9572657759886196,-0.07732930127662245,14.677330840404668,1.9700556378656104,23.32851513205166
1760959387.3823566,-5.621819155150954,-0.04265392945743627,0.9521177593487999,-0.07509204136239195,13.926404942332091,-1.6305653786730334,23.316881594476566
1760959387.3922708,-5.266344046711288,-0.019369567711628313,0.9502900149545969,-0.07593704500756038,13.255448405039882,-4.76518990372541,23.26077382329543
1760959387.4022896,-4.890067640418649,0.0003148848190237035,0.9518286989893951,-0.07979271787314657,12.662258389405828,-7.189405768863384,23.09812910800702
1760959387.4121518,-4.504523646496404,0.014266377484740581,0.9563578773203787,-0.08640457310644926,12.117924496821532,-8.737503489131475,22.74798307695869
1760959387.4222386,-4.124245441280452,0.021135301572205566,0.9631326164407009,-0.09536162546756842,11.57546247529807,-9.333304474501361,22.123233685771464
1760959387.432305,-3.7651899660599275,0.020446891290517893,0.9711283611378402,-0.10612189311646705,10.981234123786106,-8.991578984386067,21.145846586142213
1760959387.442178,-3.443042400324901,0.012578117524842022,0.9791576472720952,-0.11803992671268235,10.28704248655337,-7.810720040434374,19.762247874584567
1760959387.4524136,-3.1715707038414127,-0.0013538105435937588,0.98600533058847,-0.1303998627668218,9.46082285112328,-5.958224976566569,17.95659734573226
1760959387.4624522,-2.961171270231666,-0.019660619953407447,0.9905729708497703,-0.1424560202245578,8.494271667725053,-3.6510150714158582,15.759904557583337
1760959387.4723034,-2.817723131085542,-0.0402840087172339,0.992020249024097,-0.15348107902637073,7.406390935582667,-1.1327865833800195,13.253465575651322
1760959387.4821525,-2.741848130735808,-0.061009633490865474,0.9898871924258928,-0.1628197911433458,6.242610503986746,1.3494327744906207,10.56579921284394
1760959387.492376,-2.728650847344722,-0.0796793311929248,0.9841776748237612,-0.16994374419498162,5.069783398030215,3.5674812647991225,7.863088519244972
1760959387.5023081,-2.7679780802254954,-0.09438770183286865,0.9753840428713897,-0.17450050796211486,3.967876774530174,5.331217722019031,5.334007015224623
1760959387.512412,-2.845190312051615,-0.10364792158168358,0.9644368937694833,-0.176350042972065,3.01957488353621,6.503192273308736,3.170626192828016
1760959387.522448,-2.9423796749998754,-0.10651121554365342,0.9525760521807478,-0.1755832448567858,2.299251988982252,7.007849318728543,1.5477294826921109
1760959387.5324733,-3.0399125997738237,-0.10262865285980381,0.9411594704767622,-0.17252027251297333,1.8628430871125967,6.834818894951402,0.6031642177891704
1760959387.5422747,-3.118135802365192,-0.09225277395406002,0.9314496223130683,-0.16768729708458768,1.740020311576675,6.036422155525633,0.42177999507404534
1760959387.5524065,-3.159069336865811,-0.07618492945039858,0.9244292089571553,-0.1617697814873351,1.929772656986098,4.720031521905184,1.0250534335662493
1760959387.5623167,-3.147918617470235,-0.05567846106675381,0.9206889715528503,-0.15554183854149542,2.400007033670611,3.036322024098727,2.367754931408738
1760959387.5723102,-3.0742635213346707,-0.03230913988785963,0.9204016020740017,-0.14977665016122615,3.091179469607829,1.164704016212428,4.34206696757834
1760959387.5822704,-2.9328204683039343,-0.007824562886458015,0.9233639898299982,-0.14514988778228236,3.9233124017836447,-0.7026649154479057,6.788557365558634
1760959387.592226,-2.723716756662494,0.016015428779974233,0.9290755450913832,-0.14215252659193314,4.805213975774917,-2.376915345620305,9.51252178000412
1760959387.6022363,-2.452264548935694,0.037593232471381084,0.9368278572568919,-0.14102955445669235,5.644453534621123,-3.687293368229692,12.303589733681024
1760959387.6123915,-2.1282758481677813,0.05556587362372083,0.9457961490732304,-0.1417568395749863,6.356716013493838,-4.4937027204860325,14.956202708483097
1760959387.6223881,-1.7650136822370475,0.06895880549643506,0.9551298369198942,-0.14406058885376863,6.873456173063108,-4.696122125422978,17.288594584665894
1760959387.632534,-1.3779171783363902,0.0772102156148213,0.9640369435629534,-0.14747483635872755,7.147145123442781,-4.240370271856946,19.158184202163042
1760959387.6423857,-0.9832609857934808,0.08016257235073966,0.9718545421868002,-0.15142565153750515,7.153748616146163,-3.1200624765229215,20.471800166385588
1760959387.6522994,-0.5969076298128533,0.07800629530920314,0.9780991578231121,-0.15532761381171026,6.892387462162214,-1.3749685230215185,21.189867258240266
1760959387.662386,-0.23328087116084006,0.07119012139136759,0.9824938476143952,-0.15867744203463044,6.382438931179697,0.9137492729123095,21.324521760331667
1760959387.6722858,0.09536786577461422,0.06032156362859907,0.9849705150550007,-0.16113049589132336,5.658661570518381,3.6308148356767638,20.932472786159217
1760959387.6823604,0.37939309701082874,0.04608252402796878,0.9856485350346036,-0.16254858590486845,4.765217869347445,6.636019807051494,20.104124825078454
1760959387.6923025,0.6119333734894051,0.02917640789778031,0.9847946826982522,-0.16301249447851718,3.7496282719827363,9.774705402468339,18.95086033937861
1760959387.70245,0.7889018573154569,0.010308638727584836,0.9827726337450707,-0.16279869626836455,2.657626749635167,12.888902169246219,17.59237131608886
1760959387.7123463,0.9088557205338208,-0.009809200710899966,0.9799908039322185,-0.1623252543374794,1.529590825389019,15.828387018827158,16.145565837698573
1760959387.7224698,0.9727952865949452,-0.030445989713604123,0.9768553104220042,-0.1620760917367153,0.3987754880596616,18.460822285960486,14.715994776360294
1760959387.7324634,0.9839239452877221,-0.05084200209120324,0.973732105048005,-0.16251582086709557,-0.7088569098768479,20.6801359454986,13.392124074231495
1760959387.742352,0.9473813084447812,-0.07021390456952062,0.9709197640777051,-0.1640085776488129,-1.7737137499985165,22.412446861615493,12.242280501248802
1760959387.752401,0.8699493820728608,-0.08777804091766629,0.9686323655145465,-0.16675339130630273,-2.7811575598632827,23.619130657505327,11.313812107217911
1760959387.7622905,0.7597260601066652,-0.10279087021299813,0.9669910501572442,-0.17074595566647144,-3.720128099945592,24.296974412733803,10.633930064373935
1760959387.772354,0.625759377624975,-0.11460227564592887,0.9660232892648303,-0.17577279822903763,-4.58215081769402,24.475659245836404,10.211761450803508
1760959387.7824123,0.4776379827752509,-0.12271577714168504,0.9656694520863026,-0.1814387187395351,-5.360869422575862,24.212967390324895,10.041235158437717
1760959387.7923827,0.32504018028141496,-0.12684729833659075,0.9657962135305521,-0.1872223791155101,-6.052050620347088,23.58815850518071,10.104476934488192
1760959387.8022764,0.1772568476572199,-0.12697143569423142,0.9662160545377739,-0.19254974018230708,-6.653871888066109,22.693984184498074,10.375406803483024
1760959387.812399,0.04271859161226729,-0.12334390683417946,0.966712076889037,-0.1968724648922609,-7.167235553062378,21.627879993211838,10.82324653597531
1760959387.8225543,-0.0714317909343898,-0.11649232548175531,0.9670673187469115,-0.19973882152139194,-7.595866072513997,20.482989498477266,11.415676279364506
1760959387.8323443,-0.15967789468546706,-0.10717304161978754,0.96709715497879,-0.20084717519769632,-7.9460394461529225,19.33977732461219,12.121428286616892
1760959387.8423538,-0.21834062403770113,-0.09629702618565451,0.9666820730250233,-0.2000760481764953,-8.22593655440849,18.259020321853104,12.912167135586332
1760959387.8523514,-0.24563263528188903,-0.08483146954293595,0.9657966663089171,-0.19748937664302924,-8.444758148865075,17.27689509778327,13.763579919447908
1760959387.8623393,-0.2415404917891561,-0.07368621394071129,0.9645300314603648,-0.19331985688181422,-8.611835240656958,16.402698921698207,14.65568817123738
1760959387.8724267,-0.20753506155185575,-0.06359644682478736,0.9630935840869469,-0.18793565034837195,-8.735975048957233,15.61947505275731,15.572486169333974
1760959387.8823786,-0.14613180001794207,-0.05501597503566592,0.9618143547045741,-0.18179567587857906,-8.825195016433893,14.887520404320808,16.501082015837767
1760959387.8923817,-0.06034767161593434,-0.04803784259450537,0.9611139692309959,-0.17539736987924825,-8.886856717892647,14.150488503721943,17.43054122183295
1760959387.9024816,0.046875146823681504,-0.042358472779687614,0.9614748029466014,-0.16921986463457064,-8.928082361279774,13.34358170126765,18.350601631516252
1760959387.9122498,0.17319527847921778,-0.03729638004721581,0.9633953456340459,-0.16366585115009372,-8.956267628885062,12.403138039745828,19.25036597832179
1760959387.9221792,0.3172665729295186,-0.03186796443651526,0.9673375649517879,-0.159006544355736,-8.979509346952645,11.276746915502484,20.117020380784897
1760959387.9321928,0.478937683401616,-0.024913459729650523,0.9736706597632151,-0.15533528961181012,-9.00683095754833,9.932885667723035,20.93460596026455
1760959387.942223,0.6592234203299587,-0.01525791294115787,0.9826176892708751,-0.1525358894904965,-9.04818293005301,8.368987817069168,21.682901873515846
1760959387.95238,0.8600492643985987,-0.0018868383838107074,0.9942128956857922,-0.15027139620043892,-9.114281477145926,6.616867145113465,22.33654720098583
1760959387.9624453,1.0838017351768585,0.01588504539618122,1.0082768458421318,-0.14799744483024804,-9.216397163667615,4.744554793452367,22.864595339152373
1760959387.97226,1.3327393533392071,0.038271698782826144,1.024413530974464,-0.14500099705795708,-9.366207616655961,2.85387241008888,23.230712478569636
1760959387.9822564,1.6083324622067325,0.06491798727805419,1.042029118711431,-0.1404616600272803,-9.57579791102746,1.0734735310849952,23.39417490623549
1760959387.99245,1.9106111985631276,0.09486410049877304,1.0603675389028275,-0.13353029200702296,-9.857840750002936,-0.45235842003305937,23.31169886544651
1760959388.0023549,2.2376122579527227,0.12658962766309179,1.0785552955765731,-0.12341895150728273,-10.225916202988312,-1.5781986200948264,22.94000093424643
1760959388.0124588,2.585019995516343,0.15814770815528095,1.0956485270540477,-0.10949616083501715,-10.694838520970883,-2.1736280354801196,22.238885905191488
1760959388.0222993,2.9460840421252255,0.1873830531960785,1.1106795082033785,-0.09138054882910575,-11.280767345067627,-2.1389109144745255,21.174598233720893
1760959388.03223,3.3118578151770457,0.21220558944900547,1.1227053351126757,-0.06902407973352519,-12.000831328185171,-1.4179044045742,19.723128654998934
1760959388.042331,3.671745425438777,0.23087245295405803,1.1308649691092354,-0.04277403605089852,-12.872017831548987,-0.006148176066088776,17.873137875033887
1760959388.05226,4.014283967296988,0.2422231948607899,1.134449122375135,-0.01340153437366865,-13.909194095444727,2.0472558149270745,15.628168467730374
1760959388.0623157,4.328042954285305,0.2458207534651883,1.1329801701759836,0.01791535563654264,-15.122305958224867,4.644378750650009,13.007871262871946
1760959388.0722935,4.602506300822012,0.24197223413461014,1.126289454960687,0.04966235392550906,-16.513012758592282,7.6491184117598285,10.0480475354062
1760959388.0823267,4.828817123212812,0.2316314341565541,1.1145720241254256,0.0801144559636432,-18.071215900666274,10.90211037340157,6.799380528533386
1760959388.0923603,5.000303328530358,0.21621037208790475,1.0983985540261307,0.10750645422848856,-19.772072707425707,14.237604630202558,3.3248132891048505
1760959388.1025093,5.112747564751573,0.19734264407040494,1.0786734594436052,0.13022833744458653,-21.574108965742514,17.499789212796433,-0.3043429166853466
1760959388.1122286,5.164403423562935,0.176643666102821,1.0565449470874377,0.14701840578449743,-23.418934597738414,20.556234546213084,-4.013307236206168
1760959388.1222298,5.155783602139195,0.1555042106986359,1.033288574017886,0.1571249803155142,-25.232856234248036,23.306737787599975,-7.729276424359487
1760959388.1322482,5.0892597785715825,0.13494159803733113,1.0101906552672903,0.16041052402018238,-26.93042438039001,25.686783363092868,-11.386793246982323
1760959388.1421552,4.968527666015815,0.11552318992417684,0.9884495029367217,0.157379187536214,-28.41969737448163,27.665873913947205,-14.932308411217347
1760959388.1522174,4.798006975781649,0.09736897231717483,0.969099015232457,0.1491194171303031,-29.608776084248962,29.24181757614638,-18.327231672693408
1760959388.1622996,4.582258737474633,0.08023041036529506,0.9529505134977007,0.1371659409765077,-30.41298132623293,30.432476653659737,-21.548961755933888
1760959388.1722987,4.325502674958899,0.06362964586103867,0.9405486521354696,0.12329911405865623,-30.76192585929522,31.266486721771805,-24.5897191359269
1760959388.1824107,4.031300148094134,0.04702907851240298,0.9321426037985266,0.10931312429070009,-30.605693942221226,31.77420144565962,-27.45338238312584
1760959388.1923594,3.702436105969453,0.02999346653764951,0.9276784862329466,0.09679332110488485,-29.91941136369775,31.97980025901062,-30.15086577612145
1760959388.2021897,3.340995691748774,0.012311015438733421,0.9268184402605028,0.0869400104280117,-28.705669219119326,31.89523930251088,-32.69482332878448
1760959388.2122917,2.948597596165068,-0.005945942286089358,0.928986344731175,0.08046150192300082,-26.994503936768158,31.51656125995237,-35.09456582112457
1760959388.2222517,2.5267226181383147,-0.024425281842231413,0.9334349795095407,0.07754260321799258,-24.84087888323403,30.822957906242937,-37.35199742000774
1760959388.2323816,2.077063761473369,-0.04255896905162728,0.9393279388375868,0.07788396496830147,-22.31986457787998,29.77880550066103,-39.45915842117238
1760959388.2422028,1.6018242762125106,-0.05967370086674339,0.945829354986913,0.08080116722299434,-19.52001998303903,28.33859625976878,-41.397689572083095
1760959388.2522814,1.1039028412915202,-0.07512814442815227,0.9521918945331466,0.08536614880817366,-16.535834632847696,26.454279456484475,-43.14027083718559
1760959388.262424,0.5869292224064043,-0.08845020971560726,0.9578298627108685,0.09056806100757617,-13.460383457277667,24.084085097320056,-44.65384840021611
1760959388.2722425,0.055145014995595314,-0.0994452537577096,0.9623640918058737,0.09546865342967349,-10.379381450863729,21.201541137344744,-45.90425064888485
1760959388.2822678,-0.48684391942897565,-0.10824956220322952,0.965630238314028,0.09932969682965061,-7.367496525902968,17.803220898191174,-46.86160468698053
1760959388.2922578,-1.0343910804365009,-0.11531345305177682,0.9676499389347143,0.1016956124479353,-4.487174312390568,13.913856096118398,-47.505795879325646
1760959388.302272,-1.583143343546906,-0.12131355322711815,0.9685722577120949,0.10242183244074084,-1.7895725531044788,9.587844682246029,-47.83108679684078
1760959388.3122125,-2.129321233642886,-0.12701069495518486,0.9685996105449225,0.10164727682005743,0.6832856328092357,4.9068029783820615,-47.84899248082694
1760959388.3222091,-2.669896599797764,-0.13308362321598435,0.967917062007392,0.09971781393021098,2.896227562993205,-0.026470567375483686,-47.588669756297065
1760959388.332271,-3.2026430105561428,-0.13997525584898712,0.9666448710424036,0.09707730190631196,4.8194899515617,-5.0965792143770825,-47.094449295883905
1760959388.3423405,-3.7260608114875065,-0.14778607457104942,0.9648288991219373,0.09415170669202429,6.428720650470797,-10.18514202036625,-46.42067732652573
1760959388.352447,-4.239202015804443,-0.1562390198786275,0.962471387512438,0.09125449520945739,7.706488422685424,-15.179780050254065,-45.62463024990795
1760959388.3622477,-4.741435991892646,-0.16472400507736545,0.959589619331697,0.088534414507632,8.644819111532719,-19.98105256827863,-44.75876542156443
1760959388.372479,-5.232203406406601,-0.17241171489005805,0.9562790309126745,0.08597233721486665,9.247889782492342,-24.50645003099892,-43.8638134760051
1760959388.3827147,-5.7108036415887184,-0.17841139733428904,0.9527553999444572,0.083418855083177,9.53391764129675,-28.69121991508994,-42.964104173384534
1760959388.3921697,-6.176252335491843,-0.18194054707886528,0.9493580386001651,0.08065578086968528,9.535493306459342,-32.48644785829926,-42.06606924824175
1760959388.402532,-6.627233445312994,-0.18247627056428872,0.9465092705764541,0.07746590245245225,9.298015833652876,-35.85532247935786,-41.160200437913076
1760959388.4123569,-7.062155969037444,-0.17986548123828258,0.9446397995408441,0.07370205288965756,8.876324683170408,-38.76882408069599,-40.226011905491816
1760959388.4223428,-7.479309951632916,-0.17437990713026957,0.944098930706106,0.06935066575670239,8.329976363285246,-41.202147471177156,-39.23891870422397
1760959388.432474,-7.877100612932219,-0.16671002876495067,0.9450696451280839,0.06458369337473888,7.71784929047091,-43.13293448259095,-38.17754667389168
1760959388.4422739,-8.254325446939532,-0.1578994381232941,0.947503348891002,0.05979059132646701,7.092875416262983,-44.541861689040864,-37.029948181407086
1760959388.452468,-8.610449925855683,-0.14922831723729,0.9510830062784481,0.055583280841894324,6.497668197407641,-45.415447128832234,-35.79753733341556
1760959388.462323,-8.945835586715448,-0.14206149220922848,0.9552200228993691,0.0527708100835184,5.961631825249367,-45.75031713472732,-34.49618318924405
1760959388.4723282,-9.261880674385349,-0.1376813855926315,0.9590891119699124,0.052303799767932736,5.499836962033722,-45.557771997376925,-33.154617142977656
1760959388.4823139,-9.561046846262293,-0.13712776285518277,0.9617031737118789,0.05519070436161817,5.113615473434934,-44.867373569024736,-31.8108997002155
1760959388.4923277,-9.846762824186778,-0.14106442173563397,0.96202518050534,0.06239005812526248,4.792549359285772,-43.72844044975893,-30.507995696412557
1760959388.5023565,-10.12321411621949,-0.14968914496706853,0.9591075462429443,0.07468651120317264,4.517373749753857,-42.20871521150842,-29.289494533419912
1760959388.5122612,-10.395044413764728,-0.1626984426934269,0.9522433982012654,0.09256270139723687,4.263296688309478,-40.38997363826143,-28.196259590671218
1760959388.5222588,-10.667007045008527,-0.17931308434177803,0.9411090559529839,0.11608217477868628,4.003315331328955,-38.36089278630219,-27.264412288179184
1760959388.5323,-10.943612340996955,-0.19836401991515376,0.9258727205109595,0.1448004359117375,3.7112076541755448,-36.208003416319855,-26.524650948333637
1760959388.5424008,-11.22881755148669,-0.21843096727288774,0.9072416476110394,0.17772291044075955,3.363952583711798,-34.00594139805463,-26.002551451547827
1760959388.5523431,-11.525799091387453,-0.23801787563448132,0.8864220211702034,0.21332956868794986,2.943379920432292,-31.808417663162768,-25.7192649627685
1760959388.5622485,-11.836832621252137,-0.25574162268804007,0.8649782881642302,0.24968069658795045,2.43691884473132,-29.641318664215742,-25.69197168650148
1760959388.572358,-12.16328677306136,-0.2705045541257649,0.8446056580373354,0.2845992630999142,1.8374602099215833,-27.499133735005596,-25.933578288385405
1760959388.5823536,-12.50571498869081,-0.2816203753092818,0.8268629973442888,0.3158949167625708,1.1425904364323907,-25.345510463537067,-26.45140382959279
1760959388.592224,-12.864011713677906,-0.28886960903012127,0.8129335747696668,0.3415733444212758,0.35372436422834636,-23.11820194131772,-27.244882668509376
1760959388.6023407,-13.237588506505118,-0.29247653546456653,0.803472390996357,0.35998477221701225,-0.5241652071417578,-20.738043274502953,-28.30253239462737
1760959388.6124783,-13.62552517801106,-0.2930193218601143,0.7985659317212851,0.3699023053183213,-1.4815700747366063,-18.12098026495441,-29.598557798193138
1760959388.6222572,-14.026661023153837,-0.2913001056080771,0.7977933826114307,0.37055364616049985,-2.5018941154573047,-15.191713813941048,-31.08951057005961
1760959388.6325345,-14.439608378505765,-0.2882065834562606,0.8003548788836125,0.36163356634103433,-3.5575574641725423,-11.89732985299876,-32.7114449219686
1760959388.6424818,-14.862688451138686,-0.2845911378565301,0.8052263188606555,0.3433057308483111,-4.6056288361680195,-8.219372023085443,-34.378044486917844
1760959388.6523285,-15.293800742641391,-0.2811810944140588,0.8113060619372598,0.31618824880152846,-5.584371383812857,-4.183101866128826,-35.980257628451106
1760959388.6624227,-15.730241752364062,-0.2785210741129304,0.8175299069730714,0.2813214069458713,-6.412276279907533,0.13697351125374677,-37.38802082023592
1760959388.6723745,-16.168493146850558,-0.27694316145727277,0.8229447576521288,0.2401261182247203,-6.990888618730124,4.615997972648113,-38.45458507324617
1760959388.6824574,-16.604010827113758,-0.2765636128494801,0.8267469375096318,0.1943625583056098,-7.212013979815635,9.082670950129161,-39.02372266754598
1760959388.6925178,-17.031061423115876,-0.2773086805230342,0.8283032716068438,0.14608986021413256,-6.968895745695051,13.328570051304675,-38.93969258530622
1760959388.7023818,-17.44266211796263,-0.27897038575448296,0.8271766702879443,0.09761647894305792,-6.1699213106798005,17.122851764967027,-38.0593695586213
1760959388.7121685,-17.830676252960004,-0.28128641228307755,0.8231728833106884,0.051423111943513955,-4.75262940931469,20.231551810893862,-36.26549973558659
1760959388.7223706,-18.18609952075429,-0.2840304832411436,0.8164146477143543,0.010040905983157973,-2.695507478578971,22.439853118703297,-33.47971475161018
1760959388.7323914,-18.49954190408828,-0.28709318583801413,0.8074364099982121,-0.024121248867643184,-0.02541122243056336,23.574928352567607,-29.673772819719115
1760959388.7426364,-18.761873451727823,-0.290530229645012,0.7972788512470999,-0.048989126497962915,3.180697417721009,23.526479628317528,-24.877549413261214
1760959388.752587,-18.96496460384982,-0.29455777303073766,0.7875498873656528,-0.0630473946696491,6.799914655106351,22.262076372228776,-19.182589520569483
1760959388.762482,-19.102422334412065,-0.2994834974926198,0.7804117633419343,-0.06553789356218784,10.672700571314797,19.834964618079635,-12.740526082099077
1760959388.7725263,-19.17020885900393,-0.3055760140147946,0.7784572124400717,-0.056593741452405,14.615872000543565,16.38313183957227,-5.756280413095019
1760959388.782285,-19.167035268859117,-0.3128920490851285,0.7844539944043564,-0.03727962095039345,18.43748994576306,12.119782473639942,1.523445867656598
1760959388.7922566,-19.094452587076095,-0.3210997096993252,0.8009647110350043,-0.009523406800711974,21.951861611980217,7.31664633580786,8.825427516898493
1760959388.8023248,-18.95661774565386,-0.32935318841364897,0.829882465102225,0.024058723964099117,24.993146054469253,2.2824272327974944,15.867661614493475
1760959388.8125002,-18.759780259577905,-0.33627867582329773,0.871955041379321,0.06042509824744154,27.426407453860985,-2.660924364642704,22.378095591185627
1760959388.822209,-18.511592994732492,-0.3401105702612622,0.926390699230974,0.09642517337181898,29.15527409276615,-7.201571656912081,28.112600692417963
1760959388.8321989,-18.220375367153736,-0.3389711587329103,0.9906384807904952,0.1291232755080755,30.125652679164588,-11.058831834916203,32.87039842207856
1760959388.8423948,-17.89444470638611,-0.3312341996273424,1.0604149685744462,0.1560784228672625,30.325367754674563,-14.000809614682462,36.50548544244329
1760959388.8522782,-17.54159367481746,-0.31587978986903775,1.1300171011907274,0.17553672391686945,29.78027945325102,-15.858357557307224,38.93336198468752
1760959388.8622513,-17.16874633838481,-0.29275053911457194,1.1929247019874958,0.1865092714145825,28.548294442788656,-16.53549444629357,40.13329363157517
1760959388.8723638,-16.78178676343812,-0.2626523773747815,1.2426521215633306,0.18872915051870326,26.713341844901148,-16.01619393078664,40.14703681635641
1760959388.8822865,-16.385530146177544,-0.22728840623776428,1.273746785200046,0.182504254500069,24.381327527668013,-14.36677137795694,39.07514118516411
1760959388.8922997,-15.983799725139232,-0.18905393578358273,1.2827612043539989,0.16850481091335745,21.67903370074109,-11.732415313207579,37.071579077209236
1760959388.9023595,-15.579578140317123,-0.15074562431028599,1.2689764282871023,0.14754062989911743,18.75517563254065,-8.32634213744045,34.3368032460761
1760959388.9123304,-15.175208965132716,-0.11524204484167465,1.234668204534902,0.12039083668417191,15.781120007821665,-4.4110655766607225,31.108790813090646
1760959388.922306,-14.772623112490344,-0.08519818461470452,1.1848001180794756,0.08774431436674156,12.947908304788449,-0.2733175099865302,27.651492991902007
1760959388.9324496,-14.373553540762693,-0.06277447415412456,1.1261787058405384,0.05028165227343343,10.456689913469045,3.803566676244165,24.240425242238448
1760959388.9423664,-13.979686870033035,-0.0494073001554781,1.0662579661583311,0.008876044414122954,8.501494356608916,7.564748648646079,21.14571070144836
1760959388.952551,-13.592692998997135,-0.045628259821965805,1.0118746143572899,-0.03516833964690222,7.246016219193596,10.80209211741843,18.613493284008598
1760959388.9624085,-13.214084048903565,-0.05094893534816896,0.9681986922243712,-0.07995254784900302,6.798821534605608,13.3633809454751,16.8471699889759
1760959388.9722857,-12.844890996705958,-0.06383943988651837,0.9381035668412832,-0.12298688502557008,7.192953297429461,15.153169571278404,15.99035036692747
1760959388.9823701,-12.485212477341967,-0.08183447270544311,0.9220310832814029,-0.16139647595111467,8.375494670036922,16.12782815647267,16.11372654141014
1760959388.9922998,-12.13376743539143,-0.10179038235055926,0.9182999386840074,-0.19229202733659623,10.210307071621157,16.288002194180446,17.207903149113488
1760959389.002417,-11.78762977001303,-0.12028582573420113,0.923719840111464,-0.21321892437663126,12.493868253355132,15.671201739972956,19.183557084945374
1760959389.012383,-11.442299559430401,-0.13411509266457855,0.9343476593204958,-0.22258032891283033,14.981134717358922,14.346000866797617,21.87918930184272
1760959389.0224059,-11.092172221989546,-0.1407856124296772,0.9462404452638377,-0.21994325465801587,17.416462637241132,12.407878886508593,25.075523477274956
1760959389.0323114,-10.731347437460586,-0.13891703503795594,0.9560943589159829,-0.20616869721098535,19.564075020292538,9.9755987974302,28.51466617573338
1760959389.0424736,-10.354624920912407,-0.12845516810280372,0.9616904308499065,-0.18334275433929614,21.233234411973708,7.186623932089199,31.92170579209001
1760959389.0524273,-9.958491158266755,-0.11065415930612986,0.9620997974934917,-0.15451645947568118,22.294849736179593,4.190541430951404,35.02651254962654
1760959389.0624452,-9.541910305581881,-0.08783161195847275,0.957639871247401,-0.1232901790503267,22.6882272607667,1.1404893365661788,37.58393165125924
1760959389.072459,-9.106780742148326,-0.06295029884511968,0.9496164319484338,-0.09330890143193005,22.418524590940162,-1.8163935621366107,39.391072478941
1760959389.0823267,-8.657989936961245,-0.03911604819677834,0.9399240235684557,-0.06776087061816359,21.54680415557851,-4.547944097557216,40.30079738442894
1760959389.0923815,-8.203076628224766,-0.019095352099590138,0.9305968804666472,-0.04897631271422059,20.17531857414683,-6.943928606119032,40.2307741333332
1760959389.1022463,-7.751572922089591,-0.00494318777132327,0.9234004182964695,-0.03819645117956886,18.43086974956335,-8.920100221355229,39.16765501472289
1760959389.1122797,-7.314137571630914,0.0022038151516892697,0.9195333263441129,-0.03553737182303749,16.44883266569325,-10.419284435304377,37.16617373766953
1760959389.122345,-6.9016039136299066,0.0021568597351669066,0.9194802721167442,-0.04012965111333838,14.359798125685463,-11.410216994515572,34.34326585018627
1760959389.1323988,-6.524057595125479,-0.004448258220808795,0.9230219082253469,-0.050385445504863,12.27994668661704,-11.885415381481332,30.867727674493544
1760959389.1422508,-6.190036062415073,-0.01637816057071785,0.9293777549305977,-0.0643309402330669,10.305452817931906,-11.859449793512555,26.946383077269708
1760959389.152473,-5.905907392710296,-0.03207165730284398,0.9374342373887453,-0.07994095881221354,8.510580197126117,-11.368519315331666,22.80812099403435
1760959389.1622868,-5.675445824896178,-0.0498919787346712,0.9460000530537065,-0.09542186868591125,6.9486881082188585,-10.471393837099832,18.687359267109215
1760959389.1724024,-5.49958503012284,-0.06831502436341992,0.9540357698701438,-0.10940611069362968,5.655100640137447,-9.250862948084507,14.80839037074423
1760959389.1823697,-5.376308951899639,-0.0860305076036411,0.9608195794176891,-0.12104316851837749,4.650698270537117,-7.814161510013126,11.37172287258188
1760959389.1924243,-5.300641783499532,-0.10195894058624326,0.9660291226317524,-0.12999304089640265,3.9452004707101462,-6.290649835463784,8.543106177849122
1760959389.202767,-5.264723975703592,-0.11520979772757078,0.9697356733478261,-0.13634455788976835,3.539405648187538,-4.8254050675922295,6.44554812300778
1760959389.2124274,-5.258000129164109,-0.1250194881140566,0.9723211247933903,-0.1404893505937808,3.4260659526313026,-3.568255392990117,5.154360016622469
1760959389.2223997,-5.267576853926098,-0.1307078264043599,0.9743406409407172,-0.14298304011439922,3.5894983684481,-2.6589305082929307,4.695099727929612
1760959389.2324767,-5.278812738021128,-0.13167864649441963,0.9763635063864469,-0.14442010906880376,4.004392004184761,-2.210094868945256,5.044217898093407
1760959389.2424767,-5.276170567254221,-0.12747029845514427,0.9788291226534248,-0.14534008248647928,4.634516480665821,-2.2907894699173648,6.1322152599310655
1760959389.2523513,-5.2443050862605185,-0.11784357293718252,0.9819510619842384,-0.1461720017489281,5.432119033786469,-2.91307093286011,7.849135939237057
1760959389.2624254,-5.169299042619783,-0.10288316716843152,0.9856882245976911,-0.14721398671231198,6.338668834446106,-4.024381688149291,10.052186404535702
1760959389.2722344,-5.0399143391197505,-0.08308453997457649,0.9897824798354037,-0.1486378435594422,7.287276353188336,-5.507483570696728,12.575154202438663
1760959389.2825563,-4.848703067837046,-0.05939911154173285,0.9938442878396092,-0.1505069541448077,8.206687193208873,-7.188744271098903,15.239140821132155
1760959389.2924607,-4.592826032938642,-0.03321569618248396,0.9974565834659153,-0.1527979130103724,9.026367266750285,-8.854308829409836,17.863983960523964
1760959389.3024735,-4.274452870553095,-0.0062657533091194555,1.0002643928352546,-0.15541998406807853,9.681966598336292,-10.272404337771826,20.27966898760184
1760959389.3123825,-3.900668917314548,0.019542864230485502,1.002025515186904,-0.15823014654604511,10.120403347020645,-11.218966877815168,22.337011352984632
1760959389.3225024,-3.482887090573159,0.042336697406887815,1.0026158037297197,-0.16104536997642413,10.303902535298404,-11.503179743012616,23.916892266347073
1760959389.332366,-3.0358432990971886,0.060488430890411664,1.0020023072201896,-0.16365717477652836,10.212485373558469,-10.989494454924587,24.937337791773913
1760959389.3424153,-2.5763169975483247,0.07278613332725982,1.0002068039850227,-0.16585428358228124,9.844609709525571,-9.613252756769823,25.35780161136546
1760959389.3529382,-2.121746786917372,0.07853244740358109,0.9972780701440713,-0.16745564775870908,9.215927754188158,-7.3880043496984005,25.180217490259945
1760959389.3624337,-1.6889041610421445,0.07756670158419775,0.9932808995183273,-0.16834989760886884,8.356440231741129,-4.403825300354235,24.44673447457902
1760959389.37245,-1.2927577348730455,0.070218812508947,0.9883012666265205,-0.1685320229975375,7.306599996378226,-0.8171821695244381,23.234444845755384
1760959389.3824475,-0.9456165155688518,0.05721373317444193,0.982462452992426,-0.1681266007507166,6.113043923271508,3.166024027349551,21.64773727145597
1760959389.3925729,-0.656591662376701,0.039550465558481955,0.9759454378597288,-0.1673894197572651,4.824566607438681,7.311804402652043,19.80909044323851
1760959389.4024465,-0.4313691821734252,0.018379982516441205,0.9690069471903249,-0.16668420482229382,3.488749970976698,11.380986219104564,17.849182534913155
1760959389.41233,-0.2722487247813169,-0.00509860899617963,0.9619890545786359,-0.16643624986162103,2.149431227462583,15.1508880963609,15.8971655974646
1760959389.422392,-0.17838111186537264,-0.029712833928251137,0.9553146623887584,-0.1670692640801049,0.8449996506619257,18.433461308608617,14.071852496819682
1760959389.4323006,-0.14613061586515616,-0.05436068392901671,0.9494642660932558,-0.16893554947572934,-0.39261335451052365,21.08836766907872,12.474401550112415
1760959389.442284,-0.16949582964893817,-0.07802917022390772,0.9449322359104967,-0.17225212318417832,-1.538437729965344,23.030312232672266,11.182904957942172
1760959389.4522972,-0.24054228732366684,-0.09979857317432568,0.9421656230576181,-0.1770553334798311,-2.57462742910913,24.230680567280796,10.249128276368511
1760959389.4622896,-0.349825632651699,-0.11884554721048227,0.9414941323855969,-0.1831831876533879,-3.490380703346276,24.714060588802866,9.69750091145286
1760959389.472259,-0.4868086569694412,-0.1344563001343672,0.9430648705082916,-0.19028863321625647,-4.28164531290937,24.55056379191403,9.526295642282959
1760959389.482408,-0.6402915289802188,-0.14605539234167214,0.9467978627730761,-0.19788026468108538,-4.950586909673483,23.845049125834947,9.710762342183344
1760959389.4923916,-0.7988763305659243,-0.15324772016231522,0.9523754030793272,-0.2053814707994899,-5.5047732828911355,22.72444660729249,10.20782577361602
1760959389.5024166,-0.9514725007391179,-0.15586316817914195,0.9592692034085846,-0.21219625664407504,-5.956025765494608,21.32441436131337,10.961833274018232
1760959389.5125597,-1.0878240916312854,-0.15398883980364514,0.9667986274397006,-0.2177704120810096,-6.31892776296154,19.77655198702169,11.910742601896768
1760959389.522372,-1.199014518849644,-0.14797547021800336,0.9742078271605922,-0.2216400845275415,-6.609071534529255,18.19730475157978,12.992088125060013
1760959389.5324008,-1.2778903996247428,-0.13841131431567158,0.9807510382838954,-0.2234646565475682,-6.841244521796058,16.679482081600455,14.148091930947487
1760959389.5423136,-1.319347364219838,-0.12606465696742739,0.9857793006268568,-0.22304484716088413,-7.027846942874614,15.28698001990269,15.3294146073413
1760959389.5523174,-1.32043663279418,-0.11180236701543105,0.9888234647746899,-0.22032863771615083,-7.177843730077605,14.052906896007807,16.497242947126296
1760959389.5624254,-1.2802780408658085,-0.09649549036930628,0.9896656353354536,-0.21540720158501958,-7.296481883655791,12.980948752203465,17.623639663869128
1760959389.572339,-1.199796533435949,-0.08092355352799172,0.9883865607837633,-0.20850201881886427,-7.385875508168418,12.04952344553347,18.690297220841153
1760959389.582422,-1.0813265022023362,-0.06568816266574366,0.9853760983459887,-0.1999443675043827,-7.4464003155893845,11.218068891279485,19.686028712159583
1760959389.5922697,-0.928144629209414,-0.05114538553662536,0.9813020005379739,-0.1901496097450549,-7.47866682510177,10.434694215302251,20.603480622276454
1760959389.6024542,-0.7439945784311647,-0.03736556430197738,0.9770442471756753,-0.1795894635317787,-7.485687787270476,9.64439816046605,21.435642388374138
1760959389.6124964,-0.5326588714878193,-0.024127549523253015,0.9736086118112209,-0.16876398407838608,-7.474764987191321,8.797121598637217,22.17273026242087
1760959389.6225133,-0.297620880184012,-0.010951648901351838,0.9720314389409938,-0.15817170505642833,-7.458634173586779,7.855030734006871,22.799928755458943
1760959389.6324806,-0.04184862513491174,0.0028274019531286014,0.973283192074629,-0.14827384351658732,-7.455542373117092,6.798592222991435,23.29630370693082
1760959389.6425068,0.23227651061403373,0.017949589770215154,0.9781761720908844,-0.13944903566227773,-7.488171157317979,5.631150943520004,23.634997432119064
1760959389.65246,0.5228719131915588,0.035088283926436065,0.9872818371007337,-0.13193924924726222,-7.581605833388296,4.381799436355615,23.78460927963309
1760959389.6622846,0.8283069366958662,0.05469371725122223,1.0008630147854642,-0.12579370600767853,-7.760805095808694,3.1063101103980264,23.711474477520966
1760959389.6723654,1.1468219053767357,0.076846250521267,1.018824664659521,-0.12082281992629663,-8.048170277920965,1.8858221995768947,23.382419036155618
1760959389.6823876,1.4760716718715858,0.10115222447004157,1.0406845431646035,-0.11657544283809268,-8.461786077584824,0.8229204555305702,22.767547736587687
1760959389.692418,1.812686914110285,0.12671562582170853,1.0655644628616971,-0.1123495253620177,-9.014681936755215,0.034806622859529256,21.842742119665896
1760959389.7023602,2.1519652955499824,0.15220737399431664,1.0922054264182282,-0.10724077300012275,-9.715097132303034,-0.35648588564807554,20.591745047239254
1760959389.712465,2.4877934246068727,0.17603135198718228,1.1190143723330557,-0.1002284299786347,-10.5673608023203,-0.23642983470087633,19.00786272736856
1760959389.7223055,2.812854774817416,0.1965586412321622,1.1441525793884808,-0.09029245268811673,-11.572782750365475,0.488124353771097,17.095330520564797
1760959389.732365,3.119108445809532,0.2123785464474441,1.1656723891719285,-0.07655121901768072,-12.729981772860347,1.8752035507775282,14.870273168542502
1760959389.7424867,3.3984511472201504,0.22250667587373216,1.1816992219968045,-0.058403381310647,-14.034326974780745,3.936203807593632,12.361033809640245
1760959389.7524157,3.6434256596623387,0.22650169263985553,1.1906420409548646,-0.0356529045190796,-15.476520880200768,6.628778248968032,9.607557660928038
1760959389.762298,3.847830759777988,0.22447017401308147,1.1914011164041627,-0.008595082161596415,-17.040679368142882,9.855828160526553,6.659567902215978
1760959389.77225,4.0071219144124965,0.21697243206258227,1.1835323137678,0.021955110382663914,-18.70246292255351,13.471396734355498,3.573471070361777
1760959389.782476,4.11855407843723,0.2048678397164019,1.1673287107656538,0.054703166475394346,-20.427842365630937,17.293072117529,0.4082182738807793
1760959389.7926087,4.1810831493666205,0.18914731633443585,1.1437970289343906,0.08798407188042652,-22.172950606102155,21.11930534858427,-2.779372062147209
1760959389.8022768,4.195089418927093,0.1707927803253053,1.1145335036186816,0.11992872634936515,-23.885225364129806,24.749144726458635,-5.939139696228376
1760959389.8125787,4.16200590806696,0.15068528886111895,1.081528885108651,0.14866537141121938,-25.50575223564175,28.001490484682392,-9.031216420386396
1760959389.8222911,4.083930948114574,0.12956460998617209,1.0469439840260057,0.17252739219813887,-26.97245721377606,30.73114117412404,-12.028135389922838
1760959389.832367,3.9632875707228794,0.10803039619423753,1.0128939320712151,0.1902390862332718,-28.22365327188759,32.839562855794405,-14.915057474189057
1760959389.842618,3.8025706127034478,0.08657096733625688,0.9812677125493103,0.20105505912261154,-29.201451379336294,34.27928260825409,-17.688135769937073
1760959389.8524282,3.6042008777725845,0.06560685832350463,0.9535966548494477,0.2048335706881138,-29.854676081452403,35.05185454423849,-20.351380008191768
1760959389.862337,3.3704865370609505,0.045537550871184405,0.9309757145323131,0.20203107003566687,-30.141113131491572,35.200268929570555,-22.912567721114286
1760959389.8726437,3.1036758786098413,0.02677845229563963,0.9140363182767122,0.19361820400657825,-30.029092138614086,34.79734714477749,-25.378785841173794
1760959389.8824525,2.8060730882333513,0.009774262814783238,0.9029673059229869,0.18093356418177525,-29.498524496881185,33.9320332974296,-27.752163513851865
1760959389.8925548,2.480181446656785,-0.005020300309724791,0.8975762915738085,0.16550064211301466,-28.54154708007599,32.695569403162466,-30.026329136016596
1760959389.902435,2.128837207181776,-0.01719116664489399,0.8973768489872522,0.14883352482586867,-27.16286363143795,31.16937505980116,-32.18407590830765
1760959389.9124517,1.755301558075797,-0.02643605716204007,0.9016823621862279,0.13225654837798562,-25.379790406346384,29.416095406629374,-34.196619434235785
1760959389.9224215,1.3632858396417373,-0.03264024514583379,0.9096893623790907,0.11676651348639809,-23.2219890535596,27.47477868914606,-36.02467347513022
1760959389.9323359,0.9568958535530772,-0.035939823614222294,0.9205406908097862,0.10296441648541849,-20.730923559194856,25.360540811745118,-37.621373147810395
1760959389.9424922,0.5404942045906753,-0.0367562568418496,0.933367938610121,0.0910695706961049,-17.959135035216814,23.06841688370557,-38.936862154469004
1760959389.9523237,0.11849395533701004,-0.03578926913634496,0.9473193267181377,0.08100769526305973,-14.969410473463176,20.58046815097811,-39.924144420120385
1760959389.9624782,-0.3048892224887853,-0.03396108416373953,0.9615808073235826,0.07254608418175945,-11.833825014100107,17.8747217097393,-40.54558144086958
1760959389.9723532,-0.7258880069597715,-0.03231326721889048,0.9753949854602373,0.06543851603133774,-8.632521236847856,14.934276588704087,-40.77921064792963
1760959389.9823394,-1.1413939410273122,-0.03186727073839822,0.9880780008874497,0.05954144771712218,-5.452007729348307,11.754973054410279,-40.62391760558085
1760959389.9923565,-1.5490880990741966,-0.03346965299139819,0.9990324873874282,0.05487215161232928,-2.382736472764048,8.350397580308472,-40.102488613689445
1760959390.0024922,-1.9474666743801767,-0.03765007753584849,1.0077564808647865,0.05159767849095864,0.48421796870395006,4.753621300023864,-39.261764747655455
1760959390.0123234,-2.3357575953657697,-0.04452169714619451,1.0138524083029277,0.04996520347673657,3.0613837166596207,1.015798058451385,-38.16953561935465
1760959390.0223095,-2.71374744539479,-0.05374748577659637,1.0170427854749307,0.050201123489705755,5.269787438936749,-2.7976167021145586,-36.90840083586176
1760959390.0323377,-3.081557174567536,-0.06458319587215554,1.0171953281738229,0.05241207038654614,7.04406923679435,-6.611886358691012,-35.56745403164701
1760959390.0424552,-3.4394159798332753,-0.07599202155292241,1.0143512895800881,0.0565151888150587,8.337253042052367,-10.34806668441021,-34.23311814794041
1760959390.052494,-3.787482959146727,-0.0868126216047725,1.0087447985485876,0.062212418529660224,9.124619630911317,-13.927206507985392,-32.980623731446194
1760959390.0623221,-4.12575506682374,-0.09595281647386081,1.0008037155952785,0.06901088050066076,9.40621278225226,-17.2731949029638,-31.86744460354297
1760959390.072495,-4.454079218900835,-0.10257589911558418,0.9911316447711839,0.07628239370869158,9.20761337936305,-20.314247805448762,-30.929588367245152
1760959390.0823045,-4.77226166323284,-0.10624631918253392,0.9804769261507342,0.08334829399160042,8.578735263150657,-22.983416999116493,-30.18111910051742
1760959390.0923147,-5.080247045628328,-0.10700866834066106,0.9696909019352216,0.08957016207370973,7.590567422776814,-25.21876287959011,-29.616755915159104
1760959390.1022613,-5.378328787801308,-0.10538819985173861,0.9596703577065675,0.09442652520121306,6.330056192802443,-26.963929668634655,-29.21689387540024
1760959390.1124234,-5.667351262228867,-0.10231841998699241,0.95128053616095,0.09756243641994301,4.893659662983156,-28.169770697537267,-28.95399712061013
1760959390.1224155,-5.948868235784607,-0.0990149595652363,0.9452666495057924,0.09880847103932403,3.3803601994538393,-28.797402324821753,-28.79911461436495
1760959390.1325064,-6.225227234844395,-0.09682000378192561,0.9421703725875591,0.09817230643060554,1.8849340035399902,-28.822675530578973,-28.727346670856107
1760959390.1423612,-6.499555752366382,-0.09703884572187219,0.9422648490757596,0.09580920872449976,0.4920678992984518,-28.241609905707936,-28.721438475526277
1760959390.152671,-6.775635063933342,-0.10078500084485408,0.9455135764634849,0.09198017804695816,-0.7283500362645466,-27.07590320811522,-28.773187863487195
1760959390.162328,-7.057662358237633,-0.1088469330137556,0.9515553543618112,0.0870089775631198,-1.7246335978387566,-25.377316948506753,-28.882875417452443
1760959390.172393,-7.349920551529287,-0.12158797675222122,0.9597203475528037,0.08124940267958478,-2.4653859625940187,-23.229672486181784,-29.057320633155836
1760959390.1824412,-7.656394506600005,-0.1388900285615091,0.9690837724453651,0.0750696802357638,-2.9403432512693257,-20.74744302787094,-29.307354318930454
1760959390.1924894,-7.980388815907092,-0.1601496691667786,0.978557518166942,0.06885303387972866,-3.1600765150164123,-18.070449807363794,-29.64545202672189
1760959390.2022312,-8.324210814432995,-0.18433080785893252,0.9870079083748392,0.06300648002330649,-3.1546234011390397,-15.35481870912874,-30.084034856293194
1760959390.2123322,-8.68897759917522,-0.21006996651831522,0.9933775142145321,0.057968325373837434,-2.971053059665941,-12.760957346972903,-30.634595683881123
1760959390.2222881,-9.074586227861788,-0.2358216280258595,0.9967870024129923,0.054209820587023394,-2.6699193535349877,-10.439764199291858,-31.30745643849487
1760959390.2323534,-9.479856999909678,-0.26002572924001227,0.9966004421515747,0.052232707485199224,-2.320588104715074,-8.51854689068841,-32.11171430349371
1760959390.2424548,-9.902827440812827,-0.28127777745171856,0.9924511306948759,0.052562280162556804,-1.9955667689805627,-7.088218797968237,-33.0548697589064
1760959390.2524931,-10.341142318022756,-0.29848052213779697,0.9842395328912645,0.05572173664862124,-1.7641946602342709,-6.193308143105288,-34.14175205320716
1760959390.2624366,-10.792456530756867,-0.31095394589817676,0.9721226832405466,0.0621617750328051,-1.6862744621281365,-5.826186123225631,-35.37259640463505
1760959390.2726505,-11.25475616775235,-0.3184846556561687,0.9565089150731273,0.07213206433771184,-1.8063104520000828,-5.926649877300277,-36.74038409418728
1760959390.2823517,-11.72652375972225,-0.32131143327979805,0.9380553270507804,0.08552032421142033,-2.148889313762054,-6.387470219109124,-38.227760576393116
1760959390.2926543,-12.206722650985965,-0.32006046656792625,0.9176497631248349,0.10171918133092993,-2.715461522951545,-7.065705292768862,-39.803969255675916
1760959390.3024251,-12.694624502076351,-0.3156467480219198,0.8963571588505967,0.11958018674530446,-3.482530000386601,-7.79865070343264,-41.42228425617174
1760959390.3123846,-13.189528258729617,-0.3091505176766854,0.8753252937065138,0.13748349167195967,-4.401175502279692,-8.422525444707235,-43.01841754154043
1760959390.3223217,-13.690420284517717,-0.30167638240549,0.85566621045031,0.15351548863777495,-5.397979351970117,-8.79160900782005,-44.51033455613891
1760959390.3325262,-14.195621779676582,-0.29421285010516346,0.8383402742119117,0.1657184838163419,-6.3776654410275935,-8.795597463155211,-45.799839925248314
1760959390.3423946,-14.702471125990876,-0.2875194431892377,0.8240647607518717,0.17236036293719154,-7.228002952365544,-8.373306430356312,-46.77618246740528
1760959390.3523731,-15.207091889042117,-0.28206619847811315,0.8132563318533164,0.17217336058822136,-7.827486761604182,-7.521326509443302,-47.32176801661964
1760959390.362403,-15.704294312684816,-0.2780361661325846,0.8060059077828506,0.16452734364070057,-8.055921579297555,-6.296709910719264,-47.319839782567996
1760959390.3723288,-16.187644569235623,-0.2753823200005447,0.8020788532458688,0.14952285773618856,-7.807297417299484,-4.813217553610367,-46.66367011647669
1760959390.3824353,-16.64971168731699,-0.2739143164295574,0.8009343823335469,0.12800333786489448,-7.0034370883102985,-3.2311296117910207,-45.266434024326536
1760959390.3925235,-17.082471216375794,-0.2733838493025165,0.8017646972710213,0.10149313108182448,-5.6061660152657,-1.7411841970424031,-43.070601002091024
1760959390.4027169,-17.477814050569584,-0.2735414225440846,0.8035612594937441,0.07207059988562807,-3.6255837854112802,-0.5438926388160802,-40.05550479226021
1760959390.4125662,-17.82808567445992,-0.2741499276535562,0.8052164566885099,0.04218654139964478,-1.1225618674300464,0.17377447773868646,-36.241805611844924
1760959390.4224694,-18.12657203491801,-0.27495740849078504,0.8056615093839569,0.014441334663878477,1.795347319160374,0.2617081458107581,-31.691869261441237
1760959390.4324632,-18.367857603655793,-0.27564725505365467,0.8040284723101495,-0.008658592140238348,4.98420903815053,-0.37291112199783194,-26.50564525505312
1760959390.4424376,-18.5480084128472,-0.2757929345067891,0.7998116760586214,-0.024937137187938073,8.278804218447247,-1.7507406878808138,-20.81237391026327
1760959390.4523647,-18.664571113468554,-0.27484326214101684,0.7929985260316402,-0.032749113939308266,11.510415296715877,-3.812864738437214,-14.759228632445941
1760959390.4623594,-18.7164171398803,-0.27215451121165546,0.7841449522456246,-0.031124148869525026,14.52487852841635,-6.421644353060743,-8.498581039068519
1760959390.4724479,-18.70348821934477,-0.2670716590503117,0.7743856208449011,-0.019845502833970158,17.198557368174097,-9.369452582661124,-2.1758238993364345
1760959390.4825652,-18.6265116574962,-0.2590479995802159,0.7653855460680911,0.0005325292008888444,19.450246549900083,-12.393957793067539,4.080388922869561
1760959390.4924557,-18.48675486434724,-0.24778430648118024,0.7592455509284911,0.02871786989839415,21.24749709624122,-15.198069236775034,10.163954936183938
1760959390.5025127,-18.285883712435467,-0.2333661959934028,0.7583632011659024,0.06275489678250033,22.60638493148664,-17.47259963508461,15.992206940944895
1760959390.5124283,-18.025977520834036,-0.21637785953773978,0.7652351384086701,0.10013855556958318,23.58440294744044,-18.920057090217327,21.501644182088732
1760959390.5225616,-17.70972851405584,-0.197968030658431,0.7821854213313532,0.13797621625725348,24.26704754622323,-19.278495736123496,26.639189091811048
1760959390.532447,-17.34081243711073,-0.1798401294543525,0.8110230519229633,0.17320634761710005,24.74974903231016,-18.34469209516827,31.350593197562095
1760959390.5425382,-16.924365403508066,-0.16413870483982382,0.8526601200889007,0.20287383209441878,25.117814784762565,-15.995854005644278,35.56847510111495
1760959390.552446,-16.467454005980223,-0.15321630761400581,0.9067482369752707,0.22444332802489028,25.427719063605274,-12.208613989082432,39.2030490005459
1760959390.562309,-15.97939837104975,-0.1492916363446354,0.9714085640448563,0.23610708923787566,25.693189682171532,-7.073381698788364,42.13863780422387
1760959390.5723727,-15.471813811887284,-0.15404429704650313,1.0431351128074176,0.23702177302954822,25.879040531962588,-0.8014987968623493,44.23837545139871
1760959390.5823362,-14.958277504032937,-0.16821990029491832,1.116937391042474,0.22740878173471377,25.904598375323953,6.277619554627194,45.35809497924646
1760959390.592385,-14.453592112030627,-0.19133011220165153,1.1867550549812176,0.20848527698919145,25.656993705771303,13.731744217365497,45.36848452705678
1760959390.6024592,-13.972693360274144,-0.22152410099779452,1.246127882276463,0.18224275288589334,25.012790367216652,21.054616853387742,44.18252657883217
1760959390.6123166,-13.529319869395469,-0.2556857543797939,1.2890471085578437,0.1511273046713341,23.864754716782073,27.70742856466635,41.783432355889246
1760959390.6223128,-13.134621553747523,-0.2897781910894469,1.3108593688113879,0.11768609870104149,22.149302225399467,33.16986169837622,38.2471733878565
1760959390.632439,-12.79591897796748,-0.3194111294705326,1.3090569820312834,0.08423637245406745,19.869540625774817,36.99530666115305,33.75371941958696
1760959390.6423905,-12.515829904769006,-0.3405467543347785,1.28378514691548,0.05260146554890401,17.109093127028178,38.8630763813312,28.58257531604209
1760959390.6527596,-12.291939874482432,-0.350199923774981,1.237937686751863,0.023951134299654116,14.033190560027528,38.61963231649633,23.09124457842403
1760959390.6624444,-12.11710790455071,-0.3469618004486569,1.176794171771521,-0.0012222144907098654,10.875728783997193,36.30146081443926,17.679258542066364
1760959390.672369,-11.980380096831666,-0.3312109993793216,1.1072531303226611,-0.022976068870364456,7.91360033303885,32.13450740580597,12.744088296540186
1760959390.682497,-11.868362655218682,-0.304965878835218,1.0368080817333347,-0.04165972864033596,5.431988001930779,26.508838856573895,8.637176870646096
1760959390.692229,-11.76681478039319,-0.27143353183006014,0.9724669643689576,-0.057593539177026025,3.685968366059741,19.931781107421262,5.627870777801105
1760959390.7022958,-11.66218494907054,-0.23438209625893536,0.9198184781508347,-0.07078895265358019,2.864515998090969,12.966971354818375,3.880649964735455
1760959390.7122726,-11.54283897890994,-0.1974847987780802,0.8824040186432477,-0.08081200582677184,3.062807707074108,6.169302186730131,3.4477690707973374
1760959390.7224007,-11.399807925594112,-0.1637637609702791,0.861474968624114,-0.08684700927924761,4.267564576931495,0.02593726633913309,4.276207342517307
1760959390.7323081,-11.227000677018777,-0.13521911468299527,0.8561254858031957,-0.08794579383481729,6.357991159605389,-5.08840808335383,6.225393544203609
1760959390.7422457,-11.020952159098945,-0.11268249963950112,0.8637184607386058,-0.08338476994327897,9.121956454582978,-8.937122673703717,9.090953016540775
1760959390.752449,-10.780276457254875,-0.09589138093661023,0.8804858987778725,-0.0730196323608905,12.284204294870912,-11.427321506597888,12.629808669251753
1760959390.7624848,-10.505034985387555,-0.0837443576106899,0.9021844331682383,-0.057528885029869,15.541456482853961,-12.597888986046662,16.583067117896075
1760959390.7724452,-10.196209202512245,-0.07467204656094732,0.924707212809256,-0.03846752146972377,18.59864439022616,-12.594805959439444,20.694671980368625
1760959390.7825584,-9.85540484572693,-0.06704698513809751,0.9445807057728498,-0.01810406743227515,21.200998776795007,-11.63964776461675,24.72524997508929
1760959390.7924507,-9.484833982379028,-0.05955787007198269,0.9593041699476569,0.0009238561103195599,23.157997443416598,-9.996768178146676,28.461598541951737
1760959390.8024518,-9.087539040510478,-0.0514836437196218,0.9675191792941179,0.01604597900694958,24.35688462999732,-7.943294920133702,31.722807671331733
1760959390.8124006,-8.667752911659196,-0.04281980191851861,0.9690202263155714,0.025173564979183726,24.765289281944675,-5.74427889245799,34.36412329145974
1760959390.8223763,-8.231247806872574,-0.03423609535229893,0.9646281600509441,0.02699641170261744,24.424047486335276,-3.6337703141003415,36.27941691436005
1760959390.8324764,-7.785526512551025,-0.026881437043196205,0.9559498417749513,0.02111946930413865,23.432470510552893,-1.8016133604199522,37.40266282563461
1760959390.8424273,-7.339751571592802,-0.02208797131423125,0.9450534858034563,0.008044929370412221,21.928970905399726,-0.38539394948997996,37.70836343479774
1760959390.852644,-6.9043739581462455,-0.02104880925865324,0.9341062948384234,-0.010970243869095434,20.070228023964255,0.5329937279796665,37.210613048105415
1760959390.8625486,-6.490492772030583,-0.024546434029184435,0.9250368386718733,-0.03414362452526997,18.01194016975077,0.9265794421911051,35.96052567498394
1760959390.8725934,-6.109034190869832,-0.03279019153815933,0.9192801733693868,-0.059440665298533445,15.893620837138515,0.8187220521328821,34.04200507486993
1760959390.8824766,-5.769867603980915,-0.045385491050895295,0.9176364237434147,-0.08484751869797624,13.82891741351795,0.27509665602983363,31.566156916157915
1760959390.892379,-5.480973609807349,-0.06141721566918903,0.9202406391253869,-0.10860441690809004,11.901809582385022,-0.6072230128371333,28.66488568322462
1760959390.9024491,-5.247749989339033,-0.07960275983534151,0.9266217451561795,-0.12937206054803124,10.168051542952895,-1.7128678553679981,25.48429038312765
1760959390.912485,-5.072505528567668,-0.09846548077695166,0.9358259304344562,-0.1463178785505452,8.66049252822749,-2.9224353602063946,22.178347100006814
1760959390.9224653,-4.9541641678362645,-0.11649293588187253,0.9465853944909819,-0.1591240899274335,7.396467545106969,-4.126555951558778,18.903082630662592
1760959390.932563,-4.888189181900611,-0.1322637205147854,0.9575147124714719,-0.167931396845664,6.385306085025782,-5.238196752243592,15.81110826502217
1760959390.9426842,-4.8667324074257285,-0.1445407531503073,0.9673111522459134,-0.17323789069626033,5.634188937148249,-6.201658487159498,13.04614303077445
1760959390.9524593,-4.879005935185988,-0.1523337811018976,0.9749293070997218,-0.1757730798731157,5.151100602707084,-6.997022365679213,10.737144756361086
1760959390.9624438,-4.911858596354796,-0.15493393241014242,0.9797022053103465,-0.17636515192340801,4.944415281192007,-7.639333567781768,8.991926463520885
1760959390.97229,-4.950521311502639,-0.1519240562977675,0.9813925126078813,-0.17581833246861886,5.019545176855883,-8.17248208120464,7.890548404892498
1760959390.9823275,-4.979470456374353,-0.14317144434948822,0.9801743013572312,-0.174816427312879,5.37381698760365,-8.658485637262372,7.479137446290507
1760959390.9924283,-4.983350765618071,-0.12881194161693763,0.9765604265352065,-0.17386572728692315,5.9911199437616505,-9.163600332320833,7.764975387681184
1760959391.0023892,-4.947900681151056,-0.10923484780957414,0.9712972850584511,-0.1732829828350253,6.837839013691991,-9.743250280404032,8.71372720700671
1760959391.0123272,-4.860832050453606,-0.08507574586864138,0.9652480047244492,-0.17322305959091278,7.861235467248177,-10.428056838965007,10.249575544001095
1760959391.022448,-4.712626318240296,-0.0572186753959526,0.9592802645671364,-0.1737305544811753,8.990886937848606,-11.213204302616937,12.258768926977991
1760959391.03237,-4.49721295332218,-0.026800559770527498,0.9541685686598851,-0.1747946443781724,10.143164869674392,-12.053007397800497,14.596675630465592
1760959391.042379,-4.21249000404652,0.004796981140236854,0.9505152089847436,-0.17638862713323092,11.228126833795567,-12.861878944248854,17.097938544454685
1760959391.0524023,-3.860636015866969,0.03598589734160561,0.9486922351240039,-0.1784838720586713,12.15776453442293,-13.521989737905551,19.58887728012759
1760959391.0625927,-3.448156346734403,0.06505257897676779,0.9488091032523756,-0.18103895662365233,12.85437575693638,-13.89687431749276,21.900979675782295
1760959391.0724497,-2.985614630350366,0.09028250225113506,0.9507127400816745,-0.18397413513751906,13.257923162557194,-13.849235917017834,23.88418223490698
1760959391.0825138,-2.4870270069547207,0.11011589892863057,0.9540227086450678,-0.18714526028205122,13.331504001988034,-13.260442423830701,25.418629752907805
1760959391.0924122,-1.9689404134384205,0.12330990570067334,0.9581950627430345,-0.1903295724003616,13.064359895192723,-12.0488530146986,26.423716171179635
1760959391.1025493,-1.4492664227899434,0.1290771064304587,0.9626018839785041,-0.1932312571247893,12.47214269880335,-10.184257842389561,26.86344628116383
1760959391.112467,-0.9459847246307047,0.1271734298355567,0.9666137342115576,-0.19550976566219208,11.594428389495668,-7.696328092131728,26.747516833709025
1760959391.122459,-0.4758535732503667,0.11791925904394374,0.9696761978476666,-0.19682858938810252,10.489765470325414,-4.675925863697775,26.127976000916902
1760959391.1323717,-0.05326303420303173,0.10215246118466555,0.9713745552411888,-0.19691623653413406,9.228859017345737,-1.2691838588923932,25.091845886703144
1760959391.1423388,0.31065763733507573,0.08112566585085514,0.9714812698704937,-0.19562629446615132,7.886780188854467,2.334802054227947,23.75062406943493
1760959391.1524904,0.6086075235076702,0.0563686372711949,0.9699811644717026,-0.19298214677307998,6.535273376319127,5.9211495817077,22.228023746200776
1760959391.1623733,0.8373327157219058,0.029539213912200463,0.9670706909228397,-0.18919483531723622,5.236224797146069,9.26930613206018,20.64754943367696
1760959391.1726415,0.9975180515407642,0.002284330549010296,0.963130838802639,-0.18464822790114535,4.037120103637808,12.173965700388573,19.121448830331964
1760959391.1823618,1.0934099760509375,-0.023872961663670856,0.9586770459278263,-0.17985222575418847,2.9689072619357613,14.464590532710245,17.742240087616207
1760959391.1927462,1.1322480503130337,-0.047613020409328265,0.9542927323506446,-0.17537123685888084,2.04621340282624,16.021447438931467,16.577489133022915
1760959391.202472,1.1235831205717945,-0.06786708223154035,0.9505549331570062,-0.17174068116453062,1.2694597038303408,16.786403649322036,15.667943011493648
1760959391.21239,1.078547110257222,-0.0838397475757881,0.9479609732334225,-0.16938730803085908,0.6281622160072171,16.767317161803874,15.028646281654794
1760959391.2224333,1.0091231306994455,-0.09501414142295021,0.9468648830900165,-0.16856826465216107,0.10464705076958063,16.035631860299276,14.65237353336033
1760959391.232379,0.9274529718520652,-0.10114464505780855,0.9474317421085401,-0.16933943612521135,-0.32245983176139115,14.717621569909614,14.514616410442695
1760959391.242481,0.8452124216064844,-0.10223973436537305,0.9496169697405428,-0.17155717195896433,-0.6753590955922099,12.980483601527546,14.579394176982834
1760959391.2523217,0.773078852861937,-0.09853744420452105,0.9531749870248878,-0.17491079811641325,-0.9749584315086613,11.015045089761642,14.805216047752738
1760959391.2624307,0.7203067643482058,-0.09047717105182682,0.9576974844385456,-0.17897764497543545,-1.2394702065639347,9.017143675940776,15.150574247859332
1760959391.27235,0.6944159933907545,-0.07867168713302672,0.9626763812083835,-0.18328885748270451,-1.4836108649607065,7.169754121441702,15.578422901785666
1760959391.2825212,0.7009882100181628,-0.06388079272888662,0.9675810898549287,-0.18739366536979618,-1.7182750373503588,5.627672842444645,16.059244698627225
1760959391.2924104,0.7435648053214624,-0.04698339936913161,0.9719349900581847,-0.19091182524209732,-1.9505731710099472,4.506108734912522,16.572529016133437
1760959391.3025494,0.8236436576835413,-0.02894139098238995,0.9753748180086438,-0.19356764842737612,-2.1841325861794227,3.8739556264015755,17.10673978573144
1760959391.3125215,0.9407773909121162,-0.01075009252017607,0.9776815475765297,-0.1952034779362709,-2.4195602900750295,3.751926490286877,17.65807593947898
1760959391.3222942,1.092775235471021,0.006624197867477653,0.978780546507132,-0.19577492361541368,-2.6549696283983555,4.115176914169129,18.228469621347184
1760959391.3325396,1.276004545923712,0.022314297171177035,0.9787169949165009,-0.19533362935042267,-2.8864994125738477,4.899587667503883,18.82330726182554
1760959391.34234,1.4857807516729273,0.03562328673405855,0.9776164560409107,-0.1940049333127296,-3.108798528279899,6.010570129552751,19.449305481782194
1760959391.3525274,1.7168279480609074,0.04609076114770146,0.9756410991673184,-0.1919673648408135,-3.315494470991037,7.3331597557026225,20.11284841961438
1760959391.3625555,1.963785064526799,0.05354816743881089,0.9729515395128064,-0.18943893087732278,-3.4996991846667878,8.742284962925822,20.818918367454668
1760959391.372495,2.2217236729715597,0.058156375062136785,0.9696831842059588,-0.18667194657257086,-3.654619529420051,10.11238002578699,21.570559942039647
1760959391.38258,2.486634310675182,0.06041802653831772,0.9659437379273735,-0.1839541946309267,-3.7743192883047962,11.325845815449721,22.36865663509423
1760959391.3925543,2.7558309968694954,0.0611576067464596,0.9618345257358505,-0.18161042748966175,-3.854621786470243,12.280161897475024,23.2117131040338
1760959391.4026532,3.02822093866149,0.061464031957713265,0.9574926930805452,-0.17999601618121785,-3.8940637902500423,12.893663820733329,24.095344746399
1760959391.4125783,3.3043910293657675,0.06259444127363215,0.9531451213046914,-0.17947500206954595,-3.894742296041824,13.110095735078795,25.01126408167288
1760959391.4224455,3.586476894805751,0.0658437370588267,0.9491594667390734,-0.18037817714472126,-3.862870066055557,12.902036217579015,25.945697048429516
1760959391.4324622,3.8778040550676347,0.07239118911472385,0.9460747066505848,-0.1829423558911477,-3.8089036522380004,12.27320929925666,26.87734331066881
1760959391.4424329,4.182321709121389,0.083141643118167,0.9445946713010492,-0.18723833341497725,-3.7472370526168475,11.259579863860873,27.775193593362406
1760959391.4528012,4.50388356409316,0.098583502845353,0.9455342498224418,-0.1931006715966651,-3.6956276301271886,9.929029254688745,28.596698696369515
1760959391.4624817,4.845461906096205,0.11868759338482052,0.949718121385362,-0.20007605671397627,-3.674658678389382,8.37933613872298,29.286902595787257
1760959391.4725413,5.208404314649804,0.14286858191594118,0.9578426989117775,-0.2074073053766753,-3.7075622094464165,6.734174747802144,29.779164040783968
1760959391.4826627,5.591849810019605,0.1700225697750424,0.9703205482555083,-0.21406611465671724,-3.820585603224545,5.13691857096886,29.997963379585272
1760959391.4924448,5.9924069416264,0.1986413024445985,0.9871328307309525,-0.2188386890089333,-4.04380345310931,3.742220252837622,29.863998840440846
1760959391.5024555,6.404158306617182,0.22698739690557093,1.0077212371551931,-0.22045506237186582,-4.4119195981161825,2.705622181010241,29.301323957387076
1760959391.512481,6.818998343642242,0.25329987442926327,1.0309549157105844,-0.21773911696847284,-4.964311974831356,2.171809352399159,28.24573277039074
1760959391.522503,7.227247107352062,0.27599120983295894,1.055201528170077,-0.20974923845021823,-5.743559201169097,2.262484347651109,26.65310579546962
1760959391.5324268,7.618432268492723,0.2938015352590358,1.0785075960454982,-0.19588446424092765,-6.792103057421936,3.0651274902571686,24.50617309957506
1760959391.5425134,7.982111223751377,0.30589105034539754,1.0988590042615445,-0.1759443457888543,-8.147401543627941,4.624019302852805,21.818276295201244
1760959391.5525372,8.30861741931624,0.3118694258645756,1.1144661251082102,-0.15014286278322111,-9.836504378599882,6.934810704081812,18.6332428934986
1760959391.5626206,8.589649257151894,0.3117729100926899,1.1240113783718861,-0.11908188157684274,-11.871122741689977,9.94361523207151,15.021289674554152
1760959391.5723522,8.818660548218624,0.3060034107090185,1.126809476829502,-0.08369012884092014,-14.244000935867204,13.551041542064628,11.071683878351452
1760959391.582539,8.991045058036741,0.2952414339956558,1.1228553090191968,-0.045134487466551416,-16.926982055135248,17.620786830903548,6.883448877874333
1760959391.5925112,9.10412915481866,0.2803417711931254,1.1127624783223593,-0.004713822553813707,-19.870806097765744,21.991513562612372,2.5555932520266476
1760959391.6026354,9.156999557129932,0.26222162777826835,1.0976180940180227,0.0362499929490627,-23.006462079537297,26.49004022674723,-1.8217730952375988
1760959391.6124825,9.150203295848673,0.24175463775424957,1.0787921291786997,0.07650672766088557,-26.247819165043786,30.943690094466223,-6.174374779158271
1760959391.6223967,9.085365750174606,0.2196863732084093,1.0577430989661198,0.11494272272262321,-29.495242471693746,35.19002529157812,-10.448078439733605
1760959391.6325195,8.964778542281886,0.19658490752374855,1.0358567185067067,0.15060705475587158,-32.63991647823136,39.08297124884415,-14.61025933319448
1760959391.6426136,8.791011250556009,0.17283430448349743,1.0143404865097414,0.1826999036192477,-35.56862241520711,42.495263512905474,-18.648214652423377
1760959391.652648,8.566598623714906,0.148670841855797,0.9941784948330921,0.21053549477362493,-38.168732738156464,45.31802256669613,-22.56485343445203
1760959391.6625698,8.293846399365682,0.12425255132272345,0.9761349940444303,0.23350094371225813,-40.333201240297726,47.45891060395736,-26.372130066016197
1760959391.6725707,7.9747824012160065,0.0997444262018893,0.9607873903270302,0.25103477496358056,-41.96534578685542,48.840583413370894,-30.08296029350793
1760959391.6826425,7.611256251061652,0.07539711090982226,0.9485677819909263,0.262642466461486,-42.98323891522195,49.40091129446578,-33.70266608818668
1760959391.6924636,7.205164307393141,0.051597742402914086,0.9397932388359997,0.2679521434126593,-43.32354910389778,49.09572618857269,-37.22129018433509
1760959391.7023003,6.758751246544843,0.02887763205279843,0.9346690556978713,0.26679691639795206,-42.94472686791012,47.903847315002544,-40.60827429701722
1760959391.712437,6.274921408114409,0.007870978834549068,0.9332596589679022,0.2592982814175486,-41.82948974556267,45.833166776069355,-43.81083126694249
1760959391.7227263,5.757486546438,-0.010770146833369071,0.9354385510153005,0.2459214167176075,-39.9865949479425,42.925966558368,-46.756778530464075
1760959391.732529,5.211284857375413,-0.026488738460271447,0.9408426138793887,0.22747989433334215,-37.451888955151254,39.26156636257645,-49.36175612219455
1760959391.7424438,4.642128522953379,-0.03894016063540757,0.9488556637969929,0.20508452299953656,-34.2885882536411,34.95485672682625,-51.53987611350803
1760959391.752537,4.0565694562855645,-0.04808724450949778,0.9586312096459532,0.1800513062218464,-30.586647043370395,30.15011688951956,-53.21616371057074
1760959391.7624476,3.4615087337063324,-0.054249173483115275,0.9691481994833172,0.15379367137751349,-26.460918624104412,25.010525157907715,-54.33877769312741
1760959391.772583,2.8637062716292916,-0.058088593854938524,0.9792878121528125,0.12771986970835164,-22.047737602126094,19.704666705944017,-54.88898588551549
1760959391.782482,2.2692665167181443,-0.06053429873248691,0.9879230564836664,0.10314587678241037,-17.499662160660147,14.391911904919654,-54.88719491820756
1760959391.7924652,1.6831799309494226,-0.06265074072961005,0.9940174229704409,0.0812256070676759,-12.97838700694731,9.20868792145659,-54.39390975821841
1760959391.8025637,1.1089898947480132,-0.06547677051403303,0.9967276969922252,0.06289590938569709,-8.646123612475552,4.257436346125219,-53.505234833241126
1760959391.8124976,0.5486337992804767,-0.06986222783352031,0.9954995166848951,0.048833465867594,-4.655964656483076,-0.40041266014043636,-52.34334181892987
1760959391.8225014,0.0024796680195483776,-0.07633163609282764,0.9901383912485985,0.039423732396422835,-1.1419389968959905,-4.746631394108935,-51.043123013114055
1760959391.8326201,-0.5304499769178421,-0.08499919163761582,0.9808408157806143,0.03474537768015772,1.7903388582116049,-8.803197830481352,-49.73690041916586
1760959391.842628,-1.0521025425535813,-0.09554927710446638,0.9681810703413726,0.034573645486197124,4.0713639618063535,-12.62421135221521,-48.53943095536094
1760959391.8524158,-1.5649246046355592,-0.10728433395891188,0.9530619249260949,0.0384028406062834,5.6727064185501845,-16.283349950985773,-47.53542937691357
1760959391.8625646,-2.0713645929442253,-0.11923054375775667,0.9366417145035942,0.045485312001987716,6.60837015306915,-19.858129044604578,-46.77140731821126
1760959391.8724155,-2.5734192195143146,-0.13028348585294466,0.9202434089026625,0.054884346258238195,6.932083734384361,-23.412875990747853,-46.252898158524566
1760959391.8824818,-3.072284683291192,-0.13937094028739766,0.9052426719569054,0.06554049920735974,6.730656845207445,-26.982844562032632,-45.94727512087919
1760959391.892605,-3.5681555636991193,-0.1456086882557512,0.8929338508918298,0.07635221034923123,6.114200465308001,-30.562065141098017,-45.791553385810786
1760959391.902604,-4.060192101895888,-0.14842846747898805,0.884385935715388,0.08626923872025563,5.204556735228854,-34.0972294484857,-45.703920427704624
1760959391.91251,-4.546654775199954,-0.14766389362582888,0.8803130638990013,0.09439130160933225,4.1235395237878265,-37.4891420980817,-45.59730333254504
1760959391.9225025,-5.025185227013033,-0.14358661872706743,0.8809866385446804,0.10005771946402828,2.9824972996849524,-40.60213150847209,-45.39304951057183
1760959391.932518,-5.493194361697662,-0.13688941182723127,0.8862088772264368,0.1029114895457258,1.8743656503110495,-43.28044842264921,-45.032773778488576
1760959391.942481,-5.948302629565268,-0.12861675357104396,0.8953544420674769,0.10292507050803085,0.8689117574305992,-45.36932061101145,-44.486653590910514
1760959391.9525104,-6.388767501373462,-0.120049036883378,0.9074702547797678,0.10038358825122667,0.011369633285427791,-46.737307792034,-43.75698006665553
1760959391.962665,-6.813832824644924,-0.11255343036793312,0.9214083444284172,0.09583071584038104,-0.675841367885603,-47.296232532159216,-42.87657298301374
1760959391.972618,-7.223946091902292,-0.10742074141490128,0.935960374897764,0.08999001354391055,-1.1890781345112087,-47.01537797005013,-41.90259969916638
1760959391.9823883,-7.620811064250769,-0.10571086172541697,0.9499691126166525,0.08367787918543194,-1.5381989553852669,-45.927713250973284,-40.90715806053084
1760959391.992462,-8.00727011537377,-0.10812836796842377,0.9624065762808506,0.07772257533717788,-1.7412451486703169,-44.12734946383194,-39.966462092028316
1760959392.0023851,-8.387037275666321,-0.1149448288439018,0.9724220344045512,0.07289816943017777,-1.8201367732585343,-41.75891683580911,-39.15050881656098
1760959392.0124419,-8.764324218788172,-0.12597675517786272,0.9793691105907406,0.06987565299983452,-1.7980719628690804,-39.00078045811657,-38.514760314953456
1760959392.0224793,-9.143414364958694,-0.14061969312432862,0.982818830157157,0.06918913773598201,-1.698787442505235,-36.044761578862754,-38.09479443947023
1760959392.0325603,-9.528243821061103,-0.15793090883142594,0.9825589996690095,0.0712138066526931,-1.5472707127157375,-33.07525312076435,-37.90423254673843
1760959392.0425358,-9.922042213504996,-0.17674631635219465,0.9785776243831404,0.07615272180808592,-1.3710670141393801,-30.25040615522001,-37.935689530112874
1760959392.0525343,-10.327073179408368,-0.19581325427895302,0.9710323881445704,0.08402975375352463,-1.201130094369871,-27.68755821427019,-38.16409332326364
1760959392.0625608,-10.744496513675891,-0.2139208542871522,0.9602143992898907,0.09468524646925783,-1.071297165881378,-25.454376770742986,-38.551503877093154
1760959392.0724983,-11.17435516992839,-0.23001344060159032,0.9465160012811684,0.10777093453028151,-1.0158890032987073,-23.566369995032193,-39.05250135386925
1760959392.0824633,-11.615672880912086,-0.24327709689189803,0.9304086929189345,0.12274362055180028,-1.065495196226744,-21.990559861297697,-39.619275715062244
1760959392.0924287,-12.066633808212696,-0.25319343175066744,0.9124311865184145,0.13886337854807088,-1.241526087233142,-20.654345688241115,-40.205708220692706
1760959392.102534,-12.524806444059722,-0.2595581749284392,0.8931828089711871,0.15520722171115633,-1.5504898572449544,-19.458034551558832,-40.769969153281515
1760959392.1125035,-12.987372187939002,-0.26246672803245324,0.8733162798495836,0.17070877398786213,-1.9791417548309316,-18.289258692501686,-41.27543752974837
1760959392.1227343,-13.451325183459172,-0.2622735187419552,0.8535260724545904,0.184228462147978,-2.4916221448345546,-17.03754549575324,-41.69004036150312
1760959392.1324527,-13.91362195691056,-0.25953478741009944,0.8345313893387681,0.19464976126740186,-3.0294402804405713,-15.607576856082115,-41.98437448377565
1760959392.142669,-14.371273673354697,-0.25494458340243276,0.8170542119891853,0.20098827528217414,-3.5147254590965424,-13.930048591333515,-42.12917891277763
1760959392.1524966,-14.821387772056307,-0.24927292880776383,0.8017925907148139,0.20249561352298964,-3.856668626228719,-11.9694145295025,-42.09283886643186
1760959392.1626568,-15.261177125858662,-0.2433139980133623,0.789387945230218,0.1987411028304332,-3.9606152409563493,-9.728130090818507,-41.83960458000128
1760959392.1724298,-15.687960157766394,-0.23784843588449003,0.780383861708803,0.18965987875438164,-3.738886748942772,-7.247291650436744,-41.32909065273558
1760959392.1826344,-16.09917100699875,-0.23361607092782374,0.7751739064160816,0.17556301414969933,-3.122109517084111,-4.6038053515471224,-40.51738157949853
1760959392.1924536,-16.49238545009906,-0.2312872197319407,0.7739381811428083,0.15711182145688313,-2.0696146152464117,-1.9044215088564531,-39.359722530867934
1760959392.2025893,-16.86535190912507,-0.23141946112150083,0.776573592717136,0.13526308276121649,-0.5773528644155218,0.7228510160945708,-37.814381197287105
1760959392.2125196,-17.21600487414471,-0.23439441497409105,0.7826307030263842,0.11119486193466947,1.3181806962297613,3.13927609905047,-35.84692853704977
1760959392.222515,-17.542434365973033,-0.24034087929900613,0.7912772680368445,0.08622383735524171,3.5411732793566095,5.207051906822929,-33.43401303050488
1760959392.2325718,-17.84279006954575,-0.24906040861348666,0.8013110145585475,0.061723631511556784,5.983317444564323,6.8011859254358304,-30.56576585970027
1760959392.2424576,-18.115111745302503,-0.25997618631294056,0.8112400607950228,0.03904928536267936,8.515693906657598,7.820652310301183,-27.246274128417888
1760959392.2525454,-18.357097534943986,-0.2721259910493478,0.8194391004440158,0.01946813714855481,11.004188466793769,8.198012587531512,-23.492025612384957
1760959392.2625892,-18.565846793644646,-0.28421614965926334,0.8243743694440462,0.0040941379074737995,13.326191551121875,7.906897952983653,-19.328754882583876
1760959392.272487,-18.73763893570709,-0.2947454801598871,0.8248732838645467,-0.006178307657375765,15.386019465853705,6.96698115294646,-14.787592908596997
1760959392.2825563,-18.86782466402986,-0.3021949380751635,0.8203999915185342,-0.01074294672334945,17.12665103814185,5.44621004705436,-9.901715918079404
1760959392.2926464,-18.95089978828404,-0.3052606244135037,0.8112900846336533,-0.009349031009706852,18.535956747064365,3.4601164292523987,-4.704695316803726
1760959392.302491,-18.980800831528278,-0.30309072341284976,0.798897595476417,-0.0021555770750000245,19.64646764611811,1.1680175035390303,0.7685566890511568
1760959392.3125422,-18.95141489677132,-0.29547873909177386,0.7856131069831973,0.01024541257475942,20.528676848863064,-1.2340444536196842,6.477900569941409
1760959392.322583,-18.857250949668977,-0.28296993295230244,0.7747213792948618,0.026853880413905434,21.27871810736537,-3.5237078599474354,12.371470153148318
1760959392.3325613,-18.694189415325905,-0.26685270765810853,0.7700821408783382,0.04634329170694963,22.00194936237393,-5.465991941081669,18.377553520663067
1760959392.3424075,-18.460215328487774,-0.24902667134758621,0.7756424970190273,0.06719522801766013,22.79446259175501,-6.829999153198304,24.396381705863387
1760959392.35277,-18.1560433690774,-0.2317601361889104,0.7948235478247921,0.0878733494707696,23.72483277153831,-7.407967450156462,30.293680333988988
1760959392.3624382,-17.78555533253681,-0.21736894802317092,0.8298602112362506,0.10701647999292199,24.818505867734135,-7.0355721802081295,35.89793397005536
1760959392.3725343,-17.35598750658743,-0.2078631774074441,0.8812016897703487,0.12362193018486403,26.047120514587025,-5.611875680034165,41.00315241334974
1760959392.3826742,-16.877824958091846,-0.2046165953454223,0.9470922401661293,0.1371761988642138,27.324757431079792,-3.116802518903606,45.378454834486234
1760959392.3926673,-16.364382055857035,-0.20811498357408326,1.0234427668054857,0.14768411798558828,28.512564595085657,0.37640860656610003,48.784951565289646
1760959392.4025476,-15.831074449929483,-0.21783113570118048,1.1040702199863635,0.1555696520674715,29.432341032880146,4.696448358891793,50.99923668024567
1760959392.4124022,-15.294417291430145,-0.23225546363712973,1.1813249728828277,0.16146777839270054,29.888461414202492,9.57916548632194,51.841439581478404
1760959392.422641,-14.770817439367772,-0.24908508329154327,1.2470544863606272,0.16596627151939483,29.696104741506787,14.684125178293563,51.20444074322231
1760959392.4328845,-14.275262784668648,-0.2655485410673068,1.293776903302093,0.1693670619119852,28.712359623127416,19.622427817231184,49.079815181730304
1760959392.4426355,-13.820045805020769,-0.2788223255819976,1.3158726952352895,0.17152477244597958,26.865700927353767,23.993990272233706,45.575606287533994
1760959392.4525802,-13.41368269532948,-0.2864785870042347,1.310562001207081,0.17180062311099908,24.178821584666697,27.430607821005346,40.9214008914733
1760959392.462471,-13.060192115143186,-0.28689119049605205,1.2784443242776524,0.16915111241148562,20.780090091833383,29.639329658007107,35.45757846596979
1760959392.4725647,-12.75886764007815,-0.2795238354221103,1.223455708034725,0.16235113006329968,16.900168303605877,30.43946400131992,29.60808309867852
1760959392.482538,-12.504610617146948,-0.26503651969607045,1.1522366444867227,0.15032360709297987,12.852544366372472,29.78646884929681,23.839279173628814
1760959392.492429,-12.288792155843964,-0.24517855020070953,1.0730544011342003,0.13251060782706908,8.999554054297642,27.777484576628165,18.610597920200313
1760959392.5024128,-12.10050537525657,-0.2224810192641556,0.9945258358143858,0.10918902207500807,5.7082309146609065,24.636320869983383,14.324740206001383
1760959392.5123558,-11.927983148939468,-0.19980476818633622,0.9244063122080723,0.08163186225958535,3.3023720613263814,20.679819577284746,11.285449032035782
1760959392.5225174,-11.759923085924866,-0.17982946794764715,0.8686556817667919,0.052049794061803226,2.0181598737664133,16.271613071494915,9.669253399945518
1760959392.532554,-11.586495672325402,-0.1645811185708865,0.8308991920391945,0.023299547745901487,1.9704868342801793,11.772026892006021,9.514656725112351
1760959392.5423536,-11.399904423996874,-0.15508820251423142,0.8123048719923894,-0.0016005377723769304,3.135783468895918,7.493302592084789,10.728825811022501
1760959392.5523276,-11.194488991258101,-0.15123192527052423,0.8118209935347211,-0.02005716715583267,5.354603510210696,3.6674611505879655,13.108801508186772
1760959392.5626044,-10.966476410845338,-0.15181811469235154,0.8266663655435322,-0.030459060765650685,8.353714962150871,0.4307887598754286,16.372284622094668
1760959392.5724986,-10.713560434774738,-0.15485509390508895,0.852943941280208,-0.03255666484047029,11.783755457519021,-2.1748381837895967,20.19241913667732
1760959392.5825007,-10.434504927180468,-0.15798094797636367,0.886254164792764,-0.02754561201519181,15.265687622647922,-4.186824876121442,24.231522818520464
1760959392.5924017,-10.128922275154,-0.15895176843044753,0.9222170818233886,-0.01781316215121784,18.438119235259396,-5.698049375243884,28.16998348015395
1760959392.6024542,-9.797288034578589,-0.15608629774038263,0.9568631762915715,-0.006414078242278463,20.998204672816826,-6.830134043800348,31.72811331879341
1760959392.6124082,-9.441151152337245,-0.14856963329617456,0.9869026810600245,0.003566308170600095,22.730886374657274,-7.70886731264989,34.68029825827034
1760959392.6223974,-9.063423477487891,-0.13655483248207823,1.0099081065968833,0.009577061923051317,23.52389988659215,-8.44526002081415,36.86205993311474
1760959392.6325505,-8.66860920868031,-0.12105920342282364,1.02443552386157,0.009962749609250058,23.36852757315042,-9.123788397743242,38.17149331370613
1760959392.6425264,-8.262862849504245,-0.10370736470968317,1.0300816742816075,0.004084499247962587,22.348111384215933,-9.797597170833647,38.56685149136423
1760959392.6524436,-7.853817773276961,-0.08640101462487801,1.027452701055691,-0.007756141713900851,20.61766397375612,-10.489197315656305,38.06184943614018
1760959392.662399,-7.45017983221028,-0.07099147345356195,1.018023901024592,-0.02451646814988054,18.37852455418721,-11.194715620423453,36.71973359755622
1760959392.672433,-7.061119602913864,-0.05900882264148031,1.0038971705422173,-0.04466815175941119,15.851949194634164,-11.889998697192611,34.64658160914484
1760959392.6824608,-6.695523687719403,-0.05147541119225043,0.9874948648333705,-0.06646297968927951,13.254953192375098,-12.537509602788777,31.983884163230034
1760959392.692527,-6.361184739469112,-0.04881109226518813,0.9712446083420933,-0.08817936989732092,10.78082932206619,-13.093535580629789,28.9003159804566
1760959392.7025032,-6.0640236368380815,-0.05082632239585942,0.9573041906953467,-0.10832855390122066,8.58572602554941,-13.515481478749313,25.58268140471306
1760959392.7124295,-5.807441209437398,-0.05679236792823776,0.9473576595962766,-0.12580359991310622,6.781633142895772,-13.768963394396367,22.22619679856817
1760959392.7224264,-5.59188363755393,-0.06556885313723765,0.9424924852108338,-0.13995985234809027,5.435224424312223,-13.834190865287677,19.024415609233557
1760959392.7326686,-5.4146747865633245,-0.0757604935148941,0.9431509325346232,-0.15062399793267234,4.5713538396606355,-13.710882719903461,16.159145426013772
1760959392.7424195,-5.27013072324848,-0.08587491846580643,0.9491422444616878,-0.15803936462313842,4.179655253719991,-13.420829460436973,13.790681037054156
1760959392.7523558,-5.1499380484985195,-0.09446249227343216,0.9597046403363438,-0.1627635838883159,4.222645626545898,-13.00731090352328,12.04868231356498
1760959392.7625632,-5.043752487875077,-0.10023007232800171,0.9736102447987223,-0.16553875923908115,4.643911444901315,-12.530960067859032,11.024138070893324
1760959392.7725139,-4.939957097001293,-0.10212868464040604,0.9893067879469931,-0.16715445431001033,5.37527719030299,-12.062266102420006,10.763052156284214
1760959392.7825189,-4.826510922065979,-0.09941962113698466,1.0050879554282184,-0.16832267656971805,6.342263719116441,-11.671550559154303,11.262643334688267
1760959392.7926037,-4.691818373668355,-0.09172425489949076,1.0192818358330498,-0.16958230249302841,7.467633308708946,-11.417755999768739,12.4708349404644
1760959392.8025885,-4.525553244879283,-0.0790590094231467,1.030443232474894,-0.17124594227872383,8.67333280858899,-11.337687196015585,14.28956245071991
1760959392.8125625,-4.31937620707551,-0.06184962285951566,1.0375281381213677,-0.17339327116307446,9.881548434989117,-11.437449618932131,16.581971312004317
1760959392.8227606,-4.067492063175912,-0.04091287091855387,1.0400194540344967,-0.17590343831952834,11.01574249477958,-11.687698951080714,19.18301993729304
1760959392.832779,-3.767006781433361,-0.017395429546091294,1.0379721240127566,-0.17851095150464757,12.002425596119092,-12.023858295933815,21.912509493470665
1760959392.8424318,-3.41806536555213,0.007329335599637062,1.0319617196170268,-0.1808686024243379,12.774092957090813,-12.351665788512648,24.589269906350868
1760959392.8525007,-3.023775902461852,0.03179119180708736,1.022947038900191,-0.18260591573386423,13.273320303038872,-12.557449737038697,27.045156043241796
1760959392.862516,-2.589947177007389,0.05455513072713398,1.0120796192790575,-0.18337762029164917,13.457578027124264,-12.521668983274187,29.13756274950463
1760959392.872543,-2.1246840215591605,0.07433236739068345,1.0005035414381498,-0.1829013912307196,13.30397028784471,-12.133739365683303,30.759280838136036
1760959392.8825722,-1.6378940664143855,0.09005544838993555,0.9891875889404182,-0.18098711013552657,12.812899471181659,-11.306088610896621,31.84471138610339
1760959392.8925767,-1.1407586185515064,0.10091465138962032,0.9788195708957402,-0.1775601278362318,12.009647126671474,-9.98569118130602,32.37180665644322
1760959392.902676,-0.6452072568353652,0.10636433885956764,0.9697730559764723,-0.17267840265296147,10.943096923917112,-8.161872466145097,32.359629600711244
1760959392.9125125,-0.1634132825435621,0.10611547222478507,0.962137890008253,-0.16654010038206674,9.681302363361144,-5.869735965563433,31.862035748645685
1760959392.9228663,0.2926971153693676,0.10013167298856698,0.9557940920228094,-0.1594769083357493,8.304231604577323,-3.1890135019540526,30.958544347473747
1760959392.9326186,0.7119449819289685,0.08863993998339309,0.9505051166547362,-0.15193018735106395,6.8946434109216925,-0.2384528582012966,29.74384855049417
1760959392.9425654,1.0844289330449564,0.07215470168435431,0.9460087818761633,-0.14441154465402933,5.52849942576702,2.833869843874392,28.317514892544388
1760959392.9526184,1.4020841495849192,0.05150054172766545,0.9420895538739312,-0.137454142538666,4.266494726324096,5.863593055356203,26.775197280663274
1760959392.96244,1.659234561236713,0.02781213712926808,0.9386222169111809,-0.1315634621566354,3.148147017846792,8.685334574324953,25.202205189719113
1760959392.972564,1.853073984112458,0.0024939256667979273,0.9355833455818761,-0.12717521418336147,2.1894159090261933,11.14863863425993,23.66968946164447
1760959392.9826248,1.9840017133010834,-0.02286587692487416,0.9330332536445176,-0.12462436173352756,1.3840931654866593,13.132809422492384,22.233225131458624
1760959392.9927192,2.055747887553245,-0.04661942657495724,0.9310765850571608,-0.12412487017867044,0.7084144983316879,14.558843302961874,20.933274093669226
1760959393.0026393,2.0752455274846735,-0.06720629684191332,0.9298134742884974,-0.12575735974443317,0.12775532200205755,15.396980307888606,19.79689405925917
1760959393.0126808,2.0522318715822303,-0.08330527283156282,0.9292945824868087,-0.12946241278321818,-0.3959638691026004,15.66894007789719,18.84007475889015
1760959393.0223997,1.9985907347546494,-0.09397124761727563,0.9294918704042548,-0.13503966737982084,-0.897445502473672,15.444556757365504,18.07018580151017
1760959393.0325887,1.927481053923597,-0.09873666532464721,0.930292892903345,-0.14215509391178954,-1.402729043002205,14.833161138065302,17.488181588106393
1760959393.0423613,1.852330984582043,-0.09765898825228007,0.9315209163615477,-0.15035978422032203,-1.9260048720171605,13.970613248738216,17.09039079432087
1760959393.0523295,1.785805208504091,-0.09130182860077958,0.932977388923483,-0.1591224894674472,-2.4686456360329454,13.003342941644318,16.869876782930962
1760959393.0623739,1.7388689673921514,-0.08064672091656407,0.934497919179956,-0.16787499540256662,-3.0201980747772073,12.071102912733755,16.817452824941427
1760959393.072414,1.7200695682938882,-0.066943799208211,0.9360093344671401,-0.17606553191251922,-3.5608275365049513,11.290367143160653,16.922456745395067
1760959393.082355,1.735130815378599,-0.05152120589015884,0.9375751084948477,-0.18321283283372733,-4.064617609149044,10.740386144394979,17.173344265348398
1760959393.0924668,1.7869098129063241,-0.0355823318062508,0.9394195191867108,-0.1889533858734156,-4.503191741688926,10.453780802856828,17.55807880069745
1760959393.1023717,1.8757057905145138,-0.020025036312045583,0.9419263409153384,-0.19307639555720707,-4.84928643917326,10.413157868746156,18.064215177079657
1760959393.1125278,1.9998470918714433,-0.005316719484578822,0.9456142884186782,-0.19554339757811373,-5.080086468688425,10.554546727188743,18.678528496784544
1760959393.1226478,2.1564288562214444,0.008547927963029302,0.9510962945181937,-0.19649057659644445,-5.180259898371443,10.77755861310946,19.38605257888803
1760959393.1324587,2.34204509903123,0.02199396350064156,0.9590302537128352,-0.19621116550327317,-5.144663083775509,10.961195535307294,20.168479091450415
1760959393.1426377,2.5533648888126153,0.03572488139911208,0.9700645089799622,-0.19511433058603295,-4.980628166959292,10.983344192747106,21.002016033441976
1760959393.1526163,2.7874448441833595,0.05052054764558528,0.9847745922002842,-0.19365810431757566,-4.7096506495204205,10.741328532565696,21.854976608428004
1760959393.1627023,3.0417413095505537,0.06701880453213095,1.0035834230545615,-0.19225848199984552,-4.368225709629429,10.170604048000566,22.685540353113627
1760959393.1725593,3.313865934713462,0.08553108371852967,1.0266604267885953,-0.1911838146318305,-4.007569479785343,9.258855879763397,23.44027948407827
1760959393.182603,3.60119181722929,0.1059330918182798,1.0538070302019078,-0.19045076080272405,-3.6920004584938813,8.05339844273104,24.054113713977717
1760959393.1925228,3.9004438465307762,0.12765053318835726,1.0843515349915052,-0.18974289077599849,-3.495842702882744,6.660731598677761,24.452243113050216
1760959393.2026281,4.207392554474312,0.1497356081794549,1.117086535337474,-0.18837386777043724,-3.498862407697154,5.23820295082751,24.55426477541448
1760959393.2125638,4.516727146470302,0.17101042156012397,1.1502798258606926,-0.18531307612502684,-3.7804731792578865,3.9787914711115615,24.28019304047671
1760959393.222576,4.82212924804301,0.19024237992138807,1.1817746480311755,-0.17928245736811843,-4.41321188942239,3.0909311197070477,23.557644138735945
1760959393.2325573,5.116521633398434,0.20631520545219392,1.2091737493735295,-0.168920153020789,-5.45621908668824,2.7759295243811453,22.329149293801272
1760959393.2426388,5.392436204350797,0.21836629570140662,1.2300830933989273,-0.15299202361167033,-6.9495605552381665,3.2058223475368313,20.558473902623025
1760959393.252677,5.642434570804926,0.2258732736965939,1.2423805081067638,-0.13061996531689415,-8.91013408212569,4.504379587995155,18.234933478287466
1760959393.2624807,5.859518383501844,0.22868491505377336,1.2444719183643642,-0.10148935787768845,-11.329621914628468,6.7334451902301256,15.374979168597385
1760959393.2726183,6.0374789955365165,0.2270008152929229,1.2355003976024395,-0.06599844233547038,-14.174553351557018,9.885933146935969,12.020739438472052
1760959393.2829306,6.171152073065293,0.2213091849719368,1.215479504815576,-0.025319907430875505,-17.388155057388275,13.885790327489802,8.235691111343654
1760959393.29306,6.256559060356437,0.21229419153428006,1.185332167910832,0.01864188137121077,-20.893408357253055,18.594283847469136,4.098101524866525
1760959393.3033392,6.290932455738903,0.20072581781010276,1.1468291945787437,0.0633987263128849,-24.59666870957223,23.821270748147025,-0.3067550201669925
1760959393.3135767,6.2726359145472905,0.18734771176760473,1.1024349790528192,0.10611741729295676,-28.391318197494922,29.339757647701767,-4.894395494797801
1760959393.3227406,6.201003532503081,0.1727805679700321,1.055079084958845,0.14392388223410776,-32.16115307587363,34.90205267043168,-9.587699088301461
1760959393.332535,6.0761339233175455,0.15745761547541412,1.0078799432598187,0.1742387837432857,-35.783476959788665,40.256063633881254,-14.321176720698467
1760959393.342646,5.898681204463762,0.14160337475558818,0.9638518668254596,0.19510483476181212,-39.132088384794415,45.16065824825996,-19.042222704313595
1760959393.352627,5.669684446739295,0.12525790557418487,0.9256291249823009,0.20546147274961138,-42.08045126628619,49.3993349846108,-23.70914242821337
1760959393.3624651,5.390469227924738,0.1083402495252638,0.8952389389964501,0.2053185691437633,-44.50531119368871,52.79167758905442,-28.286373797883837
1760959393.3725193,5.062641544633321,0.0907406341470658,0.873947624091202,0.19578155772190708,-46.29090950146969,55.20215177776806,-32.73796699208502
1760959393.3823798,4.688177364695524,0.07242829006398706,0.8621931874187683,0.17889676180230613,-47.333805461029456,56.54578938962566,-37.02087020886071
1760959393.3926308,4.269590472698485,0.053552748518556466,0.8596083280910589,0.1573262848507909,-47.54820516061633,56.79032795895944,-41.07970331540456
1760959393.4025693,3.8101378457600394,0.034503917517537695,0.8651316185854006,0.13391516708613294,-46.87164715502982,55.95457771027428,-44.84444074643213
1760959393.4125936,3.3140022322281015,0.015896635815554668,0.8771973538931495,0.111249455265577,-45.27086426700142,54.10320648688023,-48.23186238724492
1760959393.4225981,2.7863861029975925,-0.0015314332824700925,0.893981573916024,0.09130155583235122,-42.747529002215245,51.33864652226967,-51.1509057094953
1760959393.43264,2.2334650858985836,-0.01708532898076872,0.9136657880329211,0.07522622836310322,-39.34335973339578,47.79122035421542,-53.511309934565574
1760959393.4425857,1.6621789398287221,-0.030292764923295374,0.9346694971484442,0.0633277578787622,-35.143801653665705,43.60867791854104,-55.23432335425017
1760959393.452573,1.079875230421248,-0.04104310557349856,0.9558050427378526,0.05518016477586732,-30.279327332781396,38.94610310409426,-56.26383890605226
1760959393.4625535,0.4938551508184731,-0.04964258363044993,0.976325455528941,0.04985502987807812,-24.92339354573172,33.95669739616357,-56.57616870312445
1760959393.4725482,-0.08910634861727819,-0.05676842675381116,0.9958624631794392,0.0462002968102708,-19.286262016674193,28.783470116906283,-56.18678579874847
1760959393.4823484,-0.6631877565830653,-0.06333249467941081,1.0142768418209858,0.043115910203996174,-13.604269988395973,23.55159538817622,-55.152744498127234
1760959393.4929588,-1.2238270528349453,-0.0702860296027811,1.0314593480772332,0.03978114339702996,-8.124752360617125,18.361345336310734,-53.57008854706901
1760959393.5027459,-1.7678601872378175,-0.07840769702699316,1.0471299457481937,0.035800878255197253,-3.087633330424703,13.282091984789494,-51.56629870252344
1760959393.5126543,-2.293475663442935,-0.08811896876077037,1.0606904671143422,0.03125416829723796,1.2944442139311745,8.348596797530988,-49.28863324004279
1760959393.5225754,-2.8000035066877653,-0.09936617132138711,1.0711854485502348,0.026645304395458955,4.854967501324342,3.561217387662532,-46.88995364762519
1760959393.5324743,-3.287590227270396,-0.11159691600699062,1.077405869990701,0.022771671812673776,7.48875124406909,-1.1085803012201039,-44.5141360253068
1760959393.5425613,-3.756833976982287,-0.12383957036662624,1.0781303845058787,0.02053409022127945,9.161246395017296,-5.706940131036321,-42.28327559547282
1760959393.5525706,-4.208457030266319,-0.13487134329425512,1.072452955173783,0.02072478984486392,9.910524834626663,-10.281454196733982,-40.28851408199076
1760959393.562511,-4.6430752908726385,-0.14344145377840595,1.0601100678425903,0.02383376018939336,9.841485941480983,-14.862392259278971,-38.58555938786058
1760959393.572518,-5.061096100063446,-0.14850742361489813,1.0417056155239235,0.029913129945609705,9.112835614204416,-19.444619427632844,-37.19508659820873
1760959393.5825374,-5.462747977394993,-0.14944419225547295,1.0187507114643435,0.03852926510445981,7.918389257304584,-23.973916201218024,-36.10746494652059
1760959393.5928812,-5.848224861781526,-0.14619223773539763,0.9934926726381688,0.048814376565692395,6.465170025728039,-28.341068207607663,-35.2907534283196
1760959393.6024437,-6.217912873361816,-0.1393195869484913,0.9685746227240019,0.05960958381129041,4.951349487809744,-32.38592768224529,-34.700618418173654
1760959393.6124942,-6.572658377324535,-0.1299849978020425,0.9466088771606539,0.06967360688850341,3.547044004742006,-35.911812142008486,-34.29069441395715
1760959393.6225266,-6.914031671739089,-0.11980657935605477,0.9297575409730517,0.07791487452405609,2.3803256922340097,-38.708500651333,-34.02192407337513
1760959393.6324856,-7.244540587899555,-0.11065834474128677,0.9194044828715447,0.08359471188816926,1.5297761149228004,-40.580247362154054,-33.869598362882556
1760959393.6425672,-7.567752545257113,-0.10443009723583957,0.9159772486358588,0.08645591924226856,1.023809866647303,-41.37411121435043,-33.82718064390889
1760959393.6525989,-7.888292371036996,-0.10278874236931351,0.918938086793762,0.08675521931912006,0.8460300255958286,-41.0037518453554,-33.906507488620825
1760959393.6625798,-8.211696819672108,-0.10697272366463284,0.9269232675223239,0.08520677190728296,0.9451248972238699,-39.464673335872384,-34.13453877128595
1760959393.6726189,-8.544125219642975,-0.11764147192546759,0.9379835906393739,0.08286300177969123,1.247309023774281,-36.83847739671686,-34.5473777448359
1760959393.6824727,-8.891947728990452,-0.13479316277660183,0.9498718618872144,0.08096279230582686,1.66912733844217,-33.285631325269556,-35.18269248332105
1760959393.6927094,-9.261254654138474,-0.15775713219430623,0.9603312994761543,0.08076933192947608,2.1286724157138934,-29.028159015117144,-36.071859863934684
