timestamp,angle,linear_acceleration_x,linear_acceleration_y,linear_acceleration_z,angular_velocity_x,angular_velocity_y,angular_velocity_z
1760597940.6839068,-2.2636022854552746,-0.07767183523025957,0.9687855515081223,-0.07856824758572914,11.53807927329294,23.95939397136133,-23.958405092406704
1760597940.6939068,-2.532202149550347,-0.09241455245228934,0.9883468551538519,-0.08498354487258931,7.225890584475615,28.682062364587182,-22.06582970103521
1760597940.7038813,-2.791110437167899,-0.10597787902097618,1.0060155369127832,-0.09698137364583323,3.1219590232600223,32.70433198388207,-20.123801536667635
1760597940.71386,-3.0404704874255093,-0.11784882611518485,1.0205898463648335,-0.11311052124697701,-0.5805990971049156,35.75390928588258,-18.177451001513504
1760597940.723928,-3.2799279120454994,-0.12756085364865247,1.031214892787641,-0.1315359911322467,-3.7331112769414903,37.63169264646195,-16.260226229151115
1760597940.733881,-3.508421557974846,-0.13470283041779949,1.0374421935200577,-0.15028219379282778,-6.240299833207881,38.23157715693449,-14.396257941544567
1760597940.7439358,-3.7240942139671778,-0.13894273623865935,1.0392344500811646,-0.16746389363406694,-8.062576599773548,37.549986114284216,-12.604530884537043
1760597940.7539897,-3.9243753939516397,-0.14007221388738778,1.036922593122309,-0.18148190255013497,-9.212383394663226,35.684192472045844,-10.903928590600577
1760597940.7640243,-4.106265983084815,-0.13806780484815387,1.031127238325644,-0.19116699273072515,-9.745968353933275,32.81999111428487,-9.317978573425085
1760597940.77398,-4.266813067132936,-0.13315272009999868,1.022659671930899,-0.1958629377459487,-9.75231564742836,29.210550044064384,-7.8780815673569595
1760597940.78387,-4.40370982880232,-0.1258345040694849,1.012419019128271,-0.19544743182745816,-9.34094217360531,25.14914256950802,-6.624228046014858
1760597940.793878,-4.5159046775244285,-0.1168937077198986,1.0013012886960477,-0.19029669407959754,-8.630009429051912,20.938897706917494,-5.602704806792997
1760597940.803895,-4.6040742548781415,-0.10730841176211565,0.9901316375564377,-0.18120457655812042,-7.735775132667545,16.862749089634953,-4.86098438308298
1760597940.8138766,-4.670822418290111,-0.09811681139642124,0.9796242605655899,-0.1692696191800384,-6.763955156359346,13.15649700251366,-4.440684241709207
1760597940.8238983,-4.7205177087733246,-0.09023980698485871,0.9703667341684744,-0.1557643119400756,-5.803197665686651,9.987418040963048,-4.369989300442621
1760597940.83387,-4.758765397316337,-0.08430065293778673,0.9628199111839884,-0.14200005161652243,-4.920645057388506,7.440250450035129,-4.657131218368533
1760597940.8438797,-4.7916023628119815,-0.0804832499832842,0.9573227225123297,-0.12919883745134514,-4.159462228460093,5.511706118601432,-5.286366744319798
1760597940.853976,-4.82457412156771,-0.07846315594552916,0.9540936553589653,-0.11837987212538159,-3.538195688567519,4.113937158354128,-6.2174024154286105
1760597940.8639238,-4.861881760889429,-0.07742942332864627,0.9532253648337974,-0.11026784859679711,-3.0518610967895925,3.086635682593895,-7.388452812989878
1760597940.873899,-4.905767813934265,-0.07619713915698807,0.9546737718196776,-0.10522980467929445,-2.6747148821966946,2.2166969288208027,-8.722283072352514
1760597940.8839471,-4.956256181135839,-0.07339536134499064,0.9582470283528675,-0.10324697199680899,-2.3647120758996163,1.2636600249667589,-10.133937476949736
1760597940.8938823,-5.011290770356189,-0.06770482928419821,0.9636023930668299,-0.10392551060040446,-2.0696291116625964,-0.011493650615291225,-11.538601624707194
1760597940.9040473,-5.067245715654717,-0.05811302536120924,0.9702597609490073,-0.10654555790128745,-1.7346890601383171,-1.8170719700238764,-12.858220007542299
1760597940.913887,-5.119716037167164,-0.044149535450053026,0.9776385471454935,-0.110142627375599,-1.3112625793630872,-4.304021472514654,-14.025969877748025
1760597940.9239023,-5.164448975971248,-0.026063185114923844,0.9851193944835612,-0.11361056662271897,-0.7658800656615021,-7.544856568701172,-14.988292610471557
1760597940.9338896,-5.198250800161897,-0.004906178285688364,0.9921247247747151,-0.11581304933712758,-0.08847693775742398,-11.520675221112258,-15.70473845798243
1760597940.9439235,-5.219706325316902,0.017499900352972195,0.9982052960506741,-0.11569224428024759,0.7013755192453515,-16.118010569559896,-16.146272776320433
1760597940.9539452,-5.229577892645126,0.03872661060087472,1.0031168206941061,-0.11236793913925838,1.5514313663627475,-21.136252010727596,-16.29286968160357
1760597940.963885,-5.230802759396206,0.05602101364608579,1.0068724624331709,-0.10522509482072835,2.3777616694394728,-26.30517597046803,-16.131190021171086
1760597940.9738872,-5.22807658891897,0.06667695482969442,1.0097620322577565,-0.09398963467224147,3.0700585793315,-31.31087861583436,-15.652947724819956
1760597940.9838922,-5.227085991391728,0.06844257056623275,1.0123340899082423,-0.0787899988649417,3.5008856342885983,-35.8272500073521,-14.85426841598526
1760597940.9939358,-5.233519854365057,0.05989569680465399,1.0153408381270528,-0.06019670999112024,3.5379303874002996,-39.54926194283895,-13.73599606431934
1760597941.0039248,-5.252031632595004,0.040714941949415495,1.019647394067065,-0.03922680708661399,3.0579351952774525,-42.223967066428955,-12.30457541979449
1760597941.013889,-5.285332929484783,0.011785598031482762,1.0261084405176448,-0.017297575384360154,1.9608208165428855,-43.67535581925035,-10.57291356738881
1760597941.0238986,-5.333572223201018,-0.024892459912284795,1.035419320830903,0.0038833445797009105,0.18249698236056097,-43.820098426115095,-8.560585093993634
1760597941.033869,-5.3940990978773415,-0.06648668025922791,1.0479572413701606,0.022494833193216004,-2.2951174180297764,-42.67260885882629,-6.292929713430268
1760597941.0439026,-5.461645466979151,-0.1097521882384816,1.0636396833382922,0.0368321707533682,-5.438272985280587,-40.33958062183517,-3.7989647917851177
1760597941.0539186,-5.52888321052914,-0.1515088324785284,1.0818358688619023,0.045554205456805066,-9.160946062347755,-37.00582063697982,-1.1085085526221734
1760597941.0638993,-5.587254213333718,-0.18908503256527803,1.101366346921159,0.0478961506323287,-13.330375534838572,-32.91447121697418,1.7506486046545284
1760597941.073906,-5.627926550446091,-0.22065244946157173,1.1206109130811626,0.04379941556380081,-17.778206367892068,-28.34524087634054,4.754469205129877
1760597941.083875,-5.642720685938419,-0.24540449638312403,1.137717924437849,0.0339361189273345,-22.315717243508107,-23.593921000576614,7.882439401535266
1760597941.093899,-5.6248737363204935,-0.2635651393275222,1.1508788914753534,0.01964074759056904,-26.75070464685983,-18.955392067576966,11.115195680558166
1760597941.1039433,-5.569555695331404,-0.2762413919614884,1.1586144540625039,0.002782132873523682,-30.90329204747687,-14.710891102938234,14.430704776082342
1760597941.1138783,-5.474100318939396,-0.2851482639239937,1.1600176638636184,-0.014393216782150912,-34.61835858707515,-11.118942539168385,17.800427997096268
1760597941.1238809,-5.337952449080771,-0.29224146952989,1.1549137439048045,-0.029431424048822173,-37.77328810735737,-8.408397001489245,21.18716793610711
1760597941.133889,-5.162360284518232,-0.29929739564584423,1.1439143234372369,-0.03985766948451865,-40.280974665544605,-6.77167054162873,24.545981887288082
1760597941.1439805,-4.949859151357057,-0.30748777520215176,1.1283624677581248,-0.04339194583647701,-42.089096052495194,-6.356523234148695,27.828753343936604
1760597941.1538813,-4.703608045989505,-0.3170109280920625,1.1101798319068366,-0.03820487571187956,-43.17728803202544,-7.255440122678699,30.991971479728363
1760597941.1638985,-4.426655067204842,-0.32685603090045445,1.0916413454640035,-0.02320400572553938,-43.55387269418009,-9.492768960066176,34.00623567406521
1760597941.1738982,-4.121222139920288,-0.3347765354612722,1.0751195852523034,0.0016950290333399675,-43.25325399276332,-13.011109122068651,36.86521053995338
1760597941.1839025,-3.788109361260496,-0.3375225745255132,1.0628549289177902,0.035396790636694646,-42.33424270715275,-17.65979150085436,39.5914093234645
1760597941.193933,-3.4263203875998447,-0.3313340753502895,1.0568056880970909,0.0756529494528382,-40.87879839029721,-23.18925299941699,42.23642765647991
1760597941.2038884,-3.0329979039524066,-0.3126399192241095,1.0586074537849735,0.11934639598964658,-38.990255432171075,-29.25530873356325,44.87411978070773
1760597941.2138908,-2.6037273742565454,-0.2788537752187241,1.0696233829230029,0.16299340059580403,-36.78997542246414,-35.43652142549666,47.58660915453323
1760597941.2238908,-2.1332143128484886,-0.22910800445586393,1.0910024473741602,0.20332327712088763,-34.41132767103969,-41.2659296845327,50.44476819868653
1760597941.2338898,-1.6162671549183685,-0.16473606825399945,1.123609159180951,0.23775922161810903,-31.990043710694856,-46.2753335613293,53.48660427952511
1760597941.2438931,-1.0489372742806742,-0.0893341486089,1.1677073279526047,0.26467465022914227,-29.650718940893338,-50.046633086942656,56.69837296907642
1760597941.2538962,-0.429605406846118,-0.008329883409385936,1.2224079609601588,0.2834001450326381,-27.490683339112746,-52.261555218107596,60.00354644080851
1760597941.2639158,0.24021074825950162,0.07186604240738614,1.2850649614703467,0.2940514113171661,-25.564216445003154,-52.73994555214506,63.26351313713665
1760597941.2738838,0.9555047975336114,0.14492242496349028,1.3509029782871183,0.2972951438137281,-23.8713981446668,-51.458510918772255,66.29124303650799
1760597941.2838862,1.7079649541070887,0.20561113482743287,1.4131332175774052,0.29415233310893174,-22.35600881413299,-48.54607504458562,68.87598516937436
1760597941.2939272,2.4866580981462945,0.25057183812355327,1.4636866038422691,0.28587782602106765,-20.915342754601053,-44.25651823674347,70.81446118724877
1760597941.3038878,3.279086691447741,0.2786854563120339,1.4945147366806255,0.2738944850308789,-19.421744882952478,-38.92495997160107,71.94273717282012
1760597941.3139243,4.072437995612908,0.29103043263570477,1.4992021288885014,0.2597336928176849,-17.752052057122903,-32.915548820678666,72.16313260912342
1760597941.3239288,4.854837025018712,0.2904907004805279,1.474449872326189,0.24494412697493337,-15.818255238450574,-26.570299005691563,71.46177726939075
1760597941.3339279,5.616441186973332,0.2811450242564706,1.4209470234236727,0.2309608738562306,-13.591756119707151,-20.16775843650957,69.91421110372056
1760597941.3439276,6.350258629408885,0.2675825628952387,1.3433339639730268,0.2189574942490788,-11.115023560093245,-13.897966701055216,67.67835497639422
1760597941.3539047,7.0526186809531115,0.25426285624309397,1.2493043173793523,0.20971902590557998,-8.49774152168064,-7.856587385791309,64.97607423777623
1760597941.3639984,7.723264565359727,0.2449913023013962,1.1481738296829835,0.2035697235109562,-5.8984547389885185,-2.057126197985305,62.06625162777888
1760597941.3740926,8.365077138810237,0.24254100234204795,1.0493274624966273,0.2003737107740521,-3.496035912360236,3.5432933669267928,59.21354900722593
1760597941.383993,8.983476655418942,0.2484306278049522,0.9608765992430502,0.19960872541545233,-1.4573205655442214,9.011343946592731,56.65764583072907
1760597941.3939354,9.585585414890875,0.26285747236998963,0.8887219825868132,0.200496630682628,0.09223934183432526,14.405450275443899,54.587548596963885
1760597941.4039235,10.179260518684186,0.2847748910040945,0.8360918741939535,0.20216284829314599,1.0890705425481446,19.750532931910232,53.124504112567735
1760597941.4139156,10.772116716251825,0.31209415556570336,0.8035316038339357,0.20379410157869512,1.5395974559076007,25.02331637552082,52.315266292538475
1760597941.4238915,11.370653536614729,0.3419852900440095,0.7892610938006247,0.20476894849522206,1.515421868353114,30.148991207964045,52.13545035758382
1760597941.4339159,11.979581685313267,0.371247567733454,0.789783072529019,0.20474346610410812,1.13774480664419,35.00751483915253,52.50107911538998
1760597941.4439158,12.601414895505135,0.3967149143408514,0.8006102847026821,0.20368217058376478,0.5550628684417941,39.446450606588094,53.285525962379694
1760597941.4539824,13.236357943427523,0.4156540935943045,0.8169847900951797,0.20183316258370293,-0.08111690610700167,43.29703829250373,54.33883956220165
1760597941.4639487,13.88248182703642,0.4261062797156793,0.8344870574310721,0.19965689539159512,-0.6381290368221848,46.390791562277485,55.50667435063961
1760597941.4739668,14.536137227409462,0.42712134603159885,0.8494725301614512,0.19772609489066037,-1.0182517557977049,48.57483980687323,56.64655861471805
1760597941.4838786,15.192524411262575,0.41884664892130113,0.8593179130456494,0.19661698029012545,-1.1672386988105365,49.725066361788585,57.63989182006837
1760597941.4939244,15.8463200343675,0.40245864336111653,0.8624961738849446,0.19681020089363163,-1.0749600945179292,49.75660418763732,58.39880253794851
1760597941.5039058,16.492264121579616,0.37995658064584636,0.8585205052830883,0.19861663144711708,-0.7690635308772218,48.631396198080765,58.86775484922179
1760597941.5139363,17.125632759776927,0.35386211767914766,0.8478025072216427,0.20213868708692548,-0.30344444213541333,46.36246884783864,59.02050085062954
1760597941.5239167,17.742556847184442,0.32688229760015547,0.8314629389522693,0.20727023603301417,0.25613886678067566,43.01455676784695,58.853576766979174
1760597941.533926,18.34018491347524,0.3015952012837605,0.8111217369929419,0.21372760794894027,0.8467844605262931,38.70090909914468,58.377951012964644
1760597941.5439274,18.916719049666323,0.28020731513409197,0.7886846080143529,0.22109513924312532,1.4211843211298671,33.576471010584505,57.61055781799211
1760597941.5539358,19.47137013800767,0.2644106963079451,0.7661391239319919,0.22886652245868205,1.9565833160509465,27.828050808420098,56.56723512556817
1760597941.5638893,20.00427868433854,0.25534152406230953,0.7453717862581398,0.23646886550783983,2.45881748438054,21.662473810709677,55.258082967478224
1760597941.5739841,20.51643253773325,0.2536178081524258,0.7280157370631615,0.24326652555958936,2.9609658801670116,15.294016547832182,53.685613015481835
1760597941.5839002,21.009588919995092,0.2594203774356912,0.7153351429193744,0.24855310081955473,3.5168616442282032,8.932506014304785,51.845431300241465
1760597941.5939224,21.486183865185733,0.27258078892988963,0.7081472333434475,0.2515495822341108,4.190455724557852,2.7732940683424645,49.72870629170529
1760597941.603975,21.94919510867363,0.29264991699604337,0.7067785601496225,0.251429908530781,5.042692707242958,-3.010072062136695,47.32540191211082
1760597941.6139152,22.401919679540715,0.31893581635699614,0.7110505171495998,0.2473880178573622,6.117992764668128,-8.270137291713885,44.627228261560724
1760597941.6239192,22.847636688304952,0.35051368136157285,0.7202908969630643,0.23874502486101637,7.432579617236179,-12.886916315083814,41.62944807353272
1760597941.6339586,23.289148040246378,0.3862218686730314,0.733371467641115,0.22507878857100866,8.966773100301486,-16.76695895617005,38.33100321111366
1760597941.643912,23.728221254153677,0.4246650578330992,0.748774566768041,0.20634737834552708,10.662980245400268,-19.84108089875176,34.73283155461544
1760597941.6540573,24.16499201963548,0.4642471075878689,0.7646947960562647,0.18297494372176207,12.430435088967192,-22.061868579353792,30.83467632021734
1760597941.663969,24.597409920068138,0.5032503980126507,0.779184830346613,0.1558729410336205,14.156758957899175,-23.40184797247591,26.63107298660577
1760597941.6739292,25.020820190681274,0.5399655743668171,0.7903527740450118,0.12638146798301508,15.725247436014945,-23.85270645318189,22.107463020637997
1760597941.683888,25.427763452469843,0.5728580175735172,0.7966073877028228,0.09613373499844231,17.035627749894346,-23.425348748500443,17.237501233201233
1760597941.6939945,25.808047151831378,0.6007399653204469,0.7969289246968213,0.06686701713519497,18.025099315109752,-22.150033326631824,11.982587353145076
1760597941.7040026,26.14910643634583,0.6229066722818783,0.791125679990443,0.040218560550944485,18.686006623487213,-20.075549615857618,6.294427528784318
1760597941.7138946,26.436638073204257,0.6391960619746432,0.7800265629372239,0.017548997557160755,19.07667101662259,-17.266523966196395,0.12098804799395714
1760597941.7239115,26.655461399332175,0.6499443342346732,0.7655605619649187,-0.00017297769841929036,19.32275815798583,-13.798527419323818,-6.5844073180734295
1760597941.733904,26.7905314014217,0.6558324385833053,0.7506851970227246,-0.012409917996850586,19.60798155719969,-9.751505298427595,-13.851736824370008
1760597941.7439432,26.827999872110897,0.6576459158649686,0.7391460362351959,-0.019026591554460504,20.154731850007998,-5.202794839829214,-21.68214655314742
1760597941.7539353,26.756201219192302,0.6559966271275408,0.7350731227988282,-0.020218493478867422,21.197008018948363,-0.22133861939976476,-30.03677182729091
1760597941.763997,26.566446552013446,0.6510709926706633,0.7424436587749604,-0.016433274586346813,22.949325967732136,5.135469259656695,-38.82819692757137
1760597941.7741926,26.25354969475177,0.6424684107985595,0.7644647036993387,-0.008318481170057474,25.575740946883887,10.821480940863875,-47.91581616793487
1760597941.783941,25.816067587521626,0.629173066504607,0.8029567673794182,0.003288507868826836,29.162719132113686,16.798059059976687,-57.10578643527713
1760597941.7939277,25.256289591883217,0.6096675297760241,0.8578409592515901,0.017343923954479316,33.69859190872788,23.027677292786205,-66.15579867612821
1760597941.8039129,24.580037778979303,0.5821595423126191,0.9268311432969608,0.03259832613691794,39.06116483809035,29.46596938269388,-74.78466192643795
1760597941.81402,23.796342245871912,0.5448676258722119,1.0054005383180098,0.04766118867141763,45.014246973056906,36.05320382974307,-82.68658797805134
1760597941.8239965,22.917041333593247,0.49630547501719197,1.0870492680373263,0.06114929854809203,51.213724311978226,42.7057248817003,-89.54986636507525
1760597941.8339183,21.9563369773635,0.43552256091689034,1.1638748135946082,0.07189879187399967,57.22411149429306,49.30744014977649,-95.07914946722839
1760597941.8439364,20.930319079868365,0.3622937941792078,1.227437957943027,0.07918168668015356,62.54667999840951,55.701289541120325,-99.01983381089273
1760597941.8541229,19.856466685621864,0.2772865099128521,1.2698844229002384,0.08284044276428906,66.65978470518833,61.68117393305992,-101.18219921052525
1760597941.8641136,18.753139759217056,0.18224321690526815,1.285203237744973,0.08325514083218477,69.07066400501569,66.98622500879574,-101.46224687695798
1760597941.8740718,17.639086009028595,0.08018664420149824,1.2704013357195707,0.08110106482461105,69.37564435090177,71.30120508769623,-99.85580757944305
1760597941.8839052,16.53298693920331,-0.024416711066293624,1.2263050399651036,0.07693665831820386,67.32247876142404,74.26826682358343,-96.46291356446415
1760597941.8939228,15.453042225733379,-0.12567653929758482,1.1577168231055996,0.07076220256311114,62.865302029020235,75.51501874665956,-91.48111338902613
1760597941.9039438,14.416542195418351,-0.21665440732719446,1.0727875548150416,0.06176229731512491,56.200778315288915,74.70098353085888,-85.18929412635654
1760597941.9139638,13.439329089839756,-0.29019421276618873,0.9816844627983845,0.04842270552240406,47.77469123131019,71.57926905564837,-77.92651050072905
1760597941.9242256,12.5350429865546,-0.3401250787103357,0.8948582553557874,0.029062105120411397,38.25194332597452,66.06386974473759,-70.07125632892374
1760597941.9339483,11.71412364130715,-0.36254421606147313,0.8213396832944021,0.002607225442627768,28.449272465008193,58.28755051026489,-62.024146425162876
1760597941.9439278,10.982684240987655,-0.3567765972090456,0.7674714881162473,-0.030702920178369484,19.23772413690734,48.63314209905893,-54.192255790627684
1760597941.953934,10.341520125814984,-0.32567935754494726,0.7363205832396393,-0.06898288132497975,11.429063178129104,37.724145607291646,-46.96986250255209
1760597941.9639359,9.78558148993566,-0.2751800766970925,0.727789639517884,-0.10888245690762278,5.664814739418552,26.368874847620223,-40.71102208119932
1760597941.9739776,9.30417865154949,-0.21319175730838802,0.7392532023678909,-0.1462312284471876,2.3273893803667027,15.463739461913871,-35.694220588687976
1760597941.983965,8.882018671054334,-0.1482179370387073,0.766451138948951,-0.1769385101652475,1.4897449288580058,5.872141126745775,-32.0855255097691
1760597941.9939291,8.500957859516205,-0.08799866631558881,0.8043896777617299,-0.19787633577656077,2.9136517592818283,-1.6975077371492642,-29.910701557630716
1760597942.0039387,8.142175837852074,-0.03847027572324797,0.8480840574156638,-0.20750265719391267,6.09753206343288,-6.79007084113589,-29.04639989354345
1760597942.013916,7.7883915249697315,-0.0031769014481963257,0.8930730138205994,-0.2060833814830403,10.364631801714218,-9.259079480934544,-29.2357107529128
1760597942.0239098,7.425761585399263,0.016855874728143854,0.9357098823810499,-0.1955023104500687,14.97370082613848,-9.270240610362318,-30.12627668190513
1760597942.0341282,7.045196710738289,0.0228559809109287,0.9732769868366413,-0.17876003153848358,19.23030892328574,-7.2558696668039735,-31.322965454148793
1760597942.043916,6.642955993019773,0.01775480338394231,1.0039822912573657,-0.15932415578905545,22.578764178613437,-3.8329123727570553,-32.44408475892037
1760597942.0538952,6.220501118491388,0.0054719500126207,1.026888640662365,-0.14049557923714484,24.66116860335672,0.29722362976289957,-33.17065320712884
1760597942.0639355,5.783692828715149,-0.009839967491031932,1.0418062171141658,-0.12491292079004937,25.33861294325497,4.448213165655856,-33.28120598640444
1760597942.073921,5.341485324726722,-0.024471297062925067,1.0491590243391589,-0.11425809309513502,24.677174789393035,8.032459868685972,-32.6685198308665
1760597942.0839188,4.904319776000836,-0.035657477457473226,1.0498270295037466,-0.10917322613235028,22.90676924432952,10.619415721414077,-31.338378489581483
1760597942.0939164,4.482438657233672,-0.04185436345020097,1.0449712340623472,-0.10935990446009039,20.363681768575876,11.965217197612231,-29.393446248128033
1760597942.1039011,4.084339004810255,-0.04278095574692386,1.0358620483655097,-0.11380615551982604,17.428062413970874,12.015082041976905,-27.00715993400058
1760597942.1138952,3.715552587613201,-0.039263697010290324,1.0237383371671138,-0.12107722140462478,14.466278218578715,10.882921862526294,-24.393145598942567
1760597942.1239843,3.3778870492941313,-0.03294100666570252,1.009717781914618,-0.12961208349099104,11.785402683117264,8.814104124224137,-21.775090551086556
1760597942.133949,3.06919768794927,-0.025893092306299968,0.9947630147988216,-0.1379816032899348,9.603934442970035,6.137797701964503,-19.360642418732837
1760597942.1439717,2.7837000313130553,-0.020254182382639728,0.9796924554283615,-0.14507855247803203,8.039724435080199,3.2153186654293457,-17.32134853616789
1760597942.1539347,2.5127821509787656,-0.017851934972854897,0.9652165099905535,-0.15022275701667442,7.113518069855255,0.3905560954979225,-15.779376842737237
1760597942.1639647,2.2462253156824183,-0.01991000243105606,0.9519788709848427,-0.15317776145441947,6.764710239397171,-2.0521242525013004,-14.80095858306252
1760597942.1739156,1.9736887734199213,-0.02684424869102746,0.9405861595544365,-0.15408944054480714,6.874907832143082,-3.9182388973684343,-14.396068816495957
1760597942.1839008,1.6862685212163924,-0.038175369784027656,0.9316147517285801,-0.15336942679718576,7.294643469116476,-5.119174007881618,-14.523602398962588
1760597942.1939118,1.3779165311680475,-0.05256759146412811,0.9255902605632513,-0.15155370863112935,7.868991369168653,-5.673124996059255,-15.10105072426222
1760597942.2038994,1.0465171301737348,-0.0679865023623521,0.9229420868684612,-0.1491676199228638,8.458772228023626,-5.692301950314777,-16.017397934852905
1760597942.2138968,0.6944622506979131,-0.08195286663399724,0.9239416785565617,-0.14662307303929584,8.955305618515006,-5.359408661438541,-17.147691839269882
1760597942.2239075,0.3286389553837163,-0.09185690984975306,0.9286375146309661,-0.14416382269940545,9.28802246293909,-4.897531669118513,-18.36760974533168
1760597942.233899,-0.040173161218733676,-0.09529128112260228,0.9368015260660274,-0.1418621374679323,9.425441842925224,-4.537983779584824,-19.566420917722873
1760597942.2439263,-0.3984166361088866,-0.09036159319988882,0.9479002698258034,-0.1396584450752468,9.370877209537761,-4.490342674875619,-20.657052471900947
1760597942.2539167,-0.7312422633007083,-0.0759404218108187,0.9610998948416515,-0.13742701394065768,9.15468810988632,-4.918069563860868,-21.582418431206932
1760597942.2639942,-1.024189708650624,-0.05184131842513753,0.9753080850684355,-0.13504706799803443,8.824938141472364,-5.921919297674291,-22.317666863429093
1760597942.273922,-1.2648762337105066,-0.018900326667634824,0.989250865255735,-0.13245998268014822,8.438041246074203,-7.532093721186067,-22.868447207114308
1760597942.2839005,-1.4445192212081441,0.021038918214218136,1.0015788454325383,-0.12969848044985077,8.050516635775388,-9.70892724439215,-23.265645653190905
1760597942.2939982,-1.559143397920618,0.06523476671384311,1.0109955364017023,-0.12688182349521354,7.712472211503554,-12.350947878661012,-23.55727451834866
1760597942.3039358,-1.6103551190913257,0.11024570006515175,1.0163978649732388,-0.12418051624397337,7.463000612668876,-15.308498735008504,-23.798365080782297
1760597942.3138957,-1.6056007698928108,0.1522056165289789,1.017015291910896,-0.12176310192746685,7.327348184914051,-18.40075811907434,-24.039846325034567
1760597942.3239155,-1.5578640305280984,0.18715782547990842,1.0125309368399875,-0.11974367021919992,7.315509784416438,-21.433934401531136,-24.317517598516936
1760597942.3339686,-1.484798586200131,0.21142128164492308,1.0031684894324513,-0.11814906479055023,7.421802962705478,-24.218591556919304,-24.642330218105364
1760597942.3440588,-1.407340643179709,0.22195446988911438,0.9897326960697682,-0.11691856012674975,7.6249853124599,-26.584456255237043,-24.993242758329213
1760597942.3539743,-1.3478993032805646,0.21667605566894957,0.9735962919431667,-0.11593796622901657,7.888603555766221,-28.391636223897873,-25.31384980482252
1760597942.3638766,-1.3282769683112996,0.19470082983539802,0.9566297462856891,-0.11509869838011927,8.161478809188495,-29.537873734937094,-25.51373868423173
1760597942.3739154,-1.3675153869544432,0.15645856492838928,0.9410720254845789,-0.11436407033564723,8.378470720791436,-29.96215433052732,-25.475056485458378
1760597942.383943,-1.4798840337795516,0.10368199869451024,0.9293431097246485,-0.11382215451363845,8.461838185121074,-29.645533456420498,-25.06408293291385
1760597942.393964,-1.6732216433956637,0.03927101316070677,0.9238045656404184,-0.1137073450770666,8.323573986890484,-28.6102784431904,-24.146796870776686
1760597942.4039452,-1.947815900109007,-0.03294789444824867,0.9264831583806024,-0.11437966394337463,7.869045119509305,-26.918288962991387,-22.606655952419377
1760597942.4139452,-2.29597263712622,-0.10854877943018752,0.9387820677368973,-0.11625943468752786,7.002180350433183,-24.66933767124879,-20.362258420362075
1760597942.4239488,-2.7023861011436794,-0.18290621927544326,0.961212314566672,-0.11972419554027118,5.63236523884088,-21.99914988688058,-17.382344154174355
1760597942.4339259,-3.1453599891218382,-0.2516463572345498,0.9931823362311675,-0.12498547329730557,3.683089252000953,-19.0769147571123,-13.695736158472343
1760597942.4440012,-3.598826116618855,-0.31110308993182756,1.0328853113679581,-0.1319746543227663,1.1020819217821072,-16.101611711513282,-9.394272893079105
1760597942.4539323,-4.034965804457395,-0.35870525717451784,1.0773200419501734,-0.1402741761526703,-2.127942030121092,-13.296547860173145,-4.62751492330852
1760597942.4639575,-4.42709167885354,-0.39320783180205693,1.1224708593892778,-0.1491250907230647,-5.979596895792959,-10.901640183292226,0.4109472021264421
1760597942.473955,-4.752347097875008,-0.4146961934384419,1.163655286928899,-0.15752276091356524,-10.374431206251888,-9.163116851922384,5.504446452134338
1760597942.4839487,-4.993774308432172,-0.42433810344442086,1.1960245303613817,-0.1643857427467025,-15.182009737788292,-8.320388423077782,10.438960246262358
1760597942.4939704,-5.1414097511947086,-0.4239213084985996,1.2151712976163012,-0.16875893368887768,-20.225914612910177,-8.589907428337856,15.03004622998497
1760597942.5039794,-5.192263424352744,-0.41527796967540187,1.2177674259188758,-0.1699984900929639,-25.296908131577965,-10.146060086825589,19.146977240453786
1760597942.514005,-5.149271716767643,-0.3997412647693079,1.2021311081774682,-0.167887237824385,-30.17221352893238,-13.099706403260052,22.730313376671234
1760597942.523989,-5.019513159548248,-0.3777880636915503,1.1686190411205923,-0.16264706951424782,-34.63878424332161,-17.475978146378164,25.800053620003126
1760597942.5339878,-4.812096335026178,-0.34898600472774344,1.119754960036155,-0.15484608415725218,-38.517669136130145,-23.19417980289599,28.452867299761596
1760597942.5440626,-4.5361513924990025,-0.31228651714857236,1.0600415561514165,-0.14523371202580834,-41.686132777346344,-30.05371238197355,30.848437393098617
1760597942.5539942,-4.199289195699096,-0.26660294356471015,0.9954546403651288,-0.13456420188459825,-44.094048436227766,-37.730445564573095,33.18639044607938
1760597942.5641694,-3.8067582402775324,-0.21151420568518603,0.9326778695779274,-0.12347548163755802,-45.771344592789234,-45.78762969808811,35.67653258209588
1760597942.573968,-3.3613609366828703,-0.1478766544847741,0.8781890530531168,-0.1124671347776957,-46.82412118185274,-53.70404504405433,38.506193787751
1760597942.5839822,-2.864024651710081,-0.07813939374195204,0.8373435126430904,-0.10196856852519924,-47.41858135420742,-60.919442066926415,41.8093785428028
1760597942.59395,-2.3147969454539092,-0.006246425195191405,0.8136121719820447,-0.09242804997450207,-47.75410504975898,-66.89359261453134,45.64284120865231
1760597942.6039321,-1.7139777395384341,0.06285784876213601,0.8081180600120369,-0.08432485606260322,-48.02928794731359,-71.17130041868968,49.9736363080591
1760597942.613932,-1.063119676416076,0.1239842377287976,0.81956509811555,-0.07804094043638615,-48.40689539413387,-73.44289902411991,54.68078001871092
1760597942.6239185,-0.3657006377460027,0.1725276571879731,0.8445670602678738,-0.07361616044434785,-48.98452280117507,-73.58932095855482,59.57069830072903
1760597942.6339154,0.3726324112191677,0.20520012404240492,0.8782912131291087,-0.07050059798111384,-49.77664833661131,-71.70308978031986,64.40314736876037
1760597942.6439211,1.144254369878542,0.2205494493200269,0.9152719980529817,-0.06744910058011647,-50.71095800705973,-68.08083532987379,68.9223914120225
1760597942.6539505,1.940112711360927,0.21919356911160634,0.9502389145592685,-0.062652674884664,-51.63855698301301,-63.18787184460364,72.88810175817049
1760597942.6639543,2.750506965451457,0.2037429914408259,0.9788207008861457,-0.054095623512912076,-52.35530525039296,-57.59987570981529,76.10144231947903
1760597942.674001,3.565944682033891,0.178431084531916,0.9980198549934015,-0.04002505889536034,-52.63050911516321,-51.93008375151394,78.42350131988802
1760597942.6839979,4.377934649176837,0.1485232587412651,1.0064019489690652,-0.019375267001904985,-52.239095724010745,-46.75235685083027,79.78499452578622
1760597942.6939337,5.179614094659466,0.11961522267955134,1.0040119574725193,0.007978860716110602,-50.99351572763081,-42.53075588241159,80.18757165731462
1760597942.7039344,5.966149274731421,0.09693872796816116,0.9920900958538549,0.041185205968827486,-48.77169713283626,-39.565042988297435,79.6979425361463
1760597942.7139342,6.734885768089224,0.08476825060307681,0.9726850635093657,0.0785624257887974,-45.53756790088253,-37.9590775587202,78.43645960531424
1760597942.723923,7.485252480484814,0.08598404460933959,0.9482514434686975,0.11785996198264795,-41.351251581393896,-37.61578446345704,76.56192063838735
1760597942.7339199,8.218446059956477,0.10181945921275384,0.921290102971009,0.15655803746519176,-36.36719537630513,-38.25857098765919,74.25437073474886
1760597942.7439573,8.936944484310892,0.13180681620325987,0.894063284093526,0.19215862663567948,-30.820145946795378,-39.475268938340854,71.69767441055433
1760597942.75397,9.643918494692578,0.17392265831746923,0.8683952669658264,0.22244274143235246,-25.000723575690763,-40.777561765943155,69.06356368739674
1760597942.7639375,10.342621431025327,0.22490990867321312,0.8455557166835376,0.24568211018441324,-19.223947228381924,-41.66699555430337,66.49866103749696
1760597942.7739222,11.035836974024178,0.28072603143584496,0.8262174175272351,0.2607923178780977,-13.7950643073137,-41.69834793440052,64.11556342825222
1760597942.783905,11.725449825057414,0.33704489522786885,0.8104818239130175,0.2674082787672133,-8.977206285302133,-40.53231309049509,61.98846596177705
1760597942.7941098,12.412180879587586,0.3897355457241809,0.7979673720891693,0.2658664400918325,-4.964768024321515,-37.97180020076952,60.15312326025895
1760597942.8039021,13.095503201300874,0.4352562392614261,0.7879495964774694,0.25709957140185585,-1.8653424848984133,-33.979003313516756,58.61038327548965
1760597942.8139405,13.77373376138949,0.47093081586460706,0.7795313104135563,0.2424767252457999,0.3080750791663007,-28.673113871774273,57.33221417411899
1760597942.8239496,14.444279481613579,0.495103721063722,0.7718142809624531,0.22362961078400767,1.633976979264999,-22.310745944403827,56.26908212977873
1760597942.8339458,15.104002780829243,0.5071885226560391,0.7640450982587955,0.20229321740309736,2.26891337346584,-15.25284463505923,55.3576411066726
1760597942.8439162,15.749660810988132,0.5076311569725256,0.7557161575067585,0.18017174822102888,2.4257130906286943,-7.923091345870535,54.52789166456235
1760597942.853911,16.378364628179337,0.49780838610751127,0.7466158249699015,0.15883323900983842,2.346467612115718,-0.7633645432454385,53.709234099520295
1760597942.8639526,16.988000297714912,0.47987852353570265,0.7368353937304664,0.13963287655716194,2.2738426639731504,5.8085800430498145,52.83516537838556
1760597942.873951,17.577554580476026,0.456598289843421,0.7267478402278084,0.12366092121741373,2.4240124104082645,11.435204819987295,51.846683154090826
1760597942.883924,18.147295988509942,0.4311184415581067,0.7169723915978987,0.11170884180337932,2.9638451928207443,15.846541928921484,50.69466667906486
1760597942.8939843,18.698778943074263,0.4067705211289181,0.7083324931906168,0.10424889698490965,3.9942042944431937,18.87779007172591,49.34154460347862
1760597942.9039266,19.23466202584641,0.38685493854448505,0.7018066565274045,0.10142587594144149,5.540466635473519,20.477510592880044,47.762457178845736
1760597942.9139965,19.75835634934936,0.37443586601360884,0.698464444502634,0.10306254659750173,7.55063348497906,20.707783315925248,45.94595817159335
1760597942.9240572,20.273543187185012,0.3721429459744599,0.699376059088489,0.10868188649573139,9.900770984213661,19.73811434422587,43.89416038089713
1760597942.9339886,20.783618497423387,0.3819757556277786,0.7054865425721906,0.11754918526039244,12.407039827979471,17.834693476121867,41.62215023824595
1760597942.943947,21.29113315903425,0.40510644515290367,0.7174558426384356,0.12873475029845574,14.843256247537077,15.345924904376533,39.15649108412435
1760597942.9539466,21.797298822965516,0.4416811336174818,0.7354810297505617,0.14119320019650491,16.962726954348227,12.684267134170998,36.532692171739036
1760597942.9639404,22.301617912336166,0.4906317208131154,0.7591305588634414,0.1538504416830412,18.522987692885497,10.303623868224095,33.79161561107428
1760597942.9739568,22.801673088836925,0.549524767888218,0.7872281199581231,0.16568763009937723,19.31202019701105,8.671126625448997,30.97489824233164
1760597942.9839356,23.293083620083898,0.6144912470772516,0.817824946801941,0.17581445391984143,19.174437063145323,8.23238948753951,28.11957440788112
1760597942.9940228,23.769615333832807,0.6802971977763873,0.848294448784943,0.18353051332311768,18.035864997577754,9.370349819030375,25.252209770908824
1760597943.0039158,24.22342372370065,0.7406214399403623,0.8755688476563134,0.188378806245543,15.923235907755673,12.359636948198096,22.38299889088217
1760597943.013988,24.64541041991782,0.7885889079545311,0.8965115352488002,0.190194462551183,12.978012344161403,17.320793082237145,19.50044127269718
1760597943.023935,25.025670066611603,0.8175587092003682,0.9083825111237807,0.1891439538742312,9.458874235281222,24.18107169775274,16.567394543589877
1760597943.0339196,25.35399457873146,0.8220895679914785,0.9093128921546768,0.185740274832735,5.7305921224279945,32.65016730646633,13.51946594381089
1760597943.0439203,25.620394207821576,0.798921354502448,0.8986726255352168,0.18081563131078016,2.237189067951709,42.21917130730731,10.26671711488699
1760597943.0539608,25.81559857483752,0.7477534350709075,0.8772231826538115,0.17543833116677893,-0.5398005250304192,52.18856439107285,6.69937752011206
1760597943.0640507,25.93151095270662,0.6716071298276958,0.8470165276554469,0.1707736715329684,-2.133639335386614,61.72614077744026,2.6976607140956195
1760597943.0739467,25.96159429213735,0.5766475942211843,0.8111040382341987,0.16790761616369174,-2.147795264747024,69.94960338634418,-1.8549827160629517
1760597943.0839193,25.90116740791829,0.4714812184367719,0.773181927582905,0.16767065879318313,-0.30557403872143,76.02321760782739,-7.056465477060779
1760597943.0939364,25.74759510776476,0.3660747233089259,0.737280184362267,0.1705051443001915,3.5140449233178184,79.25506391512744,-12.970085667289426
1760597943.1040154,25.500370875545105,0.27050657644666715,0.7075298608333325,0.1764058945735223,9.259760772756499,79.18150051190156,-19.60959928607933
1760597943.1139286,25.161104444832745,0.19375061131640162,0.6879801633341057,0.1849387244874042,16.712379208774816,75.62778505006735,-26.92713709405816
1760597943.1239707,24.733427897163168,0.1426393612245567,0.6824135778280221,0.19531809563906785,25.50857867790148,68.73752894330683,-34.80603434247081
1760597943.1339283,24.222825131162843,0.12110084746042037,0.6941141512249939,0.20651497109098393,35.179128137629,58.96810944042648,-43.06055946312242
1760597943.1439517,23.636383019958505,0.1297239471573599,0.7255612393769156,0.2173731003737614,45.19459344841279,47.05373528838132,-51.443670975662094
1760597943.1539364,22.982467665184632,0.1656794577556926,0.7780433052313706,0.22672768397969179,55.01106026325317,33.94173259831979,-59.66241880248811
1760597943.1639364,22.270345794276565,0.22299862660667213,0.8512183222418812,0.23352660855657506,64.10956070353225,20.709977043226672,-67.3989930691864
1760597943.1739416,21.509791699302394,0.29318423034223157,0.9426890580943669,0.23694441703350663,72.02529019302963,8.473983733718823,-74.33432281542281
1760597943.1839519,20.71073257543911,0.3660995681343192,1.0477033830345668,0.2364679585899532,78.3655762143905,-1.708562988734885,-80.17095549323085
1760597943.193946,19.882979534898908,0.43104988995541055,1.1591152497532775,0.23193611954045715,82.81815406274912,-8.929277686025317,-84.65277194191913
1760597943.2039309,19.03606593054476,0.4779470976427843,1.267733683868803,0.22352855338620486,85.15313292139084,-12.51098516010025,-87.58052993165751
1760597943.213968,18.17917812880704,0.49844106903429386,1.3631339832926226,0.21170412476075776,85.22301925472523,-12.075012659820292,-88.8236075159369
1760597943.2239835,17.32113218923689,0.48690918959589735,1.4349083638935727,0.197086900501992,82.96539745578079,-7.588811542933502,-88.3290175402527
1760597943.2339525,16.470336380337663,0.44120895267701254,1.4742082911819028,0.18029995138213434,78.41207186136991,0.6115065916808435,-86.12847642983897
1760597943.2440577,15.634688585562845,0.36310426068409235,1.4753077676413242,0.16176681455713193,71.7059154749255,11.829655392906984,-82.34315310062392
1760597943.2539468,14.821382761550787,0.2582688653670113,1.4368371558498643,0.14153271062754766,63.122117550559054,25.05450988938387,-77.18435162803638
1760597943.2639625,14.036624820000517,0.13576534778066818,1.3623461611590713,0.1191849961049511,53.08540267248007,39.04583767962704,-70.94783198536106
1760597943.2742286,13.285273151013712,0.006939915880124764,1.259981236130945,0.09395202344830433,42.17191496101036,52.45804475924464,-64.00043705959553
1760597943.2839646,12.570426252729776,-0.116193040990866,1.1412870203373495,0.06501045555956138,31.086031125823542,63.990294124520176,-56.759635331768344
1760597943.2943122,11.893000408941491,-0.2227980066445134,1.0193851405215457,0.031937106774652405,20.608188561509266,72.54179194300863,-49.66790063912601
1760597943.3039544,11.25138905486938,-0.30485571785684534,0.9069476831345955,-0.004850620759535557,11.51751549324544,77.34562990568122,-43.163427296371175
1760597943.3139548,10.641353508064222,-0.3581588086661704,0.8144055363366343,-0.04385149944184983,4.499909264047746,78.05633189531477,-37.64732341255258
1760597943.3239553,10.05631173881309,-0.3824413562841615,0.7487209749817857,-0.08256432184605295,0.05660484926293949,74.7750010590842,-33.44724029670264
1760597943.334054,9.48812488538847,-0.38071542455819124,0.7128719003418205,-0.11791332526065365,-1.570271222910475,68.00894888017177,-30.7796529455159
1760597943.343982,8.928334676179377,-0.35812076731977466,0.7060180334436829,-0.14690677316269762,-0.4401932788740363,58.57613147275522,-29.716779045553903
1760597943.353951,8.369635821329013,-0.320671795934779,0.7241965022673065,-0.1673380296658107,3.0856724424233835,47.47505843675248,-30.16690985980914
1760597943.3639555,7.807253942483597,-0.2742156232973583,0.7613360877818561,-0.17832368014437144,8.389965228127577,35.745662139620364,-31.876459098462746
1760597943.3740401,7.239895716529071,-0.22376507530926518,0.8103732116277097,-0.1805258964500559,14.68447020339566,24.345182612963896,-34.45776531496026
1760597943.384011,6.670043099098246,-0.1732179737678812,0.8642830362777685,-0.1760035418273461,21.120994084406064,14.056403062121909,-37.4400396171674
1760597943.39395,6.1035277697300945,-0.12537105999586046,0.9168934015589362,-0.16774372494744347,26.907759178516503,5.435931538894895,-40.3344115321717
1760597943.4040039,5.548481940690924,-0.08210204709215539,0.9634142416958202,-0.159008875634824,31.410366295281076,-1.1992722454541849,-42.70025412477573
1760597943.413949,5.013876264795898,-0.044612432509048505,1.0006756393347624,-0.15267133268355987,34.22061602401217,-5.755623211628231,-44.200112785624576
1760597943.423958,4.507913924582656,-0.01366230317610104,1.0271129809071122,-0.1506923833564392,35.184408471509165,-8.328012935671357,-44.634188473139936
1760597943.4339688,4.036558209085373,0.010243539048848454,1.0425640965499654,-0.15384743890740676,34.38893720051002,-9.15637030926079,-43.950770726400265
1760597943.4439805,3.602438466291578,0.0267463725958674,1.0479520631559602,-0.16172563226851247,32.116966191897944,-8.580658986098,-42.234375285938285
1760597943.4539585,3.204312892592254,0.035617793174921496,1.0449224754253754,-0.17296341480277183,28.780624187259903,-6.997983859667648,-39.67724373686357
1760597943.464028,2.83717010686919,0.036829552775620146,1.0354909705799162,-0.1856255867995233,24.848465095101776,-4.823265963319223,-36.541708501049904
1760597943.4739392,2.4929337905231437,0.030668825351952506,1.0217409902963792,-0.19763278052236039,20.77799100007776,-2.4541614811023615,-33.12079958329431
1760597943.4839554,2.161619479337249,0.01783861140392443,1.005596411997707,-0.20714843448996287,16.96239993838092,-0.2410886672567473,-29.70289913520521
1760597943.4939413,1.8327144436006215,-0.0005088499335020244,0.9886793920832195,-0.21286727057667443,13.696135620451523,1.5363371235486876,-26.543957027582803
1760597943.5039732,1.4965355333291024,-0.022826270707358584,0.9722503593116085,-0.21417706442935694,11.159876379101462,2.6850074813124887,-23.848499694938226
1760597943.5139534,1.1453635403568687,-0.047299395673816025,0.9572157344868577,-0.21118901715626365,9.422584429732757,3.1050544344050404,-21.75897638332166
1760597943.5239573,0.7742291553065159,-0.0720156210205851,0.9441816473473618,-0.20464919197499604,8.456423234316205,2.78730269747058,-20.352145378423117
1760597943.5339577,0.3813027953653352,-0.09513840529019667,0.9335296333894284,-0.1957565548679431,8.159679320040249,1.802168700375154,-19.641090679007426
1760597943.5439713,-0.03210069362746922,-0.1150619464753249,0.9254924912470223,-0.1859232340395745,8.383045886166052,0.28171168221072174,-19.581726857326895
1760597943.5539575,-0.46185211316921876,-0.13053027914160217,0.9202138971566877,-0.1765187648305153,8.955429049784438,-1.6027949444439666,-20.082924457904262
1760597943.5639584,-0.9015939328813202,-0.14071007256887788,0.9177824629751853,-0.16864056368616817,9.706518400984024,-3.665152847936133,-21.019439072513695
1760597943.573957,-1.3434809242915333,-0.14520902583141318,0.9182381616386371,-0.16294675890059696,10.484463769732837,-5.7278610288626375,-22.246631199078763
1760597943.583971,-1.7789617557838204,-0.14403675325152365,0.9215552846121152,-0.15957537899685054,11.167954284004868,-7.642828684598775,-23.61567600370864
1760597943.5939863,-2.199494044728344,-0.13751483432033085,0.9276105784719074,-0.15815768816583767,11.672745382385138,-9.307309605411598,-24.987798219473746
1760597943.604024,-2.597113794417572,-0.1261551550213031,0.9361473502803513,-0.157916468493836,11.95322847550221,-10.673633989184466,-26.246158993734106
1760597943.6140516,-2.964825409362935,-0.1105356872662689,0.946745960553707,-0.15782643627399517,11.999991845127596,-11.751856840645203,-27.304348577876407
1760597943.6240153,-3.2968276871807873,-0.09120560297223577,0.9588088871549312,-0.15680677271534801,11.83447175665869,-12.60510180708978,-28.110888507280976
1760597943.634001,-3.588629959297472,-0.06864521331526553,0.9715656815809114,-0.1539151172629505,11.501749203557836,-13.338137410842966,-28.64961002600525
1760597943.6439612,-3.8371305001247413,-0.043292244287898664,0.9841007156623663,-0.14851619883431563,11.062366879351352,-14.080499153378094,-28.936185286056034
1760597943.6539905,-4.040722895324043,-0.01562846960828837,0.9954050001877733,-0.14040429973694388,10.583819726903123,-14.966135717890188,-29.011414161910164
1760597943.663975,-4.1994689709990976,0.01369531873781918,1.0044520606650476,-0.12986587628243523,10.132209521859648,-16.111996182595114,-28.932110425691548
1760597943.6739633,-4.315337784394112,0.04372884916369206,1.0102957026286419,-0.11767663741872068,9.764504337822421,-17.59813727850959,-28.760599803541567
1760597943.6839955,-4.392468749915304,0.07312352260470484,1.0121835593791324,-0.10503572416254991,9.521891423734646,-19.45181298152311,-28.553947511804765
1760597943.693954,-4.437382019505525,0.10009978084037909,1.0096751849398689,-0.09344721144152739,9.424778740270343,-21.637624611280568,-28.354068333095867
1760597943.7039738,-4.459039533121362,0.12250521101443518,1.0027491484476287,-0.0845646839816797,9.469987431577088,-24.055179817082976,-28.179823924648556
1760597943.7141395,-4.468663739642294,0.1379700874346369,0.9918817428899918,-0.08001726434682249,9.630520482053887,-26.54488460034594,-28.022068636476476
1760597943.723949,-4.479250369176592,0.14414514371211215,0.9780806409424113,-0.08123491512367627,9.85799799388821,-28.901569856305407,-27.84236333460527
1760597943.7339582,-4.504760506826306,0.13898704004884735,0.9628595295172045,-0.08928758017527189,10.087485220931525,-30.89476560212899,-27.575736008730438
1760597943.744121,-4.559033568602697,0.12104538928752219,0.9481444701410504,-0.10474839464711916,10.244090898144911,-32.29370217196394,-27.137427386702484
1760597943.7540166,-4.654514436260801,0.08970304112378438,0.936110206973874,-0.12758825268448223,10.250441456493402,-32.8945892682666,-26.43303292743902
1760597943.7640896,-4.8009263316839235,0.04532792874190163,0.9289552017964032,-0.15710944789642267,10.033974648487899,-32.54739642116271,-25.370897088859422
1760597943.7740312,-5.004043576251892,-0.01069286891353411,0.9286362074548267,-0.1919296836676446,9.532981227067193,-31.179241016712496,-23.875147200747357
1760597943.7840657,-5.264728201697883,-0.07605195636604486,0.9365930797496229,-0.23003128455230595,8.700518016542595,-28.81163370493856,-21.89750730327713
1760597943.7940385,-5.578392439833427,-0.14775217352756576,0.9534991780435432,-0.26888874859657136,7.505762325335915,-25.569287737624983,-19.42608347036494
1760597943.8041906,-5.935027224478362,-0.22244488467228912,0.9790720410441651,-0.305675702582813,5.933004673174315,-21.678960854220403,-16.48963601097477
1760597943.813941,-6.319881081892215,-0.29682156404297566,1.011975425610377,-0.3375273337192258,3.979069904742705,-17.457775524172206,-13.156361742445476
1760597943.8239505,-6.714776424911819,-0.36797538282171144,1.0498395381100534,-0.36180447168568347,1.6502722278767183,-13.2915181862071,-9.526832768703395
1760597943.8339415,-7.099919803224917,-0.43363943634871915,1.0894208803586911,-0.3762959097870801,-1.0400642862244358,-9.604416022868264,-5.721466147234758
1760597943.8439322,-7.45592839405816,-0.49223077311059565,1.126912074957101,-0.3793279857613303,-4.072881809600989,-6.8227207709925946,-1.8637252754125662
1760597943.8539882,-7.765704691484767,-0.542683114195442,1.1583897425363754,-0.3698062036888148,-7.4233541355162505,-5.335027667572202,1.938903679008224
1760597943.8641078,-8.015793755235448,-0.5841191435330131,1.1803545680053962,-0.34724404188586483,-11.05989630438786,-5.45263527352075,5.6134282879226545
1760597943.8739562,-8.196971315572904,-0.6154734231938775,1.1902807972709337,-0.31181683178683706,-14.942821537631882,-7.373483436376349,9.136275884705265
1760597943.8839648,-8.304005621803364,-0.6352098529379998,1.1870681179921136,-0.2644373212288578,-19.023265287907183,-11.153341494092503,12.541659314583205
1760597943.8939722,-8.33474401937346,-0.6412687365649506,1.1712917901986752,-0.20681710993222138,-23.242884578078304,-16.687878374760402,15.921064643201714
1760597943.9039855,-8.28882953830364,-0.6313237624690166,1.1451814359620247,-0.14146768365456544,-27.53470713325536,-23.70882492638382,19.412743873518043
1760597943.9139898,-8.166414600504902,-0.6033379609759059,1.11231644380668,-0.07160439671083456,-31.8253464916892,-31.7964686923102,23.181720434204873
1760597943.9240901,-7.967203023663489,-0.556298877835845,1.0770903741212499,-0.0009404679550553573,-36.03853464215521,-40.40923805481351,27.392590295113163
1760597943.9340057,-7.690036198240141,-0.4909177851763226,1.0440502381556664,0.06661366307652695,-40.09952915164173,-48.9292971959405,32.17900548463857
1760597943.9440005,-7.333078870304305,-0.41004526287498233,1.0172416160722615,0.12730904389020506,-43.939546733292005,-56.720959970092046,37.61485783827691
1760597943.9540057,-6.894498825390453,-0.318625290366602,0.9996767488908876,0.17792830965906026,-47.499163885523345,-63.19638544015577,43.69251781993458
1760597943.964234,-6.373416073183736,-0.2231589511619202,0.9929962170338223,0.21611483554228353,-50.729743954386414,-67.8808123584712,50.31270392098485
1760597943.9741397,-5.770848320086892,-0.13079846187610566,0.9973384376354862,0.2406041242137015,-53.59237267959936,-70.46832802415608,57.28856372696703
1760597943.9839628,-5.09040495556355,-0.04828064293311627,1.0113926523558188,0.25131090111509563,-56.05436890094525,-70.85958608800256,64.3637095520349
1760597943.99419,-4.338564720817302,0.019072018478914602,1.0326048257530898,0.2492641983066464,-58.08403672001792,-69.17506279447612,71.24107530786942
1760597944.004003,-3.5244826590631417,0.06808780127762243,1.057518701588294,0.23643177534560608,-59.64485820846358,-65.7408386912566,77.61744085830352
1760597944.013979,-2.6593777564310948,0.09809445961661555,1.0822358274579433,0.21549383214120385,-60.69072991149899,-61.04788608065765,83.21782302693424
1760597944.0239844,-1.7556302890431674,0.1108443450128547,1.1029518269883698,0.1896016462766558,-61.163971132350916,-55.68988643286621,87.82455200309909
1760597944.0339737,-0.8257567321233203,0.11006834998746302,1.1164844957060565,0.1621198962257868,-60.997490554286394,-50.28804010945655,91.29725993831698
1760597944.0439556,0.11856980686713396,0.10077860631422021,1.1206863041255901,0.13633655999834465,-60.1216779120481,-45.41344298859318,93.58181261269745
1760597944.0539665,1.067317737433227,0.08847264859778572,1.1146578178557123,0.11514195204141486,-58.47550164285784,-41.517927911176685,94.7081906702828
1760597944.0639791,2.01263028277309,0.07838474889848882,1.0987411979812236,0.10071587479778898,-56.020236311282865,-38.88274611323567,94.77916003253131
1760597944.0739837,2.9490667587892085,0.07488919797058001,1.0743323266076708,0.09428922090914343,-52.753481579931766,-37.59141441671138,93.95278560389778
1760597944.0839617,3.8735685487760065,0.08110245414574123,1.0435744329459538,0.09603781880372148,-48.72083018381622,-37.529159838705596,92.4221057017018
1760597944.0940125,4.785191147922081,0.09868064216997699,1.0089930140692223,0.105127398764198,-44.02269438995995,-38.40753155586511,90.39471968497531
1760597944.1039658,5.684654396050395,0.12778422118227079,0.9731256401170717,0.11988884580629772,-38.81431980672386,-39.80960166739489,88.07413976022218
1760597944.113965,6.573769711829543,0.16718194233177125,0.9381970736692536,0.13808263399485413,-33.2978891660293,-41.24896852850463,85.64400658967199
1760597944.1239724,7.454811044891564,0.2144750541117058,0.9058800583788577,0.15720875022346664,-27.706914952660867,-42.23444089669734,83.25587512557797
1760597944.1339736,8.329902934728445,0.266423480619626,0.8771626569759695,0.17482255083541104,-22.284712327911894,-42.33184593288018,81.02113181503475
1760597944.143963,9.200497403251761,0.3193431935771576,0.8523233826076732,0.18882001357071637,-17.260089722905803,-41.215138570172165,79.00742589248689
1760597944.1540046,10.066996393288047,0.3695261551463563,0.8310025746005848,0.1976576121431044,-12.823864900055629,-38.701037985465256,77.23959891725907
1760597944.1639667,10.928550962120468,0.4136250063261079,0.8123513976418409,0.20047988981162868,-9.109323892643193,-34.764362066923,75.70454411608848
1760597944.173949,11.783041965321281,0.4489536152260354,0.7952353730352211,0.19714707475503737,-6.178813482668052,-29.534234082947002,74.35892755160914
1760597944.1839454,12.62722786522833,0.4736798382641145,0.7784663195766509,0.18817801076430882,-4.0178272315304335,-23.27370273173967,73.13841279447034
1760597944.193946,13.457034688686276,0.48691580481882035,0.7610337046966538,0.1746357964424369,-2.5372954693483303,-16.346810868691698,71.96700896875656
1760597944.2039452,14.267956449071193,0.48872896622032225,0.7423033504457719,0.1579806623323153,-1.5840979945487692,-9.177879995495854,70.76540187597809
1760597944.2139747,15.055527058980639,0.4800981813823371,0.7221525432731589,0.13990570777177982,-0.9589263046498098,-2.2079567991823827,69.45755101629439
1760597944.2239563,15.815816380373134,0.4628293469494926,0.7010207291062568,0.1221661333718075,-0.43961457987441716,4.146900607577701,67.97530562561067
1760597944.2339656,16.545896387536633,0.4394350853803038,0.679871962750285,0.10641332682133228,0.19280092484263858,9.531563625350746,66.26118884052228
1760597944.2439442,17.244221361696233,0.41297881458927277,0.6600815503015075,0.09404651906550066,1.128468504348748,13.679273506977482,64.26976734026114
1760597944.2539477,17.910869690886894,0.38688454791640603,0.6432694389779654,0.08609231439582851,2.5065958893120293,16.42932982309912,61.96816058588632
1760597944.2639565,18.547604233503208,0.3647167128848005,0.6311062856134582,0.08311752435944056,4.39921579678453,17.735219737267265,59.336253216674066
1760597944.273951,19.157723522971853,0.34993720959742597,0.6251166700435781,0.08517794138227479,6.8023043391586,17.664496752158392,56.36706166354479
1760597944.2839568,19.74569752018729,0.34564950976762143,0.6264999826679276,0.09180699821987666,9.634722856633244,16.392291278594584,53.06749794835862
1760597944.2939632,20.31660806889323,0.35434083121604154,0.6359847116329498,0.10205071863324741,12.744620726200674,14.190268995023345,49.45951394621966
1760597944.3039558,20.875442886602094,0.37763211125651563,0.6537254701743399,0.11455362470172235,15.922382825270804,11.41221090842565,45.581333934664876
1760597944.313963,21.426319155504558,0.416043609606972,0.6792431424413625,0.12769264444652256,18.9189288692728,8.476428134552364,41.48822746254817
1760597944.323951,21.97173433705405,0.46878677392578205,0.7114006992553087,0.13974738501317654,21.468091796184872,5.844304746926164,37.252095141631614
1760597944.3341298,22.511952424206328,0.5336040128348251,0.7484070714969149,0.14909078633638745,23.311845297322613,3.993685941760314,32.95908560500949
1760597944.3439615,23.04462782446149,0.606694613806694,0.7878503772190302,0.1543839329331314,24.227227966139036,3.385810053343584,28.70455283451871
1760597944.3540027,23.564742421793728,0.6827791836652113,0.8267752248687579,0.15475911677739945,24.053731312721425,4.425226876699834,24.58493533794999
1760597944.363957,24.06488342332904,0.7553573587716828,0.8618309280627956,0.1499727821246023,22.719468752958143,7.413787128130462,20.68664428247016
1760597944.3740318,24.535825644269533,0.8171979172268644,0.8895208236630396,0.14050337620077444,20.263620542481274,12.502186747073385,17.072758880484912
1760597944.3839457,24.967316147352697,0.8610658181382932,0.9065682771643233,0.1275630351877025,16.851742276702737,19.645217181022016,13.769084728427451
1760597944.3939507,25.348913179881738,0.8806394972706746,0.910377698839652,0.11299624110658303,12.779963698961001,28.56911738615991,10.751728121480406
1760597944.4039764,25.670725405390677,0.8715075684733172,0.8995156216279356,0.0990584332911654,8.464330620403256,38.76047242873968,7.9386279004038816
1760597944.4139783,25.92393760419152,0.8320672626541366,0.8740922319330099,0.08809762004443561,4.412952148637118,49.485133509342496,5.187374477069677
1760597944.4239545,26.101078661295386,0.7641070386554617,0.8359285395681245,0.08218971022372355,1.181377308047955,59.841958018679826,2.301068223771973
1760597944.433977,26.196055810285184,0.6728863899551392,0.7884688905352308,0.08279298102272117,-0.6846924576946818,68.84983119927531,-0.9570625563915107
1760597944.4439635,26.204023493326314,0.5666429598164453,0.7364967659192785,0.09048663152497365,-0.7118157693038656,75.55889473513676,-4.840881714798688
1760597944.4539428,26.1211748575826,0.45561225309217734,0.6857524354941119,0.10484483346376448,1.4430069598261934,79.17079863655364,-9.592278810591003
1760597944.463942,25.94454746672375,0.35075498518367193,0.6425108093269303,0.12447126644811517,5.947237529360766,79.15031193633612,-15.408620002195335
1760597944.4739616,25.67192392997397,0.26240654832824145,0.6131144717732508,0.14718369957706795,12.767110760861785,75.31204675667362,-22.41008029450255
1760597944.483953,25.301878317106482,0.1990171370391882,0.6034319980602917,0.17030703024329086,21.664004266468755,67.86995393046693,-30.610685985326942
1760597944.4939642,24.83397238184542,0.1660957398861086,0.6182325223177593,0.19101913224767575,32.21174043856124,57.44210167408434,-39.897379619461695
1760597944.5039656,24.269056086792947,0.16544164813755602,0.6605076799039072,0.20669753792308673,43.83066636545819,45.00843729342712,-50.02149536836245
1760597944.513951,23.609594136834634,0.19474194285096721,0.7308110229725016,0.21522703741320262,55.83264824010865,31.824642845504297,-60.606036740155794
1760597944.52399,22.859936207624905,0.24760995360370683,0.8267163419655148,0.21523949546493235,67.47099647307681,19.300294188479995,-71.16988767672198
1760597944.5340166,22.026471271954044,0.3141162846088849,0.9425170284000626,0.206265651746993,77.99070960742915,8.853411028525123,-81.16710953456764
1760597944.5439837,21.117642920810866,0.3818143756068073,1.0692942744831395,0.1887869295842564,86.67663189153843,1.75576151951071,-90.0367071910071
1760597944.5539877,20.143837039882865,0.4371964807134974,1.1954670806333125,0.16418064202723276,92.89908980400075,-1.015620534167108,-97.25650371094622
1760597944.5639775,19.11717389646279,0.4674482924572128,1.3078934330130079,0.13454866258255638,96.15747875676273,1.0951458969991954,-102.39441054481368
1760597944.573961,18.051239348641406,0.46230855659343845,1.3935064676323714,0.10241485472432753,96.12200310193965,8.1338847044031,-105.15119772762874
1760597944.5840347,16.960777408943933,0.4157819731316731,1.4413301017591467,0.07029323723765458,92.67260957803708,19.598734832114225,-105.3902737251241
1760597944.593975,15.861345488255614,0.32740256473575163,1.444537813610959,0.0401827308648351,85.93210693965322,34.46416561568594,-103.15152967963309
1760597944.6039774,14.768910466995859,0.20272766214137877,1.4020613074239028,0.013118812580393253,76.28748742023173,51.27152154412912,-98.6480093553891
1760597944.6139605,13.699342565310408,0.05281034074494518,1.3192328984576187,-0.011043157096010477,64.39056932563807,68.28282490464939,-92.2463381222872
1760597944.6239817,12.667752775626877,-0.10740895242363442,1.2071390770894845,-0.03347747997255789,51.128516174361295,83.68351404279197,-84.43433964141336
1760597944.6341164,11.687636796751578,-0.2615521730655832,1.0807389364571205,-0.055865740138567016,37.558337404822055,95.80755598626212,-75.78095873898936
1760597944.6439595,10.769854292796511,-0.3945564492492275,0.9561986083523403,-0.0796602498354316,24.806713333036154,103.34912588132785,-66.89313662017918
1760597944.6539917,9.921582626832212,-0.49504622171414675,0.8481218166681086,-0.10539680711048757,13.945090738031297,105.5235258920046,-58.37177298957089
1760597944.6639633,9.145493700467922,-0.5567517505716686,0.7673274188845066,-0.13231329692566277,5.857391601333498,102.148481038564,-50.766477465941094
1760597944.6739738,8.439443856268515,-0.578730258278417,0.7195911465979463,-0.1584185987614514,1.1220267310509695,93.63359908249247,-44.52886968441012
1760597944.6839688,7.7968919379889385,-0.5645367374871721,0.7054619364332096,-0.1809941165595338,-0.06992615501888019,80.88553878696675,-39.96729834704947
1760597944.6939754,7.2080740238302425,-0.5207728318758927,0.7209986221226184,-0.19736292482338194,2.056983800216674,65.15324797932816,-37.210239999443566
1760597944.704069,6.661729558120496,-0.4555191571179335,0.7591095981346673,-0.2056766205954014,6.896422657427098,47.84690227021081,-36.18833124818333
1760597944.7140887,6.146990258761014,-0.37703792015788673,0.8111282495929723,-0.20547061050243573,13.553230985171526,30.36413987472403,-36.64354839297409
1760597944.7240427,5.654987743208528,-0.29291397963356186,0.8683006732430054,-0.1978225012625136,20.980291982757727,13.949143107474422,-38.16815008034227
1760597944.7339916,5.179823600948252,-0.2096066677417089,0.9229616174836085,-0.1850852204348029,28.134398982399425,-0.4023256815163485,-40.267876536846494
1760597944.7443097,4.718731472587475,-0.13228848393994388,0.9692907614093236,-0.17030421253927072,34.12207085703184,-11.991217972818411,-42.43707255067176
1760597944.7539492,4.271473276474602,-0.06484795656024375,1.003644849922405,-0.15651468750355474,38.30932626155984,-20.424870513731364,-44.23056184041629
1760597944.7639844,3.839188253087965,-0.009979128450869533,1.024532371516725,-0.14612475317511958,40.37877597100903,-25.599652032524006,-45.31885933400202
1760597944.7739542,3.423017534029456,0.03068426877457375,1.0323295025626797,-0.14053248239866573,40.3299053389432,-27.667092647178894,-45.518445191609665
1760597944.7839558,3.0228491152549077,0.05642458793510717,1.0288371492286832,-0.14003194954869194,38.43033580739053,-26.990378219617412,-44.79528222408386
1760597944.7939627,2.636476141454077,0.06732374214283703,1.0167657648411457,-0.14397282833457611,35.13421710260441,-24.09445215674038,-43.24552072057485
1760597944.8039622,2.2593507240234922,0.06419835269029989,0.9992202932658482,-0.15107922460036632,30.987276412540908,-19.611067721810663,-41.06101349075941
1760597944.8142424,1.8849689897265298,0.04857504546659987,0.9792454858768272,-0.15981700413896896,26.53666427751559,-14.220319858660387,-38.48840343509069
1760597944.8240094,1.5057749749287073,0.02266102074381334,0.9594784234602788,-0.16871731343695692,22.25903923301922,-8.591644961267766,-35.78952751728042
1760597944.8340154,1.1143615275788534,-0.010739756865885335,0.9419360799649621,-0.1765996965006,18.51419162083732,-3.3288454744095617,-33.2085415664649
1760597944.8440971,0.7047040807508761,-0.04838886206271058,0.9279409552786874,-0.18267474047123272,15.525546425470301,1.075518659457757,-30.948439580052323
1760597944.8540313,0.27319063927365134,-0.08684281339714797,0.9181624324989656,-0.18653466560927343,13.384186989561053,4.271478653487475,-29.15729157750697
1760597944.8641512,-0.18071340179151338,-0.12271365168924915,0.9127335996178905,-0.18805944967129787,12.070095524348293,6.06554276089432,-27.922995249133066
1760597944.874001,-0.6542371831837546,-0.15291987579883187,0.9113982371794699,-0.18727790603316594,11.483133273217957,6.416416955485128,-27.27468356022355
1760597944.8840144,-1.1415080189340987,-0.17489778663692424,0.913650029386645,-0.18422823618191642,11.476626946876983,5.414487022396793,-27.18892406605477
1760597944.8939667,-1.6341289664166299,-0.18675884449934776,0.9188406976798509,-0.17885934263582662,11.887877768308273,3.2491577294522194,-27.599144705041585
1760597944.9040515,-2.1220391857552734,-0.18738942474721237,0.9262494821481153,-0.17100156437902778,12.56194951662243,0.16954936473314938,-28.407024809960593
1760597944.9140673,-2.5945443858738515,-0.1764936867072079,0.9351186151295028,-0.16041568278013477,13.367185313906864,-3.5553866859139376,-29.494742329841472
1760597944.9240348,-3.041393654835094,-0.15458238190151002,0.9446663201128863,-0.1469072079440468,14.202628458968146,-7.671545387358845,-30.736990425116183
1760597944.9340088,-3.4537828118404166,-0.12291415350109093,0.9540912980107605,-0.13047470965758978,14.998672086058068,-11.964435739225895,-32.01170751181268
1760597944.9439778,-3.8251852450108004,-0.08340068646737674,0.96258269529475,-0.1114502523993817,15.712833855862296,-16.27114298819199,-33.208630761728685
1760597944.9539862,-4.151943904173135,-0.03848957559300228,0.9693481618156092,-0.09058891898988691,16.32267404357872,-20.478875527036372,-34.23510585045578
1760597944.9640133,-4.4335931149682155,0.00896294050786313,0.9736689462608838,-0.06907407339685084,16.817719922424114,-24.511881222814807,-35.01899933171678
1760597944.973996,-4.672908168076591,0.05582214362877896,0.9749841228016659,-0.04842586167338476,17.191969383842505,-28.31062922981138,-35.50897695628875
1760597944.9841046,-4.875700423000911,0.098806639076278,0.9729969230900508,-0.030330528899762937,17.438198263060094,-31.808615930904367,-35.67275493177051
1760597944.9939754,-5.050386018066661,0.1346256907821578,0.9677872256889908,-0.016437849581166043,17.544898835090045,-34.91266197912667,-35.49414011916009
1760597945.0040612,-5.2073607211166975,0.1601286884592644,0.9599076663763757,-0.008184395936952625,17.496204026833627,-37.491968386547896,-34.9697132806576
1760597945.0140169,-5.358216996414714,0.17247268758751488,0.9504374331713691,-0.006679116773225031,17.27457965933963,-39.379562336561136,-34.105873052548745
1760597945.0240753,-5.514844431219593,0.16931016278791977,0.9409683170922648,-0.012649048991454824,16.865426380693297,-40.387358250321576,-32.91667653887665
1760597945.034026,-5.688460483171985,0.1489926070486906,0.9335038863037367,-0.02641652974345278,16.262147735843993,-40.33331238588794,-31.422553750755974
1760597945.044049,-5.888625766880044,0.11077579099220856,0.9302662647445061,-0.04787787744273461,15.469907786554998,-39.076600676758304,-29.64964258107969
1760597945.0540009,-6.122310625432658,0.05499971002273355,0.9334239708753618,-0.07646774881761306,14.50639922375648,-36.55493067358785,-27.629290633010296
1760597945.0640025,-6.393098358122585,-0.016794060566896755,0.9447731428332435,-0.11111149307836521,13.39853367082254,-32.81733215375816,-25.397238473572173
1760597945.0740001,-6.700627119438816,-0.10184384199306348,0.965417897195542,-0.150184789289215,12.174963886128776,-28.04609120337993,-22.992089206220008
1760597945.0839784,-7.040372615518563,-0.1962684675783776,0.9955008707955769,-0.19151197989061616,10.855541040071575,-22.562750536410974,-20.452797013737268
1760597945.0939753,-7.403844747687157,-0.2952831199434547,1.0340315922968557,-0.23243724517586323,9.439895918279205,-16.815095866111985,-17.815015940155643
1760597945.1039991,-7.779210603692526,-0.3935053109028547,1.0788491492529317,-0.26999365468707937,7.897970822440233,-11.344574942087306,-15.106242260092259
1760597945.1139884,-8.152274228575152,-0.4853155242225482,1.1267397374433301,-0.3011748152639262,6.165252283780999,-6.736391560864542,-12.33982188872555
1760597945.1239762,-8.507662646432596,-0.5652385097814915,1.1737124140058846,-0.32328532777173485,4.1446084933010425,-3.5572259341665426,-9.508178037806362
1760597945.1339977,-8.830015803597597,-0.628320902080183,1.2154170022632687,-0.33431619365415044,1.7152467125744149,-2.2877626043270287,-6.576115096391788
1760597945.1440182,-9.104979164100245,-0.6704919411716129,1.2476627924966863,-0.33326986574797035,-1.2522078642673,-3.2586478058141983,-3.47571408332384
1760597945.1539972,-9.319858103316886,-0.6888992884505966,1.2669665667312853,-0.32035592961786674,-4.876756159242426,-6.598944214109953,-0.10490057882759268
1760597945.1639643,-9.463895403515698,-0.6822080433438406,1.2710351557774615,-0.296996290689768,-9.247182178839891,-12.205445789888834,3.668125524558159
1760597945.173983,-9.528240906062482,-0.6508384724497553,1.2590879205383236,-0.26561643622988446,-14.404446692315783,-19.739242471880335,7.993028041141133
1760597945.1839907,-9.505756803917528,-0.5970972760422801,1.2319563614181464,-0.22924904688918882,-20.328939614781316,-28.652643971099746,13.017857753947132
1760597945.1940432,-9.390818876972657,-0.5251356114053297,1.1919512901763154,-0.19102383652057495,-26.934261476927624,-38.245145551726296,18.863743918319333
1760597945.2039802,-9.179233331808852,-0.44066551865257325,1.142539925867346,-0.15364716147850885,-34.06823247507604,-47.74213164477559,25.59764127354527
1760597945.2139726,-8.868313240137711,-0.3504060626524308,1.0879077096448186,-0.1189782649092258,-41.52117473067291,-56.385535220356864,33.20854349020734
1760597945.223977,-8.457080841909058,-0.2613074120181351,1.0324885024291095,-0.08779012415085558,-49.041028638053774,-63.522977437094085,41.59273420779244
1760597945.2339942,-7.946510485544866,-0.17968071574109518,0.9805359683583436,-0.059770844435244844,-56.35404677592207,-68.68196328237184,50.55212169114505
1760597945.243974,-7.3397144294764685,-0.11040442738513874,0.9357807714122143,-0.03377737339001305,-63.188450593036954,-71.61858600880421,59.80695034081612
1760597945.2539713,-6.641995947898344,-0.05636849686685222,0.9011762722330987,-0.008291568419231893,-69.29706836888735,-72.33493899214017,69.02115440777806
1760597945.263986,-5.86073599241285,-0.01826689618789785,0.8786976412820037,0.01804090113164745,-74.47462742351051,-71.06463251529124,77.8362110083241
1760597945.27397,-5.00512224702597,0.0052285203162081495,0.8691589160589022,0.045948111443202884,-78.56672690741155,-68.2303807625323,85.9080523755727
1760597945.2839782,-4.085757770495244,0.01696920013658759,0.8720632520070781,0.07527997139290812,-81.4701256377649,-64.38105055491225,92.94145462979392
1760597945.2940273,-3.1141956864497438,0.02063871543209713,0.8855630244376991,0.10502291249501415,-83.12651076123129,-60.1176681741818,98.71709459992802
1760597945.304069,-2.102441567846901,0.02003729496789455,0.9066162141880443,0.1335556686566233,-83.51328242709917,-56.018567966329236,103.10787101652346
1760597945.3139744,-1.062454079632287,0.018497596465213942,0.9313664245633777,0.1590661446101625,-82.63493969383806,-52.573086972493385,106.08293422268599
1760597945.323984,-0.005662999289967845,0.018538200797082655,0.9556837449801139,0.18001648577151244,-80.51777452706179,-50.131116322583765,107.70001254566874
1760597945.3339918,1.0574829624934179,0.021788708361680523,0.9757361553313036,0.19552555001435,-77.209180464928,-48.872920021052245,108.08869759072738
1760597945.343971,2.1179237507499296,0.029139423832281325,0.9884543202370383,0.20555363621981018,-72.78132347645531,-48.800647085760076,107.42870585288158
1760597945.3542364,3.1683250827054144,0.04100551992570592,0.9918077454313818,0.21084171856477132,-67.3375727099462,-49.75043442190607,105.92727737364145
1760597945.3639748,4.203306708062022,0.05757769552447699,0.9848880577065224,0.21265001555416685,-61.01921626274528,-51.422070406576786,103.79891852137607
1760597945.3739882,5.219520078441096,0.078965675621043,0.9678485487998958,0.2124011426032882,-54.00967719968772,-53.42179019802394,101.24924290117619
1760597945.3839777,6.215545742791883,0.10520485799941823,0.941759533348846,0.21133606013997241,-46.533676123642806,-55.31284940011279,98.46332268625073
1760597945.3939831,7.191605900905573,0.13615481705855126,0.9084181843874461,0.2102602595850766,-38.849566996407695,-56.66805882189126,95.59807283678226
1760597945.403985,8.149117645538311,0.17134986251599935,0.8701232528567332,0.2094229755638912,-31.234409511543237,-57.11845406986867,92.77781515256011
1760597945.413988,9.09013927340404,0.20986663852199428,0.8294113232181486,0.20854083907773044,-23.96302914922801,-56.39277164811751,90.09218361510266
1760597945.4239948,10.016779855682108,0.2502612456843604,0.7887612231154808,0.20694558248271158,-17.283864112353353,-54.34351613298899,87.59573886885437
1760597945.434,10.930647858263145,0.29060651309052177,0.7502986764479783,0.20380688449281076,-11.395272731933892,-50.95717630371349,85.30890954849797
1760597945.4440114,11.832407939682907,0.32863562095759413,0.7155560642582465,0.19836777325991836,-6.425930003699038,-46.3484231331752,83.22011522878495
1760597945.4539995,12.721498624069413,0.36197661068128,0.6853461603651715,0.19013838074886213,-2.4221386203733393,-40.74047862012279,81.28909610606485
1760597945.4640234,13.596040146284302,0.38844405107150504,0.6597870640962362,0.17901795292212846,0.6562524206952866,-34.43570588616939,79.45147941418968
1760597945.4740045,14.452934345814432,0.40634013391742696,0.6384744805854412,0.16533918235691591,2.9306936729312123,-27.7813572043378,77.62443294590516
1760597945.4840398,15.288132005602286,0.4147147931945685,0.6207554975877212,0.14984232086414445,4.589830410325398,-21.135176153619938,75.71304013839136
1760597945.4940553,16.097023445118065,0.4135478863331087,0.6060336698440071,0.13359126146663824,5.867656042632486,-14.834440970403223,73.61696358866172
1760597945.504017,16.874898562664537,0.40383814949534075,0.5940336320970955,0.11784692484473172,7.016118220642422,-9.170607675305511,71.2370886499256
1760597945.5139847,17.617421318024935,0.3875992942379035,0.5849679722977887,0.1039164966129435,8.275204276246937,-4.370496077658474,68.48204887188817
1760597945.5239797,18.32106689773227,0.3677672331412884,0.5795722266228757,0.09299791536428631,9.84395734076944,-0.5841551903644678,65.27468744734642
1760597945.5339804,18.98347481886595,0.34802005895645377,0.5790009137873747,0.08603654823447236,11.855808297956308,2.1210134951006165,61.558519287563065
1760597945.5440032,19.603678025884786,0.33251291312762676,0.5846042663762491,0.08360609703283713,14.361109882489732,3.760799237722514,57.30412088278821
1760597945.554481,20.182177745847557,0.3255353369959885,0.5976275246341495,0.08582011223161957,17.318930028327266,4.430704322316756,52.51513134326883
1760597945.5639877,20.720846899439017,0.33110520288165457,0.6188886679483063,0.09227679648549865,20.59911709474418,4.299793692641358,47.233247581636576
1760597945.574123,21.222661208779666,0.3525185954609782,0.6484932374461824,0.10204055415961741,23.994505443529455,3.602762464889613,41.54129616161659
1760597945.5840406,21.69127715481112,0.39188161884669603,0.6856348896300919,0.1136686633747341,27.242003583922592,2.630260995327743,35.563251418051934
1760597945.5940251,22.130499092306323,0.44966154844129724,0.7285094874910757,0.12529714215889667,30.050365653222233,1.7165616786169569,29.460038478448894
1760597945.6040173,22.54370016118268,0.524310712289163,0.7743476018284833,0.1348016811159123,32.131890395881314,1.2229339268072466,23.420171739308195
1760597945.6139922,22.93327478286198,0.6120315665837276,0.8195588460399265,0.14004246536042916,33.2352055830738,1.514897440470031,17.644778271805418
1760597945.6239824,23.300195064288904,0.7067577238022107,0.8599868464708823,0.13918271822301884,33.17654856372148,2.9320323180881696,12.327376384154942
1760597945.6339924,23.64371647691537,0.8004179149506804,0.8912831269784629,0.13104330037736064,31.86727446291258,5.75033089572078,7.629873284052133
1760597945.6440818,23.96123922270529,0.8835279297408074,0.9094033496341741,0.11543010624771713,29.335461938936707,10.139162299446621,3.6574108964835905
1760597945.6540263,24.248298675283884,0.9461204881726937,0.9112056478188099,0.09335745839424042,25.739347482993406,16.117565601068222,0.4356316613178692
1760597945.6640217,24.498646860734375,0.9789717127743592,0.8950959886352821,0.06709362837349468,21.370038264222654,23.517290887661623,-2.1055873255013324
1760597945.6739876,24.7044029229729,0.9750113718832983,0.8616257220228917,0.039975578351392704,16.640862670503136,31.96203426176363,-4.138011135244158
1760597945.6839979,24.856286812900258,0.9307175005284736,0.8139071715293495,0.015979821301765347,12.061236537695372,40.87280614355808,-5.927420606374126
1760597945.6939886,24.94398671023426,0.847217588068214,0.7576936433153028,-0.0009101611672925882,8.194465080051485,49.50744370031539,-7.810886985896933
1760597945.7039917,24.956720332694086,0.7307902209246083,0.7010040533083245,-0.0074455886704506745,5.601681086723256,57.03725752564992,-10.159553247006677
1760597945.7139962,24.884015440516222,0.5925256018333253,0.6532741641888352,-0.0018287574570633434,4.7777184186081625,62.65589900974024,-13.330260139359165
1760597945.7240279,24.71666022715665,0.44706815161862284,0.6241455815116562,0.01574822034823419,6.087846085159504,65.70648620303615,-17.61221658138688
1760597945.7340515,24.447689737135036,0.3105821811120467,0.6220874660093496,0.042885202941916535,9.715424284058479,65.80574930268705,-23.17718840397796
1760597945.7440367,24.07322049105582,0.1982759467078617,0.653053224616503,0.075174380128457,15.629043703454974,62.94108107892789,-30.042518307432598
1760597945.7541633,23.592949058233476,0.12192933364321913,0.7193422893984971,0.10683366724071869,23.574133688497596,57.51896844166165,-38.05505409380278
1760597945.7640061,23.01019113059516,0.08787452915738486,0.8188151725862134,0.13168211207298197,33.08955510849252,50.350754561831806,-46.900615991606806
1760597945.7739947,22.3314350916111,0.09579268485823507,0.9446046157155733,0.14427518736837106,43.54561572015955,42.57234248459498,-56.13858397158648
1760597945.78401,21.565491414535412,0.1385477610858228,1.085448431909613,0.14097112016976626,54.19744463099066,35.505935576651325,-65.25590266249684
1760597945.7940516,20.72241187589918,0.203115884944001,1.226717773679942,0.12070170197530976,64.24731580343963,30.48176048399929,-73.73085000810998
1760597945.8039956,19.81241085013998,0.27250594465804645,1.352124869763139,0.08526453127271989,72.91075990841767,28.64424777998005,-81.09524088837156
1760597945.8139858,18.845031476696814,0.3284151255569933,1.4459708234807886,0.03903662275457159,79.48281899107572,30.76993557821891,-86.98446242928874
1760597945.8240523,17.8287564470071,0.3542317210620388,1.4956440693910327,-0.011871522917295435,83.40146926890306,37.12390230297367,-91.16756241869295
1760597945.8341112,16.771169543149146,0.33790346437707924,1.493927528586688,-0.06086633837654148,84.30471848523668,47.378306204127995,-93.55406154549108
1760597945.8440015,15.679642189820688,0.27415540899998725,1.4405752947884956,-0.10224909244317777,82.07645002032348,60.610455406525055,-94.17946505836801
1760597945.8540502,14.56237161383131,0.16559452830561522,1.3426677615140712,-0.1323716056887832,76.87439058497282,75.38830763575382,-93.17639312875615
1760597945.8640583,13.429469337813142,0.022408025637618553,1.2135133430994842,-0.1502414906108041,69.13269043509018,89.93857529222315,-90.74129827409836
1760597945.8739831,12.293738505463796,-0.13934521478678447,1.0702832249063403,-0.15739897089820784,59.5328808268297,102.37803819240433,-87.1065456995728
1760597945.883975,11.170827816246039,-0.30049900761504256,0.9309570425886035,-0.15713447971197278,48.94118988181711,110.97493851248399,-82.52382317391978
1760597945.8939722,10.07861104492372,-0.4419755916168643,0.8113307897610841,-0.15334536323668416,38.316579728164726,114.3982896747715,-77.2587310997333
1760597945.9040103,9.035860436657643,-0.5477197453801692,0.7227416605429003,-0.14942424771563734,28.6003389164233,111.91220111814935,-71.59078931115498
1760597945.9140058,8.06047636388253,-0.6068322856044627,0.6708897849973422,-0.14750323679756733,20.602651291035745,103.48123931306326,-65.81074500612361
1760597945.9240906,7.167639601835043,-0.6146443924470969,0.6558176873714794,-0.14820988024328058,14.903410187035092,89.76957669402911,-60.208942410583525
1760597945.9339845,6.368245686788283,-0.5727526287222057,0.6728447754779686,-0.15091016083749698,11.783609998677083,72.03702911628257,-55.05341330922712
1760597945.9439917,5.667881383247662,-0.4882232499675353,0.7140977237817453,-0.15427820667419287,11.199809496986532,51.953970301479856,-50.561815318385094
1760597945.953984,5.0664539799579495,-0.37224684888672394,0.7702370295807145,-0.1569622089275624,12.807224274163488,31.370203662414088,-46.87494223893824
1760597945.9639888,4.558437660950275,-0.2385038428276744,0.8320336267995935,-0.15811611509523577,16.027743456202526,12.077764120730041,-44.03987516183325
1760597945.9739766,4.133600714416004,-0.10144450000288839,0.8915624434216817,-0.15763904423954347,20.14990398828766,-4.395998051620605,-42.00808860613404
1760597945.9839785,3.7780376589491733,0.025349175197652576,0.9429139250558185,-0.15609047385383268,24.44148850229731,-16.939187185879653,-40.64939806037036
1760597945.9939873,3.475338616939711,0.13055716680303608,0.9824431977419306,-0.15437635313650502,28.25384618181505,-24.937943144663482,-39.77840632027819
1760597946.0040033,3.2077640208064437,0.20612016065505567,1.0086546643458352,-0.1533699755716884,31.10048540295373,-28.291636509486715,-39.1874573268624
1760597946.014006,2.957343406976018,0.24774949167616184,1.0218502027381615,-0.15361924257149914,32.699653260383634,-27.370322344381044,-38.679443653036124
1760597946.0240676,2.706873652065888,0.25494858927022235,1.0236597183743006,-0.15522305470329234,32.97919517715092,-22.928338334159672,-38.09478090483677
1760597946.0340037,2.4408375491806162,0.23063180748284495,1.016542071409392,-0.1578782747058304,32.0494868195543,-15.988851347609335,-37.32884115373393
1760597946.044032,2.1462744641088247,0.1804637652094469,1.00331379253147,-0.16104064664762574,30.154943848626505,-7.713520321851917,-36.33851950213745
1760597946.05402,1.8135981016586546,0.11202925008899853,0.9867446713536451,-0.16412269824203052,27.616087759210924,0.7295468147177021,-35.13881399291614
1760597946.064009,1.437287238909551,0.03391175556680151,0.9692503654540198,-0.16666332441078827,24.77294227103615,8.287355956557422,-33.79184138225893
1760597946.074048,1.0163150328399047,-0.04525718446112062,0.9527026204155599,-0.16843071669867565,21.9377207440418,14.122145083769906,-32.39136068742532
1760597946.0840049,0.5541744495308114,-0.11770363053839601,0.9383617976744913,-0.1694470452666935,19.361415547837556,17.681002833152398,-31.045728779756598
1760597946.0939898,0.05841634187122843,-0.17727472302607128,0.9269165318463335,-0.16994310545406416,17.215764676277306,18.728896706328463,-29.8615794943746
1760597946.1041756,-0.4602804254036571,-0.2199585548681297,0.9185983541235715,-0.17026422538635624,15.589534584178343,17.343041357061477,-28.929771623836658
1760597946.1140077,-0.9893829525839318,-0.24408967170352927,0.913331079833512,-0.17075596863151707,14.496297358194415,13.871176865093403,-28.314582994221347
1760597946.1239836,-1.5159275221059139,-0.25022697043185665,0.9108774696314691,-0.17165867607825164,13.889959481500027,8.860845665864256,-28.046824145043182
1760597946.1340737,-2.0278751417648455,-0.24075124209220605,0.9109563709716776,-0.1730333732327748,13.684162732483493,2.9703154372173275,-28.121361662440982
1760597946.143993,-2.5152076489839383,-0.21927200202919117,0.9133169125093069,-0.1747304974582425,13.772142119648803,-3.1262745514207864,-28.499241783371076
1760597946.1540027,-2.9706325460797003,-0.18995068471978546,0.9177674060838006,-0.17640161170860846,14.044433191130446,-8.826916929330318,-29.114074100210466
1760597946.1640034,-3.3898429474661493,-0.15684483953397513,0.9241634601651222,-0.17754623932479635,14.402729519068242,-13.671955121302577,-29.881677887237668
1760597946.1740093,-3.771359523222929,-0.12336347958592052,0.9323638352929184,-0.1775822108304518,14.769045073183108,-17.388660679391197,-30.711441691637038
1760597946.1840458,-4.116049527275353,-0.09190111232082565,0.9421658760208002,-0.1759276847660899,15.090065767657403,-19.90626856183643,-31.517591329664157
1760597946.1940591,-4.42646131290811,-0.0636880796425011,0.9532352166244757,-0.17208491344880628,15.337147820062867,-21.341788605864306,-32.22866734909576
1760597946.2040267,-4.706124644360605,-0.03886060170848825,0.9650458392705242,-0.1657182953202953,15.502819421347587,-21.96078896927768,-32.7939361551996
1760597946.21404,-4.9589502621743256,-0.016721517758818735,0.9768459431607843,-0.15672072883007312,15.594876909690022,-22.12039962577484,-33.186088934983246
1760597946.2241213,-5.188825172374053,0.0038628471742336084,0.9876628597563767,-0.1452620927267673,15.629280881691432,-22.20368958824243,-33.40027543032538
1760597946.2339957,-5.399451553277996,0.02400185174448982,0.9963566768764244,-0.13181293259570298,15.623093168977546,-22.555185341629187,-33.450127195338794
1760597946.2440586,-5.594423175511276,0.044337795834363876,1.0017267354753945,-0.11713735698487529,15.588648857037187,-23.426626464515856,-33.361825330637245
1760597946.2539988,-5.777479715664141,0.06470401771794367,1.0026671052882563,-0.10225297912821871,15.529976267733382,-24.94021904158496,-33.16739798405722
1760597946.2645657,-5.952834843980285,0.08395466657649234,0.9983571594743493,-0.08836147744956663,15.442105055890991,-27.073885051725146,-32.89830967551893
1760597946.2747304,-6.125449741897436,0.10000975599388971,0.9884635367162408,-0.07675852814829084,15.313337750299997,-29.66967776590386,-32.58011246618577
1760597946.284262,-6.3011293960019525,0.11011834656263277,0.9733225098633344,-0.06873416397048875,15.12989379236031,-32.463097732007945,-32.22858039597308
1760597946.294038,-6.486356437866553,0.11129626229223152,0.9540685876286152,-0.06547297132332691,14.881727392772763,-35.12801169350332,-31.84743729573695
1760597946.3040504,-6.687837909620268,0.10085439757582633,0.932676564490988,-0.06795875039666116,14.567937745861544,-37.32975550998599,-31.42756722658125
1760597946.3141327,-6.911808442548502,0.0769117723332196,0.9118906284104037,-0.0768830913821755,14.200142041197225,-38.77817108801593,-30.947481062004076
1760597946.3240254,-7.16319194240693,0.03879283816292072,0.8950261162584124,-0.09255539051598832,13.802484488057084,-39.272867367870234,-30.37477780732435
1760597946.3340285,-7.444759737459525,-0.012759933462149514,0.885646520418546,-0.11481539455034462,13.40753962903063,-38.7346484689793,-29.668328337607058
1760597946.3441012,-7.756430303834782,-0.07558329265957348,0.8871379661548312,-0.14295769167978128,13.048135537490358,-37.219372691138034,-28.780879763162442
1760597946.354013,-8.094836206043336,-0.1462869709270368,0.9022223519767023,-0.17568695098066134,12.745983197561275,-34.91305775029925,-27.66175024800479
1760597946.3640177,-8.45324404724947,-0.22060523981965055,0.9324658022258433,-0.21112773454043443,12.498854817212976,-32.109499592936054,-26.259310221102428
1760597946.374052,-8.821859246478075,-0.2938519981860195,0.977848609974696,-0.24690927041956753,12.26874286496148,-29.173776647776698,-24.523032633943664
1760597946.3840368,-9.188486969416457,-0.36141765142890814,1.0364643328052547,-0.28033404313508087,11.973716394476376,-26.49656352373679,-22.40498574721439
1760597946.3940287,-9.539464662060448,-0.41924845959732315,1.1044084447965137,-0.3086232123357575,11.485866406855754,-24.445061649695813,-19.86070266599514
1760597946.404012,-9.860740186275594,-0.4642574754302288,1.175903152835383,-0.32921519798522053,10.636783288710209,-23.316585277724243,-16.84944091810043
1760597946.4140475,-10.138946673901174,-0.4946228866851398,1.243687155111768,-0.34007891568573984,9.230666204812644,-23.300486177744446,-13.334015082950065
1760597946.4240308,-10.362323959142884,-0.5099343833522194,1.2996745375491183,-0.3399932666530272,7.063780725748646,-24.453185216139776,-9.280644572407304
1760597946.4340336,-10.521362197808307,-0.5111586027359836,1.3358497186347849,-0.3287422769337686,3.9478553160776344,-26.689619922653506,-4.659504971902301
1760597946.4440455,-10.60909614498232,-0.5004155812966349,1.3453167718522145,-0.30718170905215725,-0.26571448166977274,-29.792483650444698,0.5532495641273584
1760597946.4540148,-10.621046039210285,-0.4805873641827676,1.3233747690353546,-0.27714801079772516,-5.664270546604635,-33.43837242242347,6.371436960730438
1760597946.4640613,-10.554863641006373,-0.45481111024167764,1.2684624159252975,-0.24120380817650564,-12.258135950234875,-37.23761893008155,12.792734961113279
1760597946.4740062,-10.409785038460429,-0.42593415605967044,1.1828143209580209,-0.202244548754475,-19.9731927646717,-40.782523697937954,19.79117857042528
1760597946.4840064,-10.1860107618667,-0.396021041922859,1.0726967426835745,-0.16302449729696594,-28.653004361136617,-43.69729208185076,27.309619691984096
1760597946.4939978,-9.884131287266994,-0.366000187936437,0.948135172036727,-0.12568928882233346,-38.070081207224156,-45.682655329275406,35.253937189126816
1760597946.5040033,-9.5046977309942,-0.3355213591766108,0.8221018401834885,-0.09141633287083853,-47.94430816054826,-46.5491354588848,43.490824459772476
1760597946.5140007,-9.048009207571276,-0.30306560447548214,0.7091945335425506,-0.06025454522928509,-57.96531734368076,-46.23504734282565,51.85053327711475
1760597946.5240052,-8.514154582598843,-0.2663099861541645,0.6239094441956512,-0.031217736442965285,-67.81498492730388,-44.808036524516936,60.13503678538611
1760597946.534,-7.903309058316484,-0.22270439173501258,0.5786916448201346,-0.0026268275357778635,-77.18651334898111,-42.451511759805015,68.1308840603868
1760597946.5440109,-7.216243398502077,-0.1701701955015116,0.5820329687443109,0.027371200227054762,-85.79777084231955,-39.43920106221689,75.6248753998166
1760597946.5539925,-6.454955505294504,-0.10778739540890203,0.6369533720327412,0.060235533662880994,-93.39836479366691,-36.10202243730301,82.41994237737104
1760597946.564015,-5.6232925553218625,-0.03631636550681341,0.7401942871687297,0.09656478980005215,-99.77173816540068,-32.79165401621701,88.34856708489438
1760597946.5742435,-4.727419916586465,0.041578110817230195,0.8823304203090455,0.13585340085840072,-104.73476306294329,-29.844900317801564,93.28183676295724
1760597946.5840065,-3.776022866216248,0.12147214910829786,1.0488078408917452,0.17652593983732326,-108.13742050165247,-27.552302453267263,97.13357504121193
1760597946.5939984,-2.7801844473285566,0.19769551565162116,1.2217396193976917,0.21623420010294334,-109.86425794313266,-26.133431983871155,99.86035459681378
1760597946.6039975,-1.7529407114138427,0.2641470377593945,1.3821949947165806,0.2523544541748183,-109.83798477423508,-25.720153214941362,101.4589800293016
1760597946.6142013,-0.7085585802716621,0.3152955269113331,1.5126787473559826,0.28258374671139325,-108.02445055202922,-26.348195166156177,101.96297357596299
1760597946.624039,0.3383852813571761,0.3471946304671472,1.5994601022032795,0.305486659078557,-104.43766781449767,-27.956725071269165,101.43889878598877
1760597946.6340299,1.374018362739377,0.3582924913021626,1.6343685135588768,0.3208182489110464,-99.14355764328278,-30.395024448362765,99.98252115894702
1760597946.644039,2.386154872783365,0.3498224246933672,1.6156943766479641,0.32950098873189826,-92.26169668982595,-33.43471424608718,97.71434036866532
1760597946.6540017,3.3651250575508183,0.3256589778564852,1.547995230992525,0.33326385489230964,-83.9652215486277,-36.785534386691744,94.77415186629636
1760597946.664045,4.304353625037935,0.29168153108990236,1.440889274491969,0.3340826814127273,-74.47949741801398,-40.11289654023289,91.3147972749056
1760597946.6740136,5.200625287906379,0.25481015200337676,1.307178794685595,0.33361306600358875,-64.07966381181883,-43.05639400982703,87.49566965902184
1760597946.683992,6.054009720908915,0.2219111249129382,1.1607610692772872,0.3327732845707764,-53.08603216803626,-45.2496920949836,83.47649569396319
1760597946.6941056,6.867448709069966,0.1987470835320427,1.0147399844366072,0.33156550669768536,-41.85542487792342,-46.34298251099053,79.41148784778629
1760597946.7040012,7.64604043141195,0.18912067786193423,0.8800123550508149,0.3291609673662355,-30.766623684192016,-46.02893563717779,75.4435238507703
1760597946.7140114,8.39609146058925,0.19433515489922012,0.7644416642538643,0.3242214009977299,-20.199232080122787,-44.07178325453919,71.69787358445113
1760597946.7240205,9.124040715021149,0.213052696005884,0.6726004408948492,0.3153752668837518,-10.507051067950322,-40.33721842007009,68.27521841128124
1760597946.7340288,9.835383997940875,0.24157197514906448,0.6059819573258097,0.3017221306863318,-1.9889289601358002,-34.818888583344865,65.24420768241922
1760597946.7440748,10.533736950863515,0.27448190087760915,0.5635450647849434,0.2832279007171906,5.138589753631262,-27.65611154604386,62.63439070652432
1760597946.7540226,11.220163459672609,0.3055878986859123,0.5424455610677553,0.2609120673727085,10.762035175883312,-19.137559785202786,60.430803655055705
1760597946.7640092,11.892864345231835,0.3289600437591438,0.53881456833643,0.23679675584443022,14.881071092211789,-9.687140856427028,58.57159388862346
1760597946.7740495,12.547272516927803,0.33993142429008566,0.5484678344233042,0.2136488618691117,17.60541522329944,0.16906129880708748,56.949817649896296
1760597946.7840538,13.176545722945574,0.33588687862508404,0.5674652179300089,0.19458024883007208,19.138590136487778,9.852540030370452,55.420082834944644
1760597946.7940466,13.772396715245506,0.3167217664235232,0.5924780370857633,0.18258168230765087,19.750943198121558,18.79307143945655,53.810162547100205
1760597946.8040009,14.326159370497772,0.28490606529367407,0.6209575760985461,0.18006518194932408,19.74628704142552,26.491768561286783,51.93711622955781
1760597946.8140755,14.829960359503506,0.24514911292907568,0.6511283649530347,0.1884830304892708,19.427462282463907,32.576361758291114,49.626796513680894
1760597946.8240383,15.277850134639388,0.20371659913198803,0.68185145580237,0.20808200086989243,19.065956386716767,36.838958757024464,46.73490845530744
1760597946.8340287,15.666746080250899,0.16749986940147815,0.7124129464425379,0.23783725454036395,18.879470358715803,39.24911641872732,43.16715897295698
1760597946.8440394,15.997057293435143,0.14297466359938044,0.7422929191606705,0.2755871477993722,19.01924480112695,39.93959618095028,38.89571358651619
1760597946.8540227,16.2728962262649,0.13520669328772073,0.7709641631607793,0.31835258498272306,19.566517575105912,39.167711775863665,33.969354975837135
1760597946.8640444,16.501836467166164,0.14706078445549955,0.7977609552121051,0.36277349374974516,20.535472926350955,37.260226465217315,28.51543863321216
1760597946.8740516,16.694243190782004,0.17874637034331345,0.8218426374568983,0.4055507566809606,21.8794228244315,34.552760294350016,22.73279676918541
1760597946.8840728,16.862270749843006,0.22778124596879412,0.8422498661975961,0.44378417242900564,23.498231213420073,31.334711948257706,16.87587903037515
1760597946.8941946,17.018671497670862,0.2893791334270677,0.8580195173173872,0.47516001920699563,25.247355462533324,27.80822024526991,11.231405623320331
1760597946.904073,17.17557546682922,0.35718325556819647,0.8683074101596624,0.4980152482630241,26.95052819768591,24.066191514089024,6.089583313139942
1760597946.9140399,17.34338053052867,0.4242066915900663,0.8724791736406193,0.511327608519768,28.417819366948372,20.0911642137222,1.712604498450868
1760597946.9253957,17.529851159224307,0.4838184477987284,0.8701595567441353,0.5146568907120422,29.468985578187414,15.774045852782958,-1.696216808620134
1760597946.9346683,17.73948159282653,0.5306287539228667,0.8612603065612676,0.5080398905770483,29.95982495199518,10.949391575906208,-4.0189036049211895
1760597946.9440305,17.973151577432603,0.5611624747324635,0.8460214919882149,0.491844556222221,29.807592667526073,5.44198289113914,-5.241235018879235
1760597946.9540155,18.22809004423812,0.574250821982317,0.8250931330598319,0.46661042475001785,29.01085134729594,-0.8817599198001552,-5.460337675477594
1760597946.964042,18.4981494183392,0.5711107903567525,0.7996580614255361,0.4329247952456904,27.65967145412486,-8.06440754481782,-4.880085633823126
1760597946.9740167,18.77436490845014,0.5551153946987775,0.7715693546840019,0.3913839599566237,25.933740428912174,-16.01666725222651,-3.794623036510486
1760597946.9840353,19.045729026388628,0.5312858224474917,0.7434589836696504,0.34265682946835035,24.088156035524566,-24.490468807225124,-2.561874322371158
1760597946.9940543,19.300068889049875,0.5055630045631024,0.7187684396334633,0.2876239092062408,22.428815489806315,-33.069996567409106,-1.5700300945456593
1760597947.0041296,19.524894082568434,0.483941712285115,0.7016524743371552,0.22753536819056822,21.280831166366973,-41.18305360552729,-1.2005778885046052
1760597947.0140414,19.708097629306863,0.4715684629259709,0.6967144534495204,0.16412730087775249,20.953963039558218,-48.133312100392345,-1.7915540711859763
1760597947.0241296,19.838437757932294,0.4719099268352,0.7085514464444895,0.09964951701773701,21.708656840622094,-53.151977015009116,-3.604496061616453
1760597947.0340414,19.905787967722638,0.4860936614694075,0.7411214034464917,0.03678405592622167,23.725390419745537,-55.465325107195106,-6.798244837811148
1760597947.0440476,19.90119837287076,0.5125112208497474,0.7969894724370414,-0.02153733816972173,27.079331651557858,-54.3726908927104,-11.412331771185102
1760597947.0540328,19.81684722111129,0.546753036837041,0.8765574258679139,-0.0723874488685311,31.722095370409757,-49.32794232648614,-17.362028336837724
1760597947.064047,19.645971024874154,0.5819128802846676,0.9774194772320136,-0.11313230014434532,37.472389994393865,-40.01648827484738,-24.44601396165074
1760597947.0740688,19.38284886573305,0.6092607683413415,1.0940087381980075,-0.1417177804107438,44.017174963135545,-26.419561637130524,-32.36598189507951
1760597947.0840347,19.022891886179796,0.6192427214917791,1.2176901838329457,-0.15692084856201935,50.92455021525169,-8.858060999272404,-40.755658726244015
1760597947.0940347,18.56286287728254,0.6027265795548776,1.3374084850955885,-0.15853619837382213,57.669194521688006,11.990419378424173,-49.21520314950944
1760597947.1040108,18.0012287515626,0.5523755681113194,1.4409083688573623,-0.14747441434308373,63.67082017594964,35.1058049384726,-57.34621537591725
1760597947.1140392,17.33863175680848,0.4639960372810516,1.5164200880299936,-0.1257547619664052,68.34540766558818,59.173227526170386,-64.78272559216576
1760597947.1240308,16.57845026095429,0.33767270717689757,1.5545664164944248,-0.09638761562409003,71.1672910033479,82.66422429156813,-71.21441800909516
1760597947.1340115,15.727399157031455,0.17847495449313705,1.5501321535072483,-0.06315648533608204,71.73719813084398,103.94927201213677,-76.39990402968172
1760597947.1440508,14.796086022899113,-0.003493989302168059,1.5032805210865208,-0.03031672988143273,69.84757520519462,121.43653101070487,-80.17003655705832
1760597947.1540134,13.79939329124959,-0.1938883640774663,1.4198474954170988,-0.0022200062664659726,65.53323491574145,133.72714892985573,-82.4238265086393
1760597947.1640155,12.75651482221956,-0.3757939051958544,1.3105270155035544,0.017134536147267072,59.094407084801155,139.77155683701275,-83.12178606696882
1760597947.1740305,11.690467646068123,-0.5320936999366884,1.189055070202031,0.02460286608073053,51.08209920747796,139.00565257192747,-82.2822122438542
1760597947.184023,10.62695826308257,-0.6480868584710974,1.069808072107104,0.01838660010993145,42.24227715265214,131.4432575053511,-79.98383419440276
1760597947.1940331,9.592616882782595,-0.7137793783897078,0.9654119195356627,-0.001597394107157273,33.42406582046976,117.7039767766482,-76.3735932387362
1760597947.2040274,8.612788513177174,-0.7253236164380372,0.8849260038248411,-0.033582791560810295,25.465490878428962,98.96437850456387,-71.6734022785492
1760597947.21404,7.709218875112898,-0.6853266182919338,0.8329442290491539,-0.07412732476691213,19.076045686295924,76.83399571468904,-66.17763597044548
1760597947.224021,6.898031338354632,-0.6020625243561089,0.8096532284475912,-0.11859257712573022,14.737170966695524,53.172717078411196,-60.23542162871026
1760597947.2340424,6.188334529560384,-0.4878767891970976,0.8116335303876422,-0.16185232514680822,12.63906265908621,29.87819906051197,-54.2174835357004
1760597947.2440174,5.58165479361891,-0.35719004459832826,0.8330628297923706,-0.19909382830443206,12.665470608326487,8.67728752949071,-48.47351711604977
1760597947.2540145,5.0722107351218275,-0.22449988587836728,0.8669896915675654,-0.22654730611435567,14.428693669451295,-9.047179031038045,-43.29000372232001
1760597947.2640312,4.647897696617879,-0.10268323532317335,0.9064430107954303,-0.24199129456179164,17.346968152878503,-22.37194446452183,-38.85855953465537
1760597947.2740169,4.291763080811462,-0.0017765157983780813,0.9452625599440324,-0.2449425103964003,20.748234632065994,-30.881592483824594,-35.26170282348729
1760597947.2840307,3.983731298046344,0.07169880390950464,0.9786308022228274,-0.23652825729759103,23.979787440890227,-34.65227907473331,-32.47798330080135
1760597947.294129,3.702363137365902,0.11487765678431723,1.0033380779691292,-0.21911890544889423,26.503579224060267,-34.183292595550355,-30.403634597752575
1760597947.304033,3.4264910578425987,0.12823638022644712,1.017829510216996,-0.19583972990846463,27.96168688837106,-30.293878512209044,-28.88458586145084
1760597947.314085,3.1366443097134233,0.11495547312669617,1.0220793986904222,-0.1700806413541111,28.20409313976726,-24.003428819281726,-27.751334892466954
1760597947.3240535,2.81624618806574,0.08012828900914794,1.017332018295058,-0.14508989971144698,27.27926271307843,-16.410653892214462,-26.849768714083154
1760597947.3340106,2.4526060801260425,0.02997135139324584,1.0057458123137082,-0.12369096408136902,25.394896109056493,-8.58340551283592,-26.06300983969858
1760597947.3440406,2.0377245269760547,-0.028864071491182725,0.9899839118014172,-0.10811887976007596,22.860407032920996,-1.4667677129432184,-25.32201985911508
1760597947.3540332,1.568882953003927,-0.08984926960359463,0.9728025313011732,-0.09994756081891376,20.023773696979077,4.186343742875124,-24.60526436307861
1760597947.3640568,1.0489272802867955,-0.14702447774770122,0.9566904086821003,-0.10007361220290768,17.21395131949729,7.860252103796859,-23.929702191319514
1760597947.3740344,0.486117653721699,-0.19536783178354594,0.9436015043426376,-0.10872780166399508,14.696911604141702,9.296984226214033,-23.33645557448323
1760597947.384035,-0.10655976507538888,-0.23110146389871367,0.9348024860369698,-0.12549402817301467,12.649552117427607,8.492875364103831,-22.87473773269149
1760597947.3940508,-0.7126324608237697,-0.25191829454398024,0.9308341071104802,-0.14932632399953152,11.15199756726518,5.673043524425056,-22.587134374898554
1760597947.4040394,-1.3138195671599913,-0.2570927699935741,0.9315687001480769,-0.17856894152580063,10.195780706196592,1.2467629722265108,-22.49844651212427
1760597947.4140444,-1.8919229404681324,-0.24744169762553841,0.9363375646870017,-0.2110010327483901,9.703396942425448,-4.251624306269442,-22.609309063380064
1760597947.424082,-2.430650641906339,-0.2251247281480504,0.9441008150668035,-0.24393887278924475,9.553895141548855,-10.230073445599814,-22.894899061303818
1760597947.4340658,-2.917108646560082,-0.19330521856551763,0.9536351827672137,-0.27442739518109305,9.60939360686272,-16.10727486684654,-23.308292036057566
1760597947.4443657,-3.3427719757258134,-0.1557177967925439,0.9637191127275976,-0.2995348611711348,9.73840398220595,-21.374786789056817,-23.787413670999676
1760597947.4541004,-3.7038513288287436,-0.11620183930512641,0.9732967420801476,-0.3167300376620343,9.833228825266419,-25.64626714350039,-24.264103958214932
1760597947.4640632,-4.001075420140141,-0.07826087861727074,0.9816020757913603,-0.3242756024807381,9.820144188730954,-28.688916949249506,-24.673635564304615
1760597947.474079,-4.238992188947884,-0.044700719115938134,0.9882241241302202,-0.3215317794233528,9.662392490863022,-30.434654284725053,-24.963146770274673
1760597947.484044,-4.424944905539812,-0.01738602016814621,0.9930988158711191,-0.30906312041789485,9.35708830668943,-30.97124229617445,-25.097828096727067
1760597947.4940655,-4.5679008153341885,0.002863260503986529,0.9964284835253604,-0.2885000168225746,8.927875104984192,-30.51611859284625,-25.064238188355308
1760597947.504066,-4.677304242727374,0.016235119152119313,0.9985499791245723,-0.262195865621542,8.415468173303088,-29.377600146398436,-24.87067906301846
1760597947.5140376,-4.762100457153061,0.023765874184028642,0.9997867230205463,-0.23278106955523142,7.868083585404926,-27.909233249371955,-24.545007736446582
1760597947.524028,-4.830038526483291,0.027086690980974843,1.0003213420843653,-0.20272085860469105,7.333299437954222,-26.46329847097387,-24.13053396225858
1760597947.534029,-4.887314543642576,0.028112659566734213,1.0001161774362262,-0.17395871332109494,6.852260162122765,-25.34895626848989,-23.680745212450827
1760597947.5440776,-4.938562909713573,0.028716017983033387,0.9988950579940457,-0.14769805514541315,6.456452593732635,-24.799371388429527,-23.253536894235527
1760597947.5540423,-4.987148028366922,0.030426553276241573,0.9961864653459019,-0.1243473774696933,6.166711550429441,-24.950604151714483,-22.90545919662842
1760597947.564081,-5.0356610584636945,0.034197423716265316,0.9914180552410172,-0.10362606002386249,5.993782253611659,-25.833380597785588,-22.686293788456858
1760597947.5740447,-5.086496275246535,0.04026329414515215,0.9840459874799282,-0.08480224364293908,5.939714923893299,-27.377303586912983,-22.634121297498442
1760597947.5840254,-5.142376500683083,0.04810173524650214,0.9736994147304671,-0.06701392105964173,5.999561298836319,-29.425846425075953,-22.770998632279465
1760597947.5941246,-5.206718201975238,0.05649259503228819,0.9603196470590758,-0.049610724781585645,6.16319208023201,-31.759697829543835,-23.099459995843425
1760597947.604097,-5.283767897149651,0.06365813700951188,0.9442725976696316,-0.03244746239775662,6.417352135285687,-34.12564150078678,-23.600238980174684
1760597947.6140928,-5.378491686793907,0.0674609042211787,0.926411155942985,-0.016063711988608502,6.748063330030745,-36.2679590640021,-24.231754431039928
1760597947.6240904,-5.496246650940628,0.06563635392821134,0.9080645016131556,-0.0016989456943712808,7.143121264982519,-37.95923216882448,-24.931865620080945
1760597947.6340995,-5.642294131147007,0.05604271508127724,0.8909396096391405,0.00887934987504667,7.593960942290682,-39.02745453453432,-25.622113849553585
1760597947.6440344,-5.82122435885427,0.03691682683573663,0.8769385287332139,0.013715129113443036,8.09591615702793,-39.37665154863245,-26.214187099896517
1760597947.6540399,-6.036355538790821,0.007123997211293887,0.8679197918282221,0.011097887904405739,8.6460460378264,-38.99878464427404,-26.617834238205567
1760597947.664161,-6.289162046652408,-0.033620178097670095,0.8654538068593679,-2.8355564734132832e-05,9.238256696204392,-37.97558226629966,-26.74909557045039
1760597947.6740592,-6.578785569122167,-0.08458972429799423,0.8706263281142766,-0.019804719655098283,9.856280370788214,-36.470020407912905,-26.537616214091873
1760597947.6840491,-6.901689410769658,-0.14398677604174798,0.8839234566467487,-0.04740863534541412,10.465931542904519,-34.708328219446564,-25.9319733688602
1760597947.694057,-7.25152142888345,-0.20900682681772254,0.9051971275181951,-0.08118752385031919,11.0086210238544,-32.954463928318475,-24.90230618643903
1760597947.7040296,-7.619243893920532,-0.27604087400665356,0.9336846439067256,-0.11888674110164595,11.398144271650086,-31.479903132477894,-23.43998634620147
1760597947.7140381,-7.993561010000037,-0.34100171319141154,0.9680526950248741,-0.15788506458422072,11.522217629552346,-30.53223594933989,-21.5545183618787
1760597947.7240362,-8.361627470121139,-0.39973917095314265,1.0064511699115617,-0.19539002317532925,11.249235118630653,-30.306343135200553,-19.26825583158266
1760597947.734034,-8.709964022861257,-0.4484908374018907,1.0465829614809994,-0.228588373221461,10.439519516891627,-30.92165039627014,-16.609842491092227
1760597947.744121,-9.025454478256858,-0.48430325507576377,1.085811371245904,-0.2547763436667691,8.959301861865526,-32.40811541695029,-13.60751253292291
1760597947.754023,-9.29627162281782,-0.5053581410944551,1.1213283708516777,-0.27150397153148953,6.695117859595575,-34.702361766473736,-10.283454868701375
1760597947.7640564,-9.51259156286114,-0.5111533235858216,1.1503927960769709,-0.2767581426172814,3.566415143928575,-37.65403597883522,-6.6502999560842495
1760597947.7740338,-9.667006181843135,-0.5025148766040621,1.1706233770440397,-0.2691857547602661,-0.46517030822906147,-41.041302583795776,-2.7104294833070726
1760597947.7841406,-9.754612757883818,-0.48144509244086536,1.1803077362222536,-0.24833105922978593,-5.390467880809965,-44.59354793563923,1.541687364219223
1760597947.7940419,-9.772823124969314,-0.45083305468127777,1.1786739987867707,-0.2148388831588073,-11.151083556338891,-48.01882659392282,6.114468833257818
1760597947.8040605,-9.720975440401,-0.4140700271270728,1.166070038313357,-0.17056497110245164,-17.640597592991902,-51.03326780770451,11.012348606914198
1760597947.8140743,-9.599846387616452,-0.37462250835049754,1.144005571695464,-0.1185399704295771,-24.707886841816503,-53.38949281818736,16.22828623210051
1760597947.8240848,-9.41115563623511,-0.3356212261857357,1.115031495115891,-0.06275509915081555,-32.16221528975534,-54.9010661198245,21.737082167249408
1760597947.8340662,-9.157134697870491,-0.2995214133340143,1.0824564494929763,-0.007771955557051111,-39.78025587006418,-55.46019340493825,27.490867123107144
1760597947.844422,-8.840205215881596,-0.26787643613887396,1.0499298891458095,0.04180138853447531,-47.31554615233898,-55.04642807690669,33.41782177375639
1760597947.8540504,-8.462782801670045,-0.24124626404905294,1.0209488167229523,0.08189233941795399,-54.51084513505422,-53.72516035031481,39.42461843344143
1760597947.8640764,-8.027197021118265,-0.21924069851753908,0.9983648504855671,0.10951124492591588,-61.113413514473166,-51.63609619054454,45.40233777759901
1760597947.874109,-7.535700553077471,-0.2006798092988874,0.9839746306688332,0.12317449407548196,-66.89248911391985,-48.97355963041418,51.23487469866779
1760597947.884116,-6.990534149382519,-0.1838428890674455,0.9782685471158155,0.12313043246321144,-71.65730311704444,-45.96188971844135,56.80830328695703
1760597947.894206,-6.394019275073749,-0.1667717244432152,0.9803897448669382,0.11134136980394738,-75.27302920456636,-42.83003415736989,62.0194516005098
1760597947.9041026,-5.748662734791166,-0.14759028299239005,0.9883167923415865,0.09121070789647842,-77.67142064158415,-39.78935786508131,66.78210906746494
1760597947.9141264,-5.05726895516041,-0.12479820438612428,0.9992335470484004,0.06709280797847711,-78.85318716026914,-37.01758673628243,71.02987519015181
1760597947.9241168,-4.323059285703908,-0.09749414301085547,1.0100031106313077,0.0436769166149322,-78.88083936531439,-34.64991544847761,74.71556732277097
1760597947.9341097,-3.5497932881599494,-0.06549553057580608,1.0176420908490216,0.025366471638031306,-77.86329336483159,-32.77627431469765,77.80805122815822
1760597947.944124,-2.7418791984407576,-0.029343988817513558,1.0197108407401165,0.015752721154159127,-75.9356110795117,-31.442427782383515,80.28795393031977
1760597947.9541113,-1.9044548887281503,0.009790483140336294,1.014581104941468,0.017222791397667397,-73.23788744813244,-30.652422582905917,82.14373881177049
1760597947.964122,-1.0434196646980372,0.05027862187702057,1.0015809118678105,0.030705311679940592,-69.89683054196828,-30.370678334352377,83.36916210723076
1760597947.9740713,-0.1654004348961359,0.09024326949449045,0.9810273602042473,0.05557008810588851,-66.01290635588896,-30.52315198824723,83.96251104417071
1760597947.984141,0.7223605781853777,0.12778860024168837,0.9541511205264243,0.0897208875046148,-61.65529633031196,-30.998071456668377,83.92756628639886
1760597947.9941223,1.6122079040391921,0.1612326463026661,0.9229140864634233,0.1299010426080706,-56.86592731250846,-31.647480794627263,83.27604221857261
1760597948.0041313,2.4963732887637904,0.18933046888978453,0.8897324399425909,0.17217705967778069,-51.672116029620376,-32.291147383206855,82.03119343225418
1760597948.0140667,3.3673717904103246,0.21146395415490826,0.8571351793508317,0.21251737740557888,-46.10513371916907,-32.72425097212443,80.23210649766608
1760597948.0240755,4.218465739742601,0.22775735448080017,0.8274075035159136,0.2473604664654275,-40.22003830192849,-32.72978407560401,77.937846789068
1760597948.0341163,5.044134044410731,0.23907012338774444,0.8022860144017298,0.2740632323063773,-34.11135098867782,-32.09579239152687,75.2302695637563
1760597948.0440845,5.840454635532125,0.24683376693752035,0.7827737312458948,0.29114196017001137,-27.919954630277008,-30.63650911411313,72.21419992787051
1760597948.0540578,6.605302946119626,0.25274166916108703,0.7691112988828194,0.29827444989390794,-21.828599624298867,-28.215253983282835,69.01396748038573
1760597948.0641441,7.338299101967,0.2583552876338548,0.7608882021833676,0.2961056596972226,-16.045905035855665,-24.765992685763095,65.76587515939906
1760597948.0740776,8.04049213689396,0.2647276066444517,0.7572388071295721,0.285947932131751,-10.781175389474198,-20.30999520433292,62.60694230813904
1760597948.0840676,8.713831149466689,0.2721459882979852,0.7570619943595458,0.2694685627324652,-6.214395482111128,-14.96426357799505,59.66107500201762
1760597948.0940804,9.360523554175527,0.28006525685788997,0.7592202398551194,0.24842715586437347,-2.467122926536604,-8.939313010977886,57.024559461040006
1760597948.1040967,9.98240877741817,0.2872528088652578,0.7626955858973687,0.22448993065545228,0.419682970704247,-2.5253229878472614,54.753253570881235
1760597948.1140575,10.580475700467327,0.2921138906532403,0.7666949670724967,0.1991237860383667,2.4958249656629383,3.9325966091981694,52.853868886544625
1760597948.1240423,11.154623038698945,0.29311913435306086,0.7707031931094604,0.17356148443175667,3.8971233314344036,10.067486111377082,51.281226326484244
1760597948.134037,11.703711348843544,0.28923111699170856,0.7744825751978621,0.14882443048874827,4.825780870942264,15.527873216327333,49.94244346492201
1760597948.1440756,12.225898052599105,0.2802302294150052,0.7780208393948829,0.12578475657223603,5.5188924533217385,20.014331321995517,48.70788334826419
1760597948.1540313,12.71919666288002,0.266869318537774,0.7814367796582458,0.10524353938155351,6.210596727169799,23.310122353888403,47.42759375450632
1760597948.1641922,13.182164925049179,0.25082887128999193,0.7848631963637857,0.08800076316711487,7.094742895232342,25.301543490900926,45.9510720409366
1760597948.1740718,13.614604338588748,0.23448727934977734,0.78833480896054,0.07489659583754418,8.294922685975036,25.985076191050812,44.14761483546064
1760597948.1840918,14.018145859824255,0.22055705135561463,0.7917118145851636,0.06681056402053184,9.847290845850747,25.460417301320266,41.92433384650994
1760597948.194211,14.396605890212005,0.21166277902230415,0.7946642486047182,0.0646130757449836,11.699065940856883,23.91066924495712,39.23920775764804
1760597948.2040799,14.756023997238714,0.20994324388587554,0.7967268669904543,0.06907188544790448,13.722498031890467,21.5730395565405,36.107291680939845
1760597948.2140436,15.10433630427093,0.2167451479816339,0.7974132159615777,0.08072432482069496,15.741072268510283,18.7049422374234,32.59927913940947
1760597948.224091,15.450690712388909,0.23244716211607305,0.7963592834028572,0.09973385873946601,17.56244674419295,15.551000993263662,28.832776810651197
1760597948.2340455,15.804466109362044,0.2564232905572992,0.7934577716202298,0.1257572039785473,19.01159304173087,12.315937762759757,24.957706995820406
1760597948.2440488,16.174111055032046,0.2871321121685188,0.7889443961306419,0.15785573244143256,19.95800767913837,9.146852232375632,21.138056021246584
1760597948.2540686,16.565961452234035,0.3223056710290076,0.7834063691769164,0.19448614451078594,20.33252864728354,6.126382211797891,17.532616844161495
1760597948.264061,16.983223214028936,0.35920803983838073,0.7776999782025925,0.23359156541091447,20.131810298378657,3.276147434647846,14.277343637227075
1760597948.2740724,17.4253020176005,0.3949339809843904,0.7727877444124269,0.27278621094805844,19.411338790274893,0.5681142094898921,11.471455914555188
1760597948.284068,17.887615860085674,0.42671711896017805,0.7695307303044624,0.3095977517941877,18.270299129490173,-2.0595641726183396,9.1686443900545
1760597948.2940505,18.361941588929575,0.4522159115692644,0.7684886283757155,0.34171492737027137,16.832869984948957,-4.6858000723621,7.3738907180766065
1760597948.3040428,18.83724898668334,0.4697497543634825,0.7697809597670605,0.3671898164473901,15.230318372443325,-7.39170088876524,6.045734739509875
1760597948.3140736,19.300895056512953,0.4784669898217851,0.77304668462592,0.3845637361972544,13.587036345663279,-10.2490984225904,5.10332361790635
1760597948.3240397,19.740002371796585,0.47843611828692795,0.7775146290288008,0.3929147765253732,12.012158484047257,-13.3127642577576,4.437120984303047
1760597948.334036,20.142827032397257,0.4706569848188595,0.7821733145146902,0.3918485576187645,10.597097720601855,-16.615643277475584,3.9216854178272746
1760597948.3440816,20.4999268346895,0.45699110061499004,0.7860122858667162,0.38146075465131274,9.418345714649385,-20.1658154853562,3.4285941970149985
1760597948.3540447,20.804967688668466,0.44001330703432046,0.7882976287822556,0.36229250667007956,8.544137691850976,-23.943629174971644,2.837618622583649
1760597948.3640475,21.055059938154347,0.42279278169668105,0.7888377387891604,0.335288309814724,8.042968736388092,-27.897592652530484,2.0447619427251076
1760597948.3740704,21.25059449482527,0.4086188911809791,0.7881904690695583,0.30175695023326304,7.991425085018071,-31.938196373602032,0.9666425288277848
1760597948.384079,21.39463683604814,0.4006931639244331,0.787764204452456,0.2633298450237363,8.478519768615872,-35.92982369831563,-0.45834739927060175
1760597948.3940868,21.492009990403485,0.4018086623906118,0.7897768708101902,0.22190692578113028,9.604010577072833,-39.682134077268614,-2.270979164304983
1760597948.4040837,21.54823511448982,0.4140324933114063,0.7970559426351128,0.17957886491170355,11.469214749646317,-42.94339748429569,-4.492836408676258
1760597948.4140887,21.56849703590515,0.43840225148289846,0.8126841504482675,0.13851823885116699,14.160444012652057,-45.398761894637246,-7.127480840080514
1760597948.4240894,21.556773482530698,0.4746488694041951,0.8395174390360658,0.10084152101018341,17.726926316609465,-46.676156546350114,-10.160463980399411
1760597948.4341009,21.515224159284738,0.5209677238846606,0.879623906625491,0.06845427986758233,22.156581369635035,-46.36175407297783,-13.558208746902753
1760597948.444117,21.443888440689218,0.5738736817552141,0.9337149309859581,0.042897508359125584,27.354127140868652,-44.02609536802953,-17.266461351098382
1760597948.4541674,21.34069251701747,0.6281873264619886,1.0006608294819157,0.025212544800153888,33.12659809305979,-39.26126456347974,-21.2094905415504
1760597948.4641411,21.201720960161747,0.6772020737067527,1.0771981446657346,0.015839851039524712,39.181147135013354,-31.728578308808384,-25.29137555145036
1760597948.4741416,21.02167102497456,0.7130743048679054,1.1579336653374477,0.014565245024827549,45.13862124628575,-21.21468809222492,-29.40053206128034
1760597948.4852524,20.794393802020824,0.7274635512559982,1.235719647812461,0.020523018587584617,50.56382556438206,-7.691596512042163,-33.418044287159084
