timestamp,angle,linear_acceleration_x,linear_acceleration_y,linear_acceleration_z,angular_velocity_x,angular_velocity_y,angular_velocity_z
1761285192.2125883,-9.30830752334446,0.15683299360578232,0.9440968899554579,-0.22813150206078467,17.815883608849678,17.94224210549639,33.42946490826518
1761285192.222662,-8.813132167668538,0.08555869242388037,0.9282512510121825,-0.24958917069769435,16.448336716028454,25.777109627497254,33.28828072121213
1761285192.232559,-8.386396706634555,0.009188778288905197,0.9149735315741181,-0.2713036397023005,14.73658153889744,32.289609819646394,32.6683548636701
1761285192.2426465,-8.03384091022222,-0.06679445461197912,0.9053078206752048,-0.29274925246933997,12.80796013992828,37.1664346547932,31.590265493272163
1761285192.2525806,-7.7565169311889814,-0.13726830764097983,0.9000590653425592,-0.3131540808927283,10.81432822234439,40.25369547327426,30.09853486227262
1761285192.2627122,-7.550682732918879,-0.19778676626765834,0.8996606563314563,-0.3315703966585628,8.910161595483167,41.549128694868855,28.264477366648297
1761285192.272581,-7.408034462734736,-0.24486488354301367,0.9041017310534394,-0.3469935185350118,7.2321672873992435,41.18207789678034,26.186875499631263
1761285192.2825723,-7.316280454217437,-0.2762090892750228,0.9129182077557328,-0.3585068711737198,5.883395014196122,39.3847877592989,23.989441325580298
1761285192.2925658,-7.260026112772017,-0.2908577445903504,0.9252413181908768,-0.36542278070189194,4.9236666851236155,36.45865312867598,21.814561204623345
1761285192.3025787,-7.221902713417712,-0.28919786101048317,0.9398908284466849,-0.36738846622868915,4.366824529673523,32.73900795942246,19.813519649181345
1761285192.312598,-7.183842958770908,-0.27284322963873514,0.9554971147681862,-0.3644365886372186,4.184123745133155,28.56190483191872,18.134060663623085
1761285192.322551,-7.128388187554776,-0.244386715139482,0.9706363834194235,-0.35697557173077565,4.312272476456835,24.236037308822258,16.906654987426553
1761285192.3327527,-7.039911145841552,-0.20706561138418636,0.9839654514267061,-0.3457299693095384,4.6642472059941245,20.022333142372222,16.231149645443875
1761285192.342604,-6.905657321203829,-0.1643966776845699,0.9943446365841838,-0.33165040344090296,5.141051411360364,16.122694015999233,16.16554688717457
1761285192.3525832,-6.716542643124677,-0.11984025179481406,1.000938305753219,-0.31581441791173726,5.6429114989450415,12.677931404603116,16.718477386654538
1761285192.3627234,-6.467682494827695,-0.0765386578951809,1.0032835224518046,-0.2993348296108419,6.0788584284487985,9.7734210509678,17.846528442681883
1761285192.3725443,-6.158652738543221,-0.03714934993713203,1.0013197567110703,-0.283283365384932,6.374091280372699,7.4497857949962265,19.45702162189051
1761285192.3825479,-5.793493721044019,-0.0037686672520752763,0.9953770687306245,-0.26862851126581516,6.474877846418598,5.7153634916993035,21.416160190355775
1761285192.3925757,-5.380468800999634,0.02207442750196126,0.9861253807026547,-0.2561815841404211,6.350993636985778,4.5574348703664045,23.5617460089174
1761285192.4025693,-4.931588226780473,0.03938191867881985,0.9744921903021269,-0.24654588605675856,5.99585924490289,3.9500424287462974,25.71900164430877
1761285192.4125602,-4.461912467845604,0.04763372881840878,0.9615596457106769,-0.24006906651941518,5.424653593542194,3.8574442711110155,27.71755667529132
1761285192.422761,-3.9886574556087426,0.04673811191655411,0.9484536757743279,-0.23680506961666561,4.670788875664272,4.2335019677828045,29.40747151541148
1761285192.4331362,-3.530135691262063,0.036997081897703024,0.936237435442801,-0.23649590863814196,3.781224485651495,5.018325423376044,30.67232976897518
1761285192.442556,-3.1045789648206243,0.019090067861979455,0.9258191270153961,-0.23858335234664024,2.8111408555919715,6.134097512852008,31.437923322523254
1761285192.4527478,-2.728899353463102,-0.005928735966846075,0.9178814139706045,-0.24225690110025813,1.8184742375934337,7.48210361364194,31.675792567068584
1761285192.4625528,-2.4174568010428414,-0.03663088729743654,0.9128369406445669,-0.24653870446232634,0.8587471548407297,8.942646551194658,31.401702640406036
1761285192.4727635,-2.1809151963474886,-0.0712286901188764,0.9108118200804427,-0.2503992865325772,-0.01945160297446802,10.378860088560073,30.669853891308755
1761285192.4827828,-2.0252809750033145,-0.10762121769944813,0.9116560351226747,-0.25289039783386136,-0.7780548341969671,11.644591039584883,29.564100679064467
1761285192.4925582,-1.9512211996048463,-0.1434812214868165,0.9149769086549483,-0.25327433744604844,-1.3919432926327064,12.595652853263346,28.18762646609524
1761285192.5026054,-1.9537459529344094,-0.17638224485547924,0.9201900077848676,-0.2511257077197069,-1.850026561224652,13.103017457559915,26.6524243845545
1761285192.5125654,-2.0223129924246197,-0.20395563437022643,0.9265814461417505,-0.24638470370069293,-2.1548616789113977,13.066056618144788,25.069648263583126
1761285192.5225925,-2.141376128704916,-0.22406133728290833,0.9333763537249867,-0.23935130219302592,-2.3208152325898936,12.423864500039445,23.541533434430292
1761285192.532576,-2.29135807261719,-0.2349543046127319,0.9398096782768274,-0.23062426223532295,-2.3709569076593864,11.162976186237813,22.155240745436252
1761285192.542565,-2.449986025712022,-0.23542827576793304,0.9451962078157207,-0.2210020298755137,-2.333072888969801,9.320336527309497,20.978725260940397
1761285192.5528514,-2.5938858410881203,-0.2249198703682001,0.9489956183380129,-0.21136900492603858,-2.2353386799373354,6.981045158114129,20.05859110632073
1761285192.5625663,-2.700293405114827,-0.20355916374235347,0.9508658977191198,-0.20258853755116032,-2.1022505038884556,4.2711078203994415,19.41982844397729
1761285192.5725677,-2.748718729214116,-0.1721591181486265,0.9506970377048699,-0.19541656911218735,-1.9513960323175004,1.346088132508936,19.067270167857703
1761285192.582784,-2.7223972777446703,-0.1321448331210115,0.9486191845339482,-0.19044236519011634,-1.791584032489179,-1.6228775886488302,18.98849453198148
1761285192.5925856,-2.60938846043961,-0.08543325816202262,0.9449857930760636,-0.18805886820871653,-1.6227449528351463,-4.463835663537146,19.15772916148282
1761285192.602575,-2.40323141378128,-0.03428288385499517,0.9403390531532588,-0.18846389887332798,-1.4378152006142533,-7.0175561057619715,19.54014375717015
1761285192.6127648,-2.1031337304071767,0.01886232094897618,0.9353673923179536,-0.19169095676103934,-1.2265001675693814,-9.148168960819618,20.09583909380211
1761285192.6226728,-1.7137324156778762,0.07151323108207373,0.9308625588127318,-0.19766245279631214,-0.9804137512022049,-10.749908191883502,20.782897533351818
1761285192.6325474,-1.2445102072202214,0.1212488883471969,0.9276795236020728,-0.20625029818492066,-0.6987123098027643,-11.749903008244384,21.559047224666333
1761285192.6426609,-0.7089662008952529,0.1658046346972455,0.9266980330844015,-0.21732275079365393,-0.39309641584753524,-12.107818126064625,22.381768471577438
1761285192.652903,-0.12363270809718517,0.2031463010628784,0.9287798835458293,-0.23075637992306947,-0.09103689827612614,-11.813658292355228,23.206993964302004
1761285192.6625779,0.4929859839202513,0.23154322728502622,0.9347122367495108,-0.24639997908119396,0.1636851071547343,-10.885068601967939,23.986878168510163
1761285192.6725545,1.121490438006207,0.2496472918059629,0.9451285739228793,-0.2639915006152453,0.31360850760250203,-9.365046400519203,24.66736728508561
1761285192.6825914,1.7426214409993521,0.25657736496705824,0.9604077998044878,-0.2830449464731261,0.2933522439690298,-7.320366497529691,25.186408966915646
1761285192.6925704,2.3381982797861918,0.2520035405740831,0.9805657391824733,-0.3027366397741044,0.037916690324585604,-4.840451699492933,25.473544059246947
1761285192.7025504,2.891910291549762,0.23622440556138494,1.0051643080982031,-0.32182612074677625,-0.507575935720473,-2.036015064826863,25.451326192763812
1761285192.712557,3.3899289808072792,0.21022990307966352,1.0332652426959856,-0.33864541586035185,-1.378214832973077,0.9634554046430732,25.038596826650473
1761285192.7226558,3.8213304684389398,0.17573584396977845,1.063447094326171,-0.3511830331903393,-2.581423830530438,4.014448473470291,24.155221563876406
1761285192.7325807,4.1783308002643125,0.13516205209748328,1.0938920246615975,-0.35727655590661506,-4.092496749170778,6.967481690177475,22.727561333405497
1761285192.7425778,4.456329902280772,0.09151296960803801,1.1225378116843452,-0.3549080900889811,-5.854758371311687,9.679144272905216,20.693736270947227
1761285192.752569,4.653742097186023,0.04812369126008233,1.1472793351052217,-0.34256710669054985,-7.7848919436475,12.027882122886174,18.00765192473747
1761285192.7625728,4.771584164375088,0.008269438227137795,1.1661903726462919,-0.3196096126039156,-9.783083175077808,13.931767576868605,14.640899362994816
1761285192.7725682,4.8128137695421485,-0.02530322519335183,1.177727218597097,-0.2865187152002767,-11.746566341844435,15.36479930919448,10.582184249060212
1761285192.7825632,4.78146128236337,-0.05081135879491616,1.1808817580697806,-0.24498032674610065,-13.584142555133974,16.367146324869402,5.83487690425105
1761285192.7926414,4.681659850028292,-0.06771363777832237,1.175272372942638,-0.19773265619432642,-15.228766665071067,17.04500988390779,0.41423224089210003
1761285192.8026106,4.516729573850068,-0.07674912888861067,1.1611801634043413,-0.14821038470525214,-16.645785225952515,17.55779321411894,-5.653734667434153
1761285192.8125696,4.288490257217181,-0.07972666471323292,1.1395420668451373,-0.10005731548962175,-17.835685172398662,18.093524777568426,-12.330141816377386
1761285192.8225744,3.9969489056989507,-0.07912643287502534,1.1119042875942085,-0.05660778896119864,-18.831580270490324,18.836726259399423,-19.55753201348314
1761285192.8325744,3.6404343942281288,-0.07762091448799333,1.0803304803288787,-0.020436187198365922,-19.692519080739473,19.93488990197117,-27.25179513342396
1761285192.842601,3.216153489606808,-0.07762866785347532,1.0472569013876316,0.006946447046531869,-20.493976360876253,21.469869496943275,-35.29432793454536
1761285192.8525853,2.7210508672665283,-0.08098592089595867,1.0152922110065965,0.02520156892891664,-21.316886725930217,23.43908878489175,-43.52760629394792
1761285192.8626359,2.1527965155398907,-0.08877534670987236,0.9869709258777627,0.035069362473852846,-22.236552777963723,25.749300369997034,-51.75686035193255
1761285192.8726094,1.5107079620929158,-0.10130848441670412,0.9644838674723841,0.0381027497028626,-23.312731685849215,28.223412048898744,-59.759162835389866
1761285192.8826005,0.7964397763314909,-0.11822852017987819,0.9494222420179418,0.03629312373044753,-24.582051998668096,30.619013281029485,-67.29939777463458
1761285192.8925762,0.01432880155003167,-0.13868442694084196,0.9425798602031534,0.031672386093486854,-26.053566369292515,32.65576754759666,-74.15082323727476
1761285192.9025824,-0.8286440879418071,-0.16152481164785437,0.9438563078454714,0.0259796155502837,-27.707777211832944,34.047828008590855,-80.1168051104115
1761285192.9126203,-1.723243994194648,-0.18547004656897007,0.9522883697535539,0.02046161896134178,-29.49901481650796,34.53700782073123,-85.05011092651367
1761285192.9227176,-2.658638573388132,-0.20924031598170817,0.9662083562486129,0.01583206456527781,-31.360664989023267,33.9226828470129,-88.86686944998091
1761285192.9328177,-3.623207922956513,-0.23163696696642325,0.9834968434192076,0.012360415198012105,-33.21241371617468,32.08522975527483,-91.55352008155553
1761285192.9425867,-4.60539088168793,-0.2515888230103423,1.001876985006827,0.010029013307802224,-34.968405849146016,29.000943731889734,-93.16632217312232
1761285192.9525948,-5.5944656035699785,-0.26818142344961654,1.0191932076442018,0.008697062200359755,-36.54508960383381,24.747529279844088,-93.82398858768173
1761285192.9626393,-6.581187571989448,-0.2806844466202997,1.033626853160311,0.008231043657202234,-37.86761557714088,19.500189613403954,-93.69468452705908
1761285192.9725735,-7.558236312712592,-0.2885828701102674,1.0438210406109756,0.008584194230997808,-38.87397383455332,13.519014087848628,-92.97903602994414
1761285192.9826088,-8.520447554773359,-0.29160707603527786,1.0489108326552954,0.009824357547266191,-39.516517614926144,7.128917467128179,-91.89099604454883
1761285192.9928184,-9.464828715386476,-0.28975183127938453,1.0484760894139329,0.012118769862546234,-39.7610364808032,0.6939762809390618,-90.63847408480602
1761285193.0027995,-10.390373246363552,-0.2832749414744376,1.0424480341097646,0.015687672678030937,-39.58399666183368,-5.411363774045793,-89.4055609486453
1761285193.0126073,-11.297705468256465,-0.2726722446765034,1.0310038120850982,0.020738609254334836,-38.9688731416482,-10.83125855540894,-88.33795307065247
1761285193.0226111,-12.18860309324241,-0.25863485004841325,1.0144770192714045,0.02739263316125167,-37.90260436509075,-15.25460743071401,-87.53278466941057
1761285193.0325987,-13.065457956577749,-0.2420028203226198,0.9933009491057072,0.03561420139437557,-36.37310385065967,-18.435874117121507,-87.03353710116886
1761285193.0426276,-13.930742277817258,-0.2237309225361467,0.967990135975508,0.045158126537790166,-34.36851883591384,-20.209054766954242,-86.83010075710193
1761285193.0529287,-14.786544665282735,-0.2048749174442833,0.9391562318190818,0.05554754872626901,-31.878618718601746,-20.49435128023651,-86.86352855444105
1761285193.0626378,-15.634227319772497,-0.18659548689382194,0.9075458817997297,0.06609345288257015,-28.898378057120894,-19.29805909078381,-87.03462326636986
1761285193.0725803,-16.474236615825607,-0.17016705320987052,0.874082135672137,0.07595758158458332,-25.43348479548112,-16.70688474043096,-87.21526413372213
1761285193.0826175,-17.306076814295057,-0.156973435411753,0.8398890014683895,0.08424935051687903,-21.507140599214377,-12.878337838309337,-87.26127394035092
1761285193.0925953,-18.12843345579383,-0.14847245087789682,0.8062810283302184,0.09013843761275964,-17.167163737827757,-8.028952350454317,-87.02561541752627
1761285193.1026492,-18.93941125795711,-0.14611781553146638,0.7747052061205547,0.09296150217521411,-12.492134383472873,-2.42186789840483,-86.37076252527098
1761285193.1127377,-19.73683416098124,-0.15123826991408446,0.7466309874811559,0.0923041719162261,-7.595215445869679,3.645161022134217,-85.17921689299584
1761285193.1226463,-20.518545536548384,-0.16488701359622301,0.7233955741160202,0.08804571667258357,-2.6243840801693374,9.850772605986585,-83.36133145219387
1761285193.1326137,-21.282645760516658,-0.1876837719127491,0.7060231215741782,0.08036125438613932,2.24189120888277,15.859879263767702,-80.85984470920742
1761285193.1426306,-22.027611357213555,-0.2196731080082748,0.695044661221629,0.06968405761270256,6.8040364218833425,21.332554060548766,-77.65079830221782
1761285193.1526253,-22.752252674786867,-0.2602163155747191,0.6903489285543138,0.05663801811031711,10.855742097623537,25.932222901930228,-73.74079871034587
1761285193.1626933,-23.455484721572844,-0.3079265694522388,0.6910946101659261,0.041955413804431935,14.202565641997978,29.333603157256203,-69.16089770485453
1761285193.1726384,-24.13591043630642,-0.36065622272082254,0.6957131916098374,0.026395834452483675,16.683352493927938,31.2310144436128,-63.957730459716714
1761285193.1826255,-24.79125041609961,-0.41555241030613677,0.7020250531023409,0.010679677980164677,18.192487011287955,31.347907044111604,-58.183003498591304
1761285193.1925824,-25.417697064015588,-0.46920243647094584,0.7074740003079631,-0.004553380439943374,18.700506101380228,29.44858261690024,-51.88295255134508
1761285193.2026265,-26.00931517520746,-0.5178820541892948,0.7094594295541431,-0.01875429551540493,18.270276822808935,25.352945770799533,-45.089832548435126
1761285193.2126722,-26.557639481484916,-0.5578973944152995,0.7057231685525371,-0.03144295650359206,17.065901316834125,18.954584782209043,-37.81758380644187
1761285193.2228022,-27.05161730825766,-0.5859863644138349,0.6947392115333002,-0.04216419593571622,15.35190653236055,10.241532938344436,-30.063364783304326
1761285193.2326035,-27.478003601594892,-0.5997285972935152,0.6760561005682812,-0.05043877923415989,13.481084904018044,-0.6821066782589129,-21.815733470326247
1761285193.2425883,-27.822239197056565,-0.5979054884514876,0.6505448371113647,-0.055729300663938164,11.870429620671057,-13.576610246136571,-13.06910767538471
1761285193.252641,-28.069744782400335,-0.5807493220981568,0.6205075310819829,-0.05743790117738755,10.96585437961564,-28.05292718129777,-3.842888700867256
1761285193.2626195,-28.207465277203315,-0.5500245969541454,0.5896096823141028,-0.05494709164588322,11.197818044306329,-43.56893692230515,5.79758951884856
1761285193.2726228,-28.225430378647584,-0.5089031124103768,0.5626180345380035,-0.047708261441621026,12.931562883998042,-59.43947976461072,15.722116654415276
1761285193.2826457,-28.118080131959772,-0.46162944675772805,0.5449534116460166,-0.03537222001856332,16.41717808694389,-74.86291771691566,25.722963359016752
1761285193.292688,-27.88514508111228,-0.4130157191454247,0.5420944512074355,-0.017941418124792885,21.7457215619416,-88.96519900692104,35.51250818863622
1761285193.3026342,-27.531951652380062,-0.3678388296659364,0.5588878203952513,0.0040901256231474165,28.81785194430985,-100.86009837637333,44.73393232022357
1761285193.3126233,-27.069115999501648,-0.33022788300110867,0.5988343910126358,0.029647550090254757,37.330717606615316,-109.72183872246575,52.98597142373638
1761285193.3226264,-26.511670884876636,-0.30312211986625875,0.6634319397761872,0.05706539965096406,46.78725013843884,-114.86398135486682,59.860549234163045
1761285193.332586,-25.877732406628656,-0.2878597029234899,0.7516639451435568,0.0841654138897771,56.529642237512064,-115.81650653629029,64.98982990349606
1761285193.3425865,-25.186858792772046,-0.2839387412508803,0.8597290135356442,0.10840823536045348,65.79589273261033,-112.39158004847722,68.09708402521112
1761285193.3526237,-24.458285783377573,-0.28898178205325714,0.9811018842512839,0.12709419579136835,73.7951962724426,-104.72784248969762,69.04415407280315
1761285193.3625896,-23.709243058650397,-0.29893280172763353,1.1069964933720988,0.1375885400347586,79.79490749212113,-93.3034869077688,67.8676330565313
1761285193.3726566,-22.953561211148028,-0.30851395826532674,1.227252613641872,0.13755019357922857,83.2090156737264,-78.91043146048587,64.79640471907369
1761285193.3826394,-22.2007624842266,-0.3119539924202914,1.3315839055093537,0.1251451318894996,83.67594276699293,-62.5862398215162,60.24505392128312
1761285193.3925812,-21.455780470667673,-0.3039525953905358,1.4110186002977414,0.09922884194453264,81.11284973239466,-45.507506097173945,54.78081125321148
1761285193.4026039,-20.71936466542129,-0.2807530819657277,1.4592673181179123,0.059495844927969894,75.73540834176893,-28.857472812521408,49.065854215859474
1761285193.412626,-19.98909681877681,-0.2410789879856029,1.47370934390232,0.006616593357900058,68.03659695503801,-13.689124418934858,43.78136428385803
1761285193.4226146,-19.260801131516335,-0.18662385588927466,1.4557364404905107,-0.05761610226959072,58.72508912658424,-0.8090053979873116,39.543949865760375
1761285193.43262,-18.530019368258777,-0.12186240068149719,1.4103408417047067,-0.13016168979696877,48.631812844427856,9.296520905357086,36.827868260449975
1761285193.4426155,-17.793206768478633,-0.053185370457676406,1.345042478463622,-0.20673895101106488,38.600124745556556,16.48159688299351,35.906717351585684
1761285193.452929,-17.04841829621349,0.012376892436428802,1.2684405284178508,-0.2820985070897422,29.378710118941495,20.91037455156715,36.82518557614959
1761285193.462602,-16.295456192168583,0.06844857860548806,1.1887659832855768,-0.3506071586126532,21.53566702507824,22.988934891328,39.40551675140045
1761285193.4725976,-15.535631693939411,0.11028653018741127,1.1127682740416815,-0.4070473404132398,15.407372917008743,23.27729364964703,43.286171638779614
1761285193.4826674,-14.771365310485065,0.13528126240450045,1.0451188343206044,-0.4474289946727604,11.087903503222128,22.397989796732674,47.98378408680769
1761285193.4926534,-14.005810253050132,0.14299057703088097,0.9883354765968797,-0.46959545183500717,8.456088730631546,20.953685116052032,52.96567637303216
1761285193.502629,-13.242598817282166,0.13481614465645833,0.9430975531957594,-0.47347342542649934,7.230093471869004,19.461750852128763,57.719791359630804
1761285193.5126257,-12.485738835641166,0.11346143302600595,0.9087626930082524,-0.4609304929824141,7.035406599119574,18.310174797337826,61.81154611483702
1761285193.5226872,-11.739640846251131,0.08229882999437461,0.8839048696618335,-0.43531585303421866,7.471918824463246,17.736253985648435,64.92150608877954
1761285193.5326478,-11.009226728600993,0.04475604145532779,0.8667514882600175,-0.4008351180198401,8.16892421837685,17.826913821509905,66.8624243502116
1761285193.5427027,-10.300048818335062,0.0038159781782349743,0.8554754717443793,-0.3619257973271195,8.822100461934252,18.53689118672849,67.57792793117545
1761285193.5528631,-9.618335388844512,-0.038296489021104385,0.8483621475183859,-0.32275596022199443,9.211982357221427,19.718839210061528,67.12734429905322
1761285193.5626419,-8.970879983810256,-0.08020195805601894,0.8438987408201171,-0.28688952546388874,9.207405075345765,21.158382203186584,65.66182242803863
1761285193.572639,-8.364714009998242,-0.12123729851838562,0.8408300813638953,-0.257090640328512,8.758959332084126,22.60774221812009,63.39644617044598
1761285193.5826917,-7.806544113424565,-0.16116857106308854,0.838204557583151,-0.2352109065790699,7.886933228755102,23.813606191924542,60.58202313525716
1761285193.592701,-7.301990643600784,-0.19983740715096912,0.8354137949875651,-0.22211985832147083,6.6665838736709935,24.537655346168233,57.4790935535141
1761285193.6026242,-6.854718632864589,-0.23683692959272368,0.832215925359078,-0.21767661856501738,5.212058656002047,24.570689104105057,54.33570007198498
1761285193.6126192,-6.465595468212538,-0.2712935023846991,0.8287284894144674,-0.22076933201526094,3.6595706071568097,23.742817053937017,51.369721866656285
1761285193.6226106,-6.132030104114149,-0.30179806174384466,0.8253810464987418,-0.2294524729191426,2.150537658626085,21.932469899413483,48.75611938880497
1761285193.63263,-5.84764154184806,-0.3264961453000893,0.8228251889873776,-0.2411920927112847,0.8158411441800855,19.076102527034664,46.61916709379627
1761285193.6426141,-5.602367076620113,-0.34331426751306643,0.8218085284119865,-0.25319858243811505,-0.23738500065695434,15.178822827314457,45.02954461699584
1761285193.652631,-5.383055196274399,-0.35027415167446924,0.8230291973038512,-0.2627999959070072,-0.9351934259267958,10.324368499673012,44.00593595448485
1761285193.6626232,-5.1745027038718305,-0.34582892190161846,0.826996664790809,-0.2677956599608922,-1.2417836594783012,4.681538343917413,43.52052950354776
1761285193.6726446,-4.960808526000716,-0.32915232839343267,0.833928004988611,-0.2667327679622643,-1.1599796578908752,-1.4961135080005585,43.50751949904088
1761285193.6829932,-4.726852278687932,-0.30032751271471425,0.8437017814638353,-0.25906603657003774,-0.7278747666825118,-7.87966218276093,43.87341454231976
1761285193.6926486,-4.459686579054289,-0.2604127195588586,0.8558761866926452,-0.24518668453866363,-0.012693832045039455,-14.083960922352489,44.50774206458776
1761285193.7026515,-4.149666025997979,-0.21139454750096667,0.8697617256694176,-0.2263335387205291,0.8970394245385706,-19.695396995173393,45.29269713890898
1761285193.7126527,-3.7912061352721653,-0.15605566956884945,0.8845295865408602,-0.20441634636387404,1.9001890878548173,-24.305634930681595,46.110502906112515
1761285193.722645,-3.3831389446309195,-0.09777404361201357,0.8993378721576828,-0.18178361877882873,2.8920172506374766,-27.547908315964506,46.847765303166575
1761285193.732784,-2.928682590092507,-0.040250028394887,0.9134649694650554,-0.16095906162797757,3.773135439352978,-29.132125116013913,47.396847783306924
1761285193.742788,-2.4350684793548676,0.012843280947221153,0.9264437285860153,-0.1443644116604712,4.457908777244916,-28.874927929592065,47.655052716582865
1761285193.7528727,-1.9128867889659453,0.05826006624842177,0.9381858132778,-0.13405045455655695,4.881550295643613,-26.72073246344743,47.522908888797424
1761285193.7631755,-1.3752301214322002,0.09356260384523875,0.9490756084075719,-0.13146714423442374,5.004929325826334,-22.749990082002267,46.90296283327225
1761285193.7726817,-0.8367337815530818,0.11739272217949095,0.9600063779707286,-0.13730510879074395,4.816205254041958,-17.172113829387822,45.700183373860575
1761285193.7827172,-0.31261835829962503,0.12956493539414177,0.9723342191488172,-0.1514268186820488,4.328857918592618,-10.302965586594523,43.824600609809416
1761285193.7928383,0.1821722612179207,0.13096604945354287,0.9877376005385052,-0.1728826947537271,3.5763555351103453,-2.529991300738443,41.19632554394911
1761285193.802624,0.6336761671280662,0.123303850770057,1.0079877738270955,-0.19999080065748287,2.6043174881475064,5.729206328815931,37.75273372982106
1761285193.812598,1.0294434239303527,0.10878306779748358,1.034653217142287,-0.23045826339626743,1.4614249951475387,14.06798023670642,33.45729546428758
1761285193.8226285,1.3589131709618925,0.0897906436006663,1.0687759805080905,-0.2615339977400145,0.19049989553520652,22.12536797028538,28.30918487003816
1761285193.8326168,1.61368584101905,0.06865018446207136,1.1105685333892767,-0.29019355923154033,-1.1788174393847315,29.610474520812833,22.35235261457749
1761285193.842635,1.7877392392039153,0.0474695434812485,1.1591866147783985,-0.313359489102836,-2.6344654858380974,36.31502833970094,15.682298655103654
1761285193.8542821,1.8776135276174597,0.02806952619321353,1.2126335816237868,-0.3281541196649585,-4.18237587853068,42.1147726326102,8.448554382396726
1761285193.862626,1.8825538077646888,0.011957743647584642,1.2678390950316558,-0.33217085716911976,-5.842374991756,46.961830044957516,0.8510920554078832
1761285193.8727288,1.8045666731535408,0.00030636471930655805,1.3209278736691916,-0.32373884777559436,-7.639874075108801,50.8709526359871,-6.8703891695539765
1761285193.8826756,1.6483322442695498,-0.0060947959329089125,1.367657687376345,-0.30214853044066875,-9.594656342583066,53.902693158972,-14.454140596013016
1761285193.8927352,1.4209218464584692,-0.006914902290520678,1.4039675259970676,-0.2678050257894249,-11.708975595640078,56.14607724866848,-21.639322067906253
1761285193.9029505,1.1313019496412058,-0.002369487604278257,1.4265445019364258,-0.22228245913283223,-13.957689394121653,57.70250600180806,-28.191072667232664
1761285193.912641,0.7896489222484938,0.0067165951953999815,1.4333000512511742,-0.16826098340289652,-16.283062675734264,58.67172350885121,-33.92358904324212
1761285193.92263,0.406543994711277,0.018910832195979253,1.4236523377078296,-0.1093355107430909,-18.59614049928581,59.14011364356848,-38.717158187214785
1761285193.9326525,-0.00784967899982779,0.03227055596638117,1.3985489857500226,-0.04969348097512865,-20.785304110812113,59.17152957554805,-42.526220909269746
1761285193.9426658,-0.4445160678832387,0.044543119411855195,1.360227182287591,0.0063231084482930295,-22.73104676194252,58.80120089206892,-45.377445771278964
1761285193.9527926,-0.8961260299163386,0.053442864158066435,1.3117769719525108,0.05472533076364586,-24.324476658455794,58.033646793488536,-47.3589294166807
1761285193.9626787,-1.3573301829176416,0.05695441888631672,1.2566219669938883,0.09237578578376443,-25.485934929106005,56.84550991110464,-48.60338559247328
1761285193.9726253,-1.8247945074142848,0.05360719126734952,1.198041057036512,0.11738316972061816,-26.179756402217,55.19357299679675,-49.26903473382409
1761285193.982622,-2.297011831324757,0.042678103937520466,1.138824358310036,0.12931032189077796,-26.42183394715423,53.02711212736225,-49.52170573770984
1761285193.992621,-2.7739532557729008,0.024296496026378175,1.0811035240853146,0.12915025400623376,-26.278187907556962,50.3026976473026,-49.52066901430774
1761285194.0027723,-3.256638840964815,-0.0005616337965196623,1.0263443751410202,0.11907547490905551,-25.85473650850117,46.99904595786229,-49.40939712996832
1761285194.0127876,-3.7467070080405405,-0.030191660506256008,0.9754562034607963,0.10201699332899282,-25.28031250486614,43.12963952415664,-49.31119559782041
1761285194.0226336,-4.246048564239767,-0.062377012923911596,0.9289617055079638,0.08116695698304427,-24.686201633882128,38.75134733411642,-49.32868408016425
1761285194.0326414,-4.756546560457998,-0.09467169199481888,0.8871776258140969,0.05951098657314188,-24.185859490688767,33.967961804626874,-49.54553976711736
1761285194.0426588,-5.2799333286239625,-0.12470297119564729,0.850368686987162,0.03947855658719356,-23.858026630291466,28.928307055587275,-50.02880331085985
1761285194.0526402,-5.8177504906661435,-0.15045233522593598,0.8188504604456581,0.022758954385501295,-23.735465304086876,23.81925716856288,-50.83040457229641
1761285194.0626583,-6.371384310065434,-0.17048922350360782,0.7930300670485432,0.010281405314805847,-23.800357510059378,18.854458425086143,-51.987272915613026
1761285194.0726326,-6.942147702032634,-0.18414576816190964,0.7733869962481631,0.0023182919353924147,-23.98636158026772,14.259674328960694,-53.52018929779126
1761285194.0826678,-7.531384779208633,-0.19162169232387638,0.7604071401194324,-0.0013476510462109104,-24.186597311103284,10.255569668765482,-55.43211019360045
1761285194.0926752,-8.140577032935418,-0.19400268146820202,0.7544880245065736,-0.001246623656437811,-24.266418479368596,7.038674981614086,-57.70686627445629
1761285194.1026673,-8.771429852879185,-0.19317444900649533,0.7558320986365389,0.0019283379489807486,-24.07961493523098,4.7614455457888765,-60.3089331182309
1761285194.1128411,-9.425915658145861,-0.19162330672110411,0.7643417062563673,0.007429152744193309,-23.486506830442412,3.5127753846948937,-63.184552937292516
1761285194.1226575,-10.106248165665063,-0.1921298985697141,0.7795284906880192,0.014517534345859546,-22.37216347956098,3.300879099396041,-66.26404760066755
1761285194.1326916,-10.814763888026015,-0.19738172590706635,0.8004523394478177,0.022493816127809495,-20.6627556280147,4.0408918799579885,-69.46484323303517
1761285194.142647,-11.553694167527397,-0.2095489967020153,0.8257070232413725,0.030698852467798014,-18.338000183352882,5.549688831103774,-72.6946015426863
1761285194.152658,-12.324825047089963,-0.22988359541784734,0.8534665833067808,0.038499276705451266,-15.43792738415426,7.550162573971403,-75.85393378076864
1761285194.1626492,-13.129061671823406,-0.25840777753398075,0.8815961391820665,0.045270036659655115,-12.062801984431168,9.686439830092075,-78.83838719994775
1761285194.172669,-13.965934844621819,-0.29375382355062135,0.9078161637047801,0.05039228267155077,-8.365839917843909,11.550260465006518,-81.53962459678773
1761285194.1827543,-14.833105023190887,-0.33319787452517735,0.9298971992426759,0.053283233567135706,-4.539219583374525,12.717098099740259,-83.84590000400848
1761285194.1927984,-15.725929251555865,-0.37290232777785753,0.9458574925752785,0.05346444428242584,-0.7946660490873002,12.788816673178312,-85.64208203750314
1761285194.202653,-16.637156553509076,-0.4083449853437054,0.9541384633649328,0.05065947150986716,2.6594910498351694,11.43809737241086,-86.80961557225766
1761285194.212634,-17.556806640875777,-0.43487720710414973,0.9537391062289886,0.044897584189428755,5.6424607480157665,8.448936039907112,-87.2269299452575
1761285194.2226408,-18.472267727333577,-0.44832941237685,0.9442989551609791,0.036591746735261416,8.023805311010067,3.7475201238188633,-86.77087940537338
1761285194.2326593,-19.368626714665556,-0.4455789324515494,0.9261285557132527,0.026559819171983717,9.742413111251455,-2.581133414392442,-85.31984008001892
1761285194.2426343,-20.22922443905273,-0.4250098363103132,0.9001924782511886,0.015968811303675248,10.819333723812575,-10.293432642040298,-82.75907465105313
1761285194.252664,-21.036413024880137,-0.38681607038322185,0.8680502811495728,0.006199677947378753,11.362584692326067,-19.0046179729227,-78.98886393933935
1761285194.262865,-21.77248103081101,-0.3331188840092466,0.8317581797563818,-0.001352350042702255,11.562650372529948,-28.221331549716595,-73.93564163318679
1761285194.2726514,-22.420701671659216,-0.26788398077007614,0.7937331672170952,-0.0055148172142227316,11.678211149646629,-37.385636077706216,-67.56591072676346
1761285194.2826586,-22.966446151644018,-0.1966343546064277,0.7565835475925126,-0.005579226579780832,12.012615332193768,-45.92566553136684,-59.90202406659054
1761285194.2926686,-23.398286585333498,-0.12596607504537186,0.7229136248483713,-0.0015104448872429758,12.882662499294607,-53.30749196179034,-51.03800610369981
1761285194.302652,-23.708994575424747,-0.06289379347477243,0.6951145002913779,0.005912310586343392,14.582352674519194,-59.082559524802114,-41.15269459289197
1761285194.3126411,-23.896330354985157,-0.014084161840324176,0.6751581388254627,0.01505720779706394,17.345303435294955,-62.925180226341766,-30.516942655387645
1761285194.3226662,-23.963521598134097,0.014928668030114407,0.6644174825427512,0.023530478059806438,21.31037297030436,-64.65536988760908,-19.491709771513296
1761285194.3326461,-23.919352859895724,0.020427218408956116,0.6635383419943607,0.028407370464496064,26.495355297738467,-64.24406886939863,-8.514617182046194
1761285194.342691,-23.77782120651579,0.0009783852715599636,0.672386488062714,0.026595206067499755,32.78315993002607,-61.80059660285653,1.9261650307373646
1761285194.352728,-23.55735304520893,-0.04240030051624128,0.6900866740727886,0.015299119950132823,39.92359799327812,-57.54557877083046,11.330101826995836
1761285194.3626788,-23.27961542375682,-0.10640847190930422,0.7151621899108438,-0.007461712233214714,47.5519769992974,-51.77569012951221,19.23190225749335
1761285194.3726919,-22.967989614635925,-0.18593676935881892,0.7457746380720736,-0.04236467346568994,55.2234389081054,-44.82839928345153,25.253779249079518
1761285194.3826709,-22.645805898452924,-0.27476301372284,0.7800505841279076,-0.08842129785393364,62.45957034594501,-37.05473446464282,29.15574322854415
1761285194.3926516,-22.33446706788067,-0.3663465141354297,0.816460918609738,-0.14285081051586548,68.80153445393121,-28.805650176591456,30.876216524945065
1761285194.4026935,-22.051613187823456,-0.45457592793438745,0.8541912683338473,-0.2012791862762167,73.86228371143935,-20.433294299062737,30.55536025502481
1761285194.4126148,-21.809497753399157,-0.5343277780951992,0.8934148432545579,-0.25829522876178385,77.36980538401161,-12.303463065521067,28.535050359843183
1761285194.4226413,-21.61375073820408,-0.6017220892477676,0.9353631852973886,-0.3082975959389679,79.19408125703423,-4.811190617415789,25.332350244094243
1761285194.4326372,-21.46269240702386,-0.6540271681248151,0.9820963138410804,-0.34644980803207853,79.35253881592162,1.6110493747217474,21.58729291483464
1761285194.4426713,-21.347328237735073,-0.6892646842681431,1.0359157182347547,-0.36947929425235665,77.99224010138217,6.50287905013091,17.99028336365682
1761285194.4526472,-21.2520948266789,-0.7056715307771646,1.0984585914272529,-0.376089343066548,75.35182069541474,9.410455389406366,15.19869800209045
1761285194.4633937,-21.156337983100286,-0.7012443144735949,1.169657121963495,-0.366924271055198,71.71152463591935,9.94689843597908,13.75533327731095
1761285194.472893,-21.036397784940505,-0.6735967322790468,1.2468891821127157,-0.34423551697363175,67.34372845014911,7.871725311485835,14.022223444681757
1761285194.4826875,-20.868076449436643,-0.6202943833676904,1.3246950298723428,-0.31147837130219364,62.476782201713824,3.174163464876827,16.141262010651765
1761285194.4926596,-20.629202128973034,-0.5397001852448826,1.3953221893423124,-0.2729760740857198,57.28072353443386,-3.860492682382457,20.028065930372133
1761285194.5026789,-20.301989172303053,-0.4321765565105489,1.4500973615651755,-0.23362822727234037,51.87576292261592,-12.623291036304492,25.398715211115707
1761285194.5126543,-19.87492743031545,-0.3012875218175892,1.48130129272697,-0.19855253856772762,46.356519779465366,-22.209452179154088,31.82222603901159
1761285194.5226762,-19.343995694365677,-0.15451394570571092,1.483983150186099,-0.17258108492369786,40.81999361402259,-31.50717174794462,38.786846496925264
1761285194.53264,-18.713075218552184,-0.003045910121248162,1.4571277691629128,-0.1596376811918758,35.385037571921764,-39.33817702617259,45.76697265645272
1761285194.542696,-17.993530589742015,0.13951109641620768,1.403817562017922,-0.16212297422404734,30.195595910495495,-44.6264900648819,52.27993063133373
1761285194.5529637,-17.20302214797584,0.25927904394574147,1.3304047132511552,-0.18047479703287575,25.40711397320043,-46.56258317228348,57.926696207839484
1761285194.562719,-16.363710839981398,0.34452855892069145,1.2450417859951732,-0.21304204275885869,21.162086650627845,-44.72936710527399,62.41552445998332
1761285194.5726657,-15.500098405632512,0.3877091617629673,1.1560666638881765,-0.25632983559551276,17.564043072738777,-39.164916205500504,65.57067540263677
1761285194.5830388,-14.636790650469543,0.3865864350329023,1.070677157472327,-0.3055731858419688,14.658735467677799,-30.351682789137666,67.32958851277512
1761285194.5926912,-13.796462671603106,0.3443057843322034,0.9941394739262666,-0.3555083946797327,12.42801954184524,-19.138085228193656,67.73165118338659
1761285194.602673,-12.998245063037388,0.2685159378798016,0.9295629876906834,-0.4011641783562,10.797539658444125,-6.61101491106146,66.90102392853419
1761285194.6126504,-12.256659867498747,0.16987749075075148,0.878121542846436,-0.4385032277390128,9.655265503814498,6.0555712712294945,65.02548433293849
1761285194.6226482,-11.581139751514495,0.06033063334653353,0.839534745636131,-0.46480478104430667,8.875149772446356,17.750367980978424,62.33320121949685
1761285194.6326518,-10.976082208724728,-0.048555172333839075,0.8126256204386719,-0.47876438002685506,8.33928715041563,27.551318170586224,59.06961659351662
1761285194.6426713,-10.441331115594833,-0.14692021369865138,0.79581460081755,-0.4803644475628382,7.953126149976053,34.81431141038784,55.47679023302852
1761285194.6526742,-9.972942792764998,-0.22750928698845857,0.7874702823706325,-0.47061259302016606,7.651106764789553,39.21663114646485,51.77727153699467
1761285194.662682,-9.564083543821356,-0.2860756822803137,0.7860976147178403,-0.4512451618422559,7.3935087531095816,40.75494657661617,48.16371964253909
1761285194.672665,-9.205920991904586,-0.32132458840954325,0.7903907331939601,-0.4244613641566134,7.157938059372202,39.703819107180806,44.7943265416802
1761285194.6826684,-8.888409651063048,-0.33448993344729183,0.7992020961685357,-0.3927100042190323,6.9298045014283876,36.54534990353946,41.79298463922518
1761285194.692757,-8.600922525737415,-0.3286791344540449,0.811481826158611,-0.358518219330917,6.695322710867297,31.883311508381688,39.252410082917905
1761285194.702656,-8.332730277443655,-0.3081287882746006,0.8262277190657217,-0.32434036974891123,6.438746516612422,26.355623339019566,37.238245580797546
1761285194.7126944,-8.073364209302325,-0.2774937643379884,0.8424662817901226,-0.2924117721545657,6.143663966704059,20.557395198724933,35.79248295112487
1761285194.7226806,-7.8129132878741245,-0.24125543130884994,0.8592659927049279,-0.26460585711786133,5.79688007637996,14.983440158652373,34.9352007659291
1761285194.7327874,-7.542301110938546,-0.2032956549131123,0.8757703181798716,-0.24230598452831362,5.392907507306676,9.994918065498146,34.66440185241123
1761285194.7426636,-7.253572742801048,-0.16664948288250492,0.891232347124379,-0.22631022538714396,4.9372609558666705,5.810431848831595,34.954467517164865
1761285194.7528965,-6.9402003507171095,-0.13342333116750524,0.9050362224428314,-0.21678709883608885,4.447355451952033,2.5181501461414904,35.75427009872873
1761285194.7626736,-6.59739487741355,-0.10484674374525792,0.9167003473322918,-0.21329325390250892,3.9505810381392257,0.10287664001851964,36.986211140525846
1761285194.7726684,-6.222390434253453,-0.08141374317421293,0.9258673792951191,-0.21485380723685504,3.4798618530482814,-1.519269273932485,38.54734976205766
1761285194.782643,-5.814651286170764,-0.06306528552940119,0.9322909221277406,-0.22009625668812305,3.067569913503679,-2.465689277215857,40.313382598456464
1761285194.7926786,-5.375944719351995,-0.049369833790737915,0.9358280169534618,-0.22742192868391775,2.7389843998416374,-2.857333720776701,42.145609483887704
1761285194.8026683,-4.910235683391108,-0.0396756603558544,0.9364427080708456,-0.2351960593176922,2.506569352813844,-2.7973851636733755,43.90029459770245
1761285194.8126574,-4.423394599365818,-0.03323125991843151,0.9342215649997243,-0.24193858870961032,2.366239992134484,-2.359778579414451,45.4391907499464
1761285194.8230798,-3.9227562405093264,-0.02928542692649634,0.929398374141444,-0.24649968323487945,2.296545896850417,-1.5869848301356986,46.63962953412096
1761285194.8326733,-3.4165983005503375,-0.027172712986624974,0.9223831589432209,-0.24820366747533668,2.26130720711185,-0.4954867361333822,47.40262319083941
1761285194.8427007,-2.913603100539067,-0.02636914595677095,0.9137904383330839,-0.2469432458881108,2.2156479485163243,0.9131237476660269,47.657876759065005
1761285194.852668,-2.422333980372151,-0.026493062511418704,0.9044619135452205,-0.24320750862792131,2.1145833681858206,2.6379537598995264,47.36532432381004
1761285194.8626828,-1.9507309897082745,-0.027244524644327337,0.895477614868017,-0.23803591020557208,1.9225040483429563,4.664603373634073,46.513532036186454
1761285194.8727021,-1.5056335446430138,-0.028313405939198268,0.8881460015093485,-0.23290392224223794,1.6213846876215985,6.954323259707176,45.11582471613817
1761285194.882853,-1.0923688242093281,-0.02931269892049414,0.8839587544013638,-0.22955700837050583,1.2156280636251997,9.439429737067371,43.20519860324558
1761285194.8926802,-0.7144785452951523,-0.02978876943828348,0.8844937159421798,-0.22981140586238008,0.7321778813165757,12.026404595989698,40.82902102346933
1761285194.9026718,-0.3736635613779172,-0.02932404072046802,0.8912546363448032,-0.23533337887596031,0.21563781828820122,14.6060077850576,38.04428142837318
1761285194.9127147,-0.06999086366625588,-0.027698762923747577,0.9054518724646605,-0.24740113293710733,-0.2807730142297738,17.067741301078286,34.91382927123498
1761285194.9227011,0.1976591997626424,-0.02504215295026228,0.9277512933909117,-0.2666552095598179,-0.7068107755461038,19.314910227044514,31.50366549156289
1761285194.9328525,0.43099818575313975,-0.02189669919357673,0.9580411547539758,-0.29285794630687767,-1.0273342166034214,21.276770772374586,27.880987869712875
1761285194.9427476,0.6317235593493817,-0.019146124065511777,0.9952779434387762,-0.3247048886118562,-1.232893858031742,22.91565653836316,24.112388112530358
1761285194.9527063,0.8010356213577662,-0.0178072383515233,1.0374650390782623,-0.359747958744621,-1.346872070320772,24.228824340747256,20.261442535162818
1761285194.9631104,0.9393643420837541,-0.018739057068995247,1.0817935752913515,-0.3944887222304126,-1.4276223119855187,25.246246268079762,16.38500661818652
1761285194.97272,1.04631978127009,-0.022358018852547196,1.1249404359197899,-0.42467479340330644,-1.564646358622598,26.026196263008345,12.527865073047145
1761285194.98267,1.1208091834323093,-0.02845336391253613,1.163483131039557,-0.4457886774247561,-1.868714975991481,26.650196862990125,8.715981069470917
1761285194.9926922,1.1612211962589174,-0.036170339560938604,1.194365124633386,-0.4536694633943088,-2.456943333759196,27.218007985094488,4.949314002313367
1761285195.003108,1.165574970429506,-0.04417802674540904,1.215334908102863,-0.4451685250670165,-3.4349874440081254,27.842296486168724,1.1958596772916381
1761285195.0127,1.131566077444905,-0.05097933694287369,1.225286824611707,-0.41872175093298375,-4.879412815827372,28.641850287060162,-2.6109853759289634
1761285195.0229735,1.056497177846481,-0.05527648073014907,1.2244453158965798,-0.37472805939646375,-6.823584852509465,29.732028922622067,-6.569643729012943
1761285195.0327175,0.9371380087602316,-0.05629361030303592,1.2143533754537283,-0.3156557427453494,-9.249968378851225,31.21174601744593,-10.800747451397617
1761285195.042739,0.769597234247337,-0.05397921621481379,1.1976519285969818,-0.24584595850086347,-12.090539557821545,33.14756640408038,-15.43067433404572
1761285195.0527549,0.5492976186286923,-0.049049664141704516,1.1776718698536977,-0.17103324055959565,-15.23537253419497,35.55705049738053,-20.57001565557847
1761285195.0627258,0.2711264036121451,-0.04287539722384209,1.1579013030225436,-0.09764548885007263,-18.54780525148501,38.394668210213595,-26.29042588788077
1761285195.0732434,-0.07020710936762758,-0.03724221308184269,1.1414245156274025,-0.03197734185589958,-21.88335683225718,41.54392633505006,-32.604250712876734
1761285195.083165,-0.47962425951098275,-0.03403838046895785,1.130440203956512,0.020647254769399128,-25.10900643786531,44.81865973844842,-39.45124000800807
1761285195.0931718,-0.9610062790193842,-0.034925521034736944,1.1259477439959351,0.05659542211143935,-28.119552943122095,47.97491447392075,-46.6955535118754
1761285195.1028306,-1.5165045863754478,-0.04104939107415964,1.1276501361120574,0.07440445011923359,-30.848426452969264,50.73285803889085,-54.13444583341227
1761285195.1127877,-2.145955364525767,-0.052837553081130764,1.1340760108406867,0.0749243463899685,-33.2713545917034,52.806150450526665,-61.51788424100622
1761285195.1227186,-2.8465154940981248,-0.06991602302062751,1.1428830311911249,0.06108789319765415,-35.402543878833036,53.93473386926044,-68.57634828029668
1761285195.1333942,-3.612605989456656,-0.09115888079282142,1.1512772675412826,0.037351853462540205,-37.28436103612425,53.9164448506931,-75.05256502628207
1761285195.1435175,-4.436199403411566,-0.1148664564500938,1.1564695056303325,0.008927012815100527,-38.97267321467453,52.633203569381465,-80.73218078772562
1761285195.1532626,-5.30742978276289,-0.13904968006109572,1.1560896748125788,-0.01904374240529186,-40.520752482315714,50.0683911008971,-85.4684755067283
1761285195.1629987,-6.215449882288531,-0.16177885615553184,1.1484939309266113,-0.04220398047626564,-41.964749288452,46.312997443083745,-89.19722264977456
1761285195.1730354,-7.149419681290918,-0.18153583542568344,1.1329250822700418,-0.05748639087766768,-43.31316518110098,41.559143799058745,-91.9395349897009
1761285195.182763,-8.099486606321358,-0.19749674153095476,1.1095231496521345,-0.06334878512774539,-44.541704777303266,36.080874626598224,-93.79264848450805
1761285195.1942143,-9.057612777523872,-0.20967745435992033,1.0792180349009326,-0.05975248387035374,-45.59370294347051,30.20386745714835,-94.91064645661994
1761285195.2036855,-10.018121369240424,-0.21890063894327658,1.043554392731424,-0.04793749285287158,-46.3853474556717,24.267730081388866,-95.47873960814316
1761285195.213211,-10.97787629555297,-0.22658650954671358,1.0044932875924737,-0.030073720940167206,-46.81435714006561,18.58621955056382,-95.6856091508914
1761285195.2226856,-11.936074081277825,-0.23441560637423806,0.9642167006416188,-0.008869083032606617,-46.77065247841439,13.411358038662792,-95.69833340322549
1761285195.2327259,-12.893700090966583,-0.2439437734113168,0.9249445108584561,0.012802754569282765,-46.147757840892766,8.906798484167812,-95.64358243217426
1761285195.2431107,-13.852761434014136,-0.2562561078333668,0.8887649150841819,0.03221912110948632,-44.85403701060578,5.13415063508305,-95.59729383139823
1761285195.2530463,-14.815437372779025,-0.2717274380656453,0.8574765749694273,0.047057463705605776,-42.823210700116995,2.0537576092915177,-95.58326464584681
1761285195.26269,-15.783280908916332,-0.2899228761595905,0.832442021718732,0.05557828983094663,-40.02377380155143,-0.4609440985270928,-95.57938592276378
1761285195.2726984,-16.756572949253716,-0.3096392600952335,0.8144564514169654,0.05674675469949603,-36.466838644537134,-2.598434433385608,-95.52896028147283
1761285195.282695,-17.73388757371514,-0.3290658859436039,0.8036433162539018,0.05029687279687914,-32.21165614445359,-4.577915333305568,-95.35391697997348
1761285195.2927701,-18.71188303540363,-0.34602892549806247,0.7993953553873315,0.03674308443069363,-27.367822166984716,-6.616986445444247,-94.96683324535132
1761285195.3027287,-19.685293836278507,-0.35827501562020736,0.80038176963095,0.017345657619624606,-22.09315913328697,-8.90304759933663,-94.27937994849623
1761285195.312755,-20.64707044338771,-0.36374744629816946,0.8046353486612768,-0.0059655270942033725,-16.58653304282477,-11.572317177769898,-93.20592466996396
1761285195.322728,-21.588600498832275,-0.3608157113122422,0.8097203188061425,-0.030711302504228065,-11.075365568357075,-14.69886991391449,-91.6623043625635
1761285195.332692,-22.499951217147842,-0.34843596343153943,0.8129697319654111,-0.054037808143221046,-5.798231288550499,-18.294365676041313,-89.56099930737584
1761285195.342734,-23.370095511290245,-0.32624288217035163,0.8117734654042574,-0.07295592113235203,-0.9836025104153246,-22.31741476544183,-86.80489463056985
1761285195.3531299,-24.187117638863885,-0.29459290086269746,0.8038913293794289,-0.08464354580312711,3.173524318130456,-26.690024695183308,-83.28231744463965
1761285195.3627052,-24.938426450941616,-0.25458242086150246,0.7877583732521339,-0.08678645397850195,6.534743237449836,-31.3174903828297,-78.86597716614148
1761285195.3727295,-25.61102455288001,-0.20805006838655493,0.7627438890033325,-0.07791325051867379,9.038230930028297,-36.10757698438604,-73.41786036256917
1761285195.3826962,-26.19188450860546,-0.15754963352386064,0.7293249723426541,-0.05767299936619474,10.712642202288462,-40.98496877021798,-66.80121901967145
1761285195.392744,-26.6684690642521,-0.10626340465274728,0.6891408805029094,-0.027010833011356483,11.682310809716617,-45.89767182224328,-58.89969932886636
1761285195.4027176,-27.029404570329422,-0.05782263217863964,0.644906889681741,0.011789890193974913,12.161951947212039,-50.81327117756473,-49.64240276532477
1761285195.4127412,-27.26528142462997,-0.016017457624148624,0.6001870312777858,0.055216605223250614,12.4401618889049,-55.7045866017498,-39.03224389215494
1761285195.4227684,-27.369521998096772,0.015586796550630935,0.5590518674650691,0.09879069479545648,12.852339918189001,-60.52625414254937,-27.173564423675764
1761285195.4327316,-27.33923433830364,0.03406775055423557,0.5256729965276018,0.1374696961809225,13.745119212596613,-65.18589071537897,-14.293984795479245
1761285195.4426978,-27.17596120071181,0.037512040693873004,0.5039198266722182,0.16615496728318646,15.435783575110047,-69.51547458310118,-0.7552905818118226
1761285195.4527245,-26.886232986573933,0.025248289546824815,0.49701906764943216,0.1802579442463699,18.171165716161127,-73.2500088357293,12.951102600536556
1761285195.4627132,-26.481833910660598,-0.002099583866873516,0.5073149723696501,0.17627126883203575,22.090909609021082,-76.02098533200326,26.22693154875271
1761285195.4726956,-25.979694333601405,-0.04274060570821079,0.5361381617598925,0.15228628320300655,27.19969371974877,-77.37120558321551,38.40854450325151
1761285195.482676,-25.40133633265161,-0.09399012587306205,0.5837638257291461,0.10839243018017868,33.35225342631798,-76.7948579010709,48.82455067167598
1761285195.492866,-24.77183161881863,-0.15262580100823392,0.6494236929310264,0.04688870016777866,40.254045030911314,-73.80241539980797,56.86417640427753
1761285195.5027304,-24.118282639465324,-0.21524935519106472,0.7313344119196359,-0.027763261232965335,47.47921336041067,-68.00439975565386,62.04829090994607
1761285195.5127118,-23.467904041999816,-0.2785749568339617,0.826718572272255,-0.10930438514835226,54.50601961875928,-59.202408571234216,64.09349692195777
1761285195.5227225,-22.845851994555385,-0.3395779914072059,0.931819049107789,-0.19039001032072655,60.7678761290226,-47.47146042576254,62.95959198755566
1761285195.5327113,-22.27301065767189,-0.39547205760884174,1.041934037230218,-0.26361131231800994,65.71558877285659,-33.21597870442605,58.87233078030453
1761285195.5427558,-21.763987646126274,-0.4435401471289073,1.1515202728877556,-0.3226869832458714,68.88363881871857,-17.183364934258808,52.316583022256296
1761285195.5527794,-21.325585167959492,-0.4809172334596439,1.2544189668173564,-0.36356563626943494,69.95110610281114,-0.4242407494774425,43.99914382046617
1761285195.562755,-20.95599301931829,-0.5044751372581335,1.3442493082463776,-0.38510603715641495,68.78718337171556,15.803274495578359,34.784830104942365
1761285195.5727491,-20.64488717521073,-0.5109585798485938,1.4149865631877163,-0.3890792483716821,65.47297496438397,30.177279664841013,25.61325380616827
1761285195.5827336,-20.37451154080616,-0.4974428611710533,1.4616925049547416,-0.3794944652182102,60.29537234262182,41.48457450651493,17.406139696729028
1761285195.5927532,-20.121679046149985,-0.46204443169073334,1.481292558610398,-0.3615312962214218,53.71399357540932,48.793488207678436,10.975895970897108
1761285195.6030598,-19.860474158757796,-0.4046754984979595,1.4732135395643022,-0.34044759182039014,46.30653670440471,51.59473752569525,6.945424656663462
1761285195.613238,-19.56530537879396,-0.32757347055698044,1.439659134167135,-0.3207053522496708,38.70028606182583,49.88178568386061,5.6874872977469195
1761285195.6227243,-19.213878220715166,-0.23539828627705145,1.3853631707952334,-0.3053973350542956,31.49841377294111,44.153758478957826,7.290078802190699
1761285195.6328757,-18.789664176713,-0.13484062659872081,1.3168237010883668,-0.2959927401134734,25.21028311410587,35.34056909394644,11.552358024475176
1761285195.6427007,-18.283540027204907,-0.03383947487345433,1.2412082132641142,-0.2924145363701827,20.19539093134819,24.666452389633065,18.013098396312202
1761285195.6527922,-17.694442089416665,0.0593999279060003,1.165231232420799,-0.29342436702299707,16.629840474352378,13.47934197494744,26.009705353270988
1761285195.6627226,-17.029061890577463,0.13738760879715567,1.0942866483343043,-0.297207639852172,14.50115869409015,3.0765741978872416,34.760857982402676
1761285195.6726809,-16.300741809565235,0.19417858316662265,1.0319937302298945,-0.30197988269322906,13.631901852523931,-5.446875389552247,43.46113490096948
1761285195.6831536,-15.527792586900388,0.2259619478665614,0.9801654885729656,-0.3064339634675222,13.72636316730733,-11.309667905289245,51.3733900825698
1761285195.6927013,-14.731471277543704,0.23136902021763872,0.9390989563248282,-0.3099199866083486,14.429924243521821,-14.105836059115187,57.905318391225556
1761285195.7032182,-13.933853143110358,0.21149498119499865,0.9080382244179018,-0.31235367773178385,15.388672359656214,-13.815664317247045,62.660373075047666
1761285195.7132213,-13.155811690735923,0.16965841620474542,0.8856600310330488,-0.31393951407136944,16.29818674592261,-10.770429757050891,65.45860706543802
1761285195.7227237,-12.415286967683656,0.11094731099926747,0.8704667825067482,-0.31484538790656513,16.934259988815818,-5.580051105713554,66.3284877234693
1761285195.7326877,-11.725975618742096,0.04161416300574976,0.8610327104831417,-0.3149644696405983,17.16351741409278,0.9644489226880089,65.47505848904017
1761285195.7427127,-11.096522460535345,-0.03160860357343264,0.8561127490805805,-0.31384883838405786,16.93686401212896,8.000149758356569,63.232356766345255
1761285195.7532036,-10.530238844225401,-0.10219450776895661,0.8546632012799067,-0.31082076393616515,16.27198168681989,14.699231087532535,60.00869443170348
1761285195.7627983,-10.025324975476673,-0.16443365286473768,0.8558271470952242,-0.3051978754291383,15.231920670658942,20.361054771480482,56.232659886897814
1761285195.772738,-9.575536316157113,-0.21391003375977985,0.858917704468588,-0.2965364488798159,13.905356726105644,24.479443785926716,52.30607567955198
1761285195.782735,-9.17120698548049,-0.24781402784322307,0.8634090974253941,-0.2848080632165675,12.391364085516969,26.779331228790195,48.568136743826614
1761285195.7927349,-8.800521152626084,-0.26507926682754923,0.8689307016608928,-0.27046412915147117,10.788939579589035,27.221455298036236,45.27288364856817
1761285195.8027635,-8.45090488194566,-0.2663448542395355,0.875253405536831,-0.2543878228721711,9.189995154096003,25.978003367707093,42.58022604529911
1761285195.8127367,-8.110398865060498,-0.25375399799995835,0.8822581493655575,-0.23776506958931393,7.6743337631427915,23.38556905546005,40.55907764986673
1761285195.824268,-7.768872718526702,-0.23061397869005804,0.8898822719781638,-0.2219174052336571,6.3057707677722785,19.884098907679245,39.19993940140765
1761285195.832717,-7.418958175223496,-0.20095772766686065,0.8980489952146354,-0.20813325491257012,5.129352803684873,15.95139993567199,38.43357051135735
1761285195.8428214,-7.056610637978673,-0.16905822252452674,0.906595342218106,-0.19752018202999902,4.170064888058164,12.042225382085872,38.15224606626806
1761285195.853961,-6.681251203345428,-0.1389501930387864,0.915219018236293,-0.1908883303002255,3.4333840474326554,8.539191499604698,38.23046639588463
1761285195.86279,-6.295489247244701,-0.11401012531273072,0.9234619993653652,-0.18866905210887835,2.9076760585710657,5.720213674987299,38.54272638977404
1761285195.8727775,-5.904474416971149,-0.09663706724496793,0.930738470609161,-0.19087113785230117,2.5679782662379584,3.7442626121191793,38.97687790057409
1761285195.8828232,-5.514970705932305,-0.08806427113476976,0.936401639950101,-0.1970762179421665,2.380387224281151,2.6544923387565986,39.44252421238545
1761285195.892832,-5.134278666379218,-0.08831656359019047,0.9398331243736985,-0.20647335078479512,2.3062134406362658,2.3955588047643475,39.87461926683484
1761285195.9027765,-4.769151776177024,-0.09631273136034348,0.940533743126353,-0.21793190480158295,2.30530564484613,2.840462771335583,40.23292338096209
1761285195.9129212,-4.424857511291286,-0.11009734847272057,0.9381967343730938,-0.23011195023082764,2.3384091822535775,3.8215739052520026,40.49818687115609
1761285195.9227312,-4.104517323823693,-0.12717016582538987,0.9327525264519286,-0.2416097602792694,2.368931681620501,5.160560815011784,40.6659782564145
1761285195.9327254,-3.8088144949107496,-0.14486152992145662,0.9243857275209307,-0.2511292758670898,2.3647947898004955,6.692696174199533,40.73909190450584
1761285195.9427385,-3.536085783607291,-0.16068656933271516,0.9135357745590158,-0.25765909532095427,2.300947902562819,8.282427964212346,40.71956659588294
1761285195.9528787,-3.282732762044345,-0.1726141995059665,0.9008970906515765,-0.2606252207848668,2.1625975894208858,9.829151082511066,40.60148618601388
1761285195.962746,-3.043834376214275,-0.17921600465080426,0.8874290421492333,-0.2599904317753931,1.9485016020478636,11.264426219603912,40.36576375419414
1761285195.9727225,-2.8138353998301224,-0.17970262966663317,0.8743725502781631,-0.2562833871459556,1.673167577044079,12.543801832970816,39.9778930782181
1761285195.9829254,-2.58722121053646,-0.17388914967680907,0.8632553368532715,-0.2505569225027516,1.3667777846726377,13.63722347688073,39.3891787036463
1761285195.9927423,-2.359139632945421,-0.16213883996206652,0.8558579865975128,-0.24428559291607602,1.0721448707442338,14.521485049417509,38.54135709479229
1761285196.0027294,-2.125962411745554,-0.14531452200235573,0.8541128233974402,-0.2392137529494015,0.8387334033231557,15.176589196562912,37.373965008979454
1761285196.0127087,-1.8857747511198362,-0.12473210806348453,0.8599194472831553,-0.23716160473733985,0.7144459889708022,15.585982820776056,35.833405431860974
1761285196.0227096,-1.6387490132656914,-0.10208388567263242,0.874883505872397,-0.23979447440468163,0.736303362749534,15.739233669254084,33.882423695279726
1761285196.0327098,-1.3873242177763667,-0.07929528842751367,0.9000125861377745,-0.2483648695631236,0.9213505270859426,15.63529634172968,31.50859509956462
1761285196.042788,-1.1361046364660494,-0.05830007480764965,0.9354258586397948,-0.26344861608969167,1.2591641140182852,15.285040970788568,28.73039584587555
1761285196.0530286,-0.8914242780792132,-0.04075439036834402,0.9801442998145657,-0.28471212639956534,1.7072486582371158,14.712735022217373,25.599489786782904
1761285196.0627599,-0.6605959675292844,-0.027744287088292467,1.032020712951332,-0.31076092521516396,2.1903690066548305,13.9570835646655,22.19809288142708
1761285196.072738,-0.4509533793868276,-0.01956023743290777,1.0878433264363754,-0.33912291814158646,2.604449618422295,13.072773592123855,18.630776374954415
1761285196.0827081,-0.2688715626935914,-0.015608596085191937,1.1436123869837074,-0.36640818012969106,2.825105991006308,12.133065098134107,15.01089106185781
1761285196.0927308,-0.11898574153170251,-0.014502492161674737,1.1949591644995226,-0.3886582343619671,2.7202391941572763,11.233007576198398,11.44288869243807
1761285196.1027098,-0.0037997947374265695,-0.014328682621606078,1.2376571991670404,-0.40185618390894706,2.1655043298105627,10.491780913012084,8.00299397647612
1761285196.112709,0.07621227907650907,-0.013037344564994526,1.2681625698775059,-0.40252627366113425,1.0609008359581908,10.05199520010855,4.721629965640413
1761285196.1227145,0.12202831287685748,-0.008868651327049091,1.2841087293519828,-0.38832149932948656,-0.653731021777475,10.07392772966199,1.5713813123043274
1761285196.132719,0.13515212391124415,-0.0007253310394513821,1.2846742233015216,-0.35848987581437475,-2.9867679847931417,10.723691306052421,-1.5361556349570133
1761285196.1426997,0.11654402239535783,0.011579103008313583,1.2707464530284924,-0.3141254177232275,-5.88871610800667,12.155896086580047,-4.742605890885723
1761285196.1527827,0.065638151466756,0.02723396009240278,1.2448293332169102,-0.25814459270719214,-9.253585051017026,14.492916603389236,-8.224123986641057
1761285196.1627283,-0.020344180154478687,0.04451187517296886,1.210688655810658,-0.19497566798052485,-12.928158664651324,17.803865387650124,-12.164066497771877
1761285196.172709,-0.1466361671481395,0.06099656034514981,1.1727873059706655,-0.12999842387766072,-16.72818650989992,22.086570816486525,-16.721313625147022
1761285196.1827269,-0.3206590474519168,0.07392188307606239,1.1356144620173878,-0.06881722614203525,-20.459225155489253,27.255397261157835,-21.999677283537867
1761285196.1927977,-0.551280101070746,0.08057474434253906,1.1030381748128963,-0.01648432467876526,-23.938985803207032,33.13694206333123,-28.023835131991813
1761285196.2027423,-0.8477155562663057,0.07870512120534966,1.0777995591738327,0.023195292272526584,-27.01775300041001,39.474739323160186,-34.726107884403056
1761285196.2127447,-1.2182612207185515,0.06688272102167875,1.0612262080363253,0.04815787740402022,-29.593748213156477,45.94319665676252,-41.94647562831323
1761285196.2227302,-1.6690584181976589,0.0447445610322666,1.0531905765913092,0.05829181933204896,-31.621161913225578,52.170098503638435,-49.44597196228977
1761285196.2327175,-2.2030889162680456,0.013091306575119983,1.0522934760693954,0.05533765762097974,-33.10981754456251,57.766103366610956,-56.9314418238875
1761285196.2427218,-2.819548733228672,-0.026190001863627965,1.056221168760978,0.04250639776544216,-34.11682014740137,62.35874851890199,-64.08795870461256
1761285196.252744,-3.5136888846207666,-0.07037487937966501,1.0622055175039875,0.02389361155953943,-34.73182256759227,65.62763341434346,-70.6142183558234
1761285196.2627192,-4.277141794239592,-0.11629322040851095,1.0675075078132772,0.0037985283522415873,-35.058496150083876,67.33680004033877,-76.25601718032577
1761285196.272753,-5.098684083419361,-0.1608093374759854,1.0698458685343184,-0.013932125786959388,-35.19527400618993,67.35999941638633,-80.83336247403392
1761285196.2827344,-5.965327290557061,-0.20131439300263682,1.0677062825196904,-0.026427342791893196,-35.218389283107854,65.69472052817578,-84.25769817384521
1761285196.2927172,-6.863584116645647,-0.23614343546612493,1.0604917199461283,-0.03210476822064814,-35.16970152477118,62.461796152518794,-86.53708730817227
1761285196.3027248,-7.780734598004762,-0.26483193360588486,1.0485054431832574,-0.030739911691721026,-35.05091730610042,57.88921455187964,-87.76890130248081
1761285196.312739,-8.705918407051643,-0.2881488077317375,1.0327878628283118,-0.023305707361441056,-34.82474924869948,52.28127563148562,-88.12143375192215
1761285196.322718,-9.630907442241998,-0.3078844897805631,1.0148509380565691,-0.011637073357633388,-34.4225111897434,45.976916975230885,-87.80755448631432
1761285196.3327312,-10.550463647935828,-0.3264252250957469,0.9963666753901594,0.0019993292591949964,-33.756764203345796,39.303265687695614,-87.05471012312287
1761285196.3427174,-11.46225273473395,-0.34619351650307995,0.9788685705170261,0.015342560349372314,-32.736993279765905,32.531747106789716,-86.07601983899985
1761285196.3527489,-12.366354022958733,-0.36906473884149693,0.9635160638739735,0.026504114036192263,-31.28595087708793,25.844106389469122,-85.04680355608848
1761285196.3627992,-13.26446755002371,-0.39587468514427276,0.9509537067812522,0.03420859876536477,-29.354281516857345,19.314386768445026,-84.08967005619951
1761285196.3728096,-14.158960427736657,-0.4261135089415445,0.9412736625085014,0.03788343483502216,-26.93135321689953,12.9104196605171,-83.26952450732773
1761285196.3828008,-15.051907743746058,-0.4578642496812276,0.9340690108931898,0.03760443910225758,-24.05082250460083,6.515094980085378,-82.59790662194177
1761285196.3927338,-15.944268292116677,-0.48799747545078687,0.9285510951055869,0.03393170108865028,-20.790237785749046,-0.03587826895110287,-82.04436001843392
1761285196.4027624,-16.835298238182162,-0.512586887450142,0.9236986534646853,0.027689201271627353,-17.264809644821035,-6.906176437548594,-81.55142302680476
1761285196.4127576,-17.722256643726574,-0.527471829778527,0.9184090209939305,0.01974904789121202,-13.616242343453402,-14.2095423062878,-81.049548525796
1761285196.4227433,-18.600406294809538,-0.5288687955722868,0.911630410141291,0.01087347350739035,-9.998133295178043,-21.96787120864786,-80.46883337340839
1761285196.4327335,-19.463270909304345,-0.5139330032073145,0.9024661961728364,0.0016437043165257077,-6.559802954959598,-30.08428213178588,-79.74567701641952
1761285196.4428844,-20.30308242480843,-0.4811947765365678,0.8902524036431103,-0.0075277477399356245,-3.4304756773715175,-38.33597812320674,-78.82402955144948
1761285196.4527545,-21.11134175730549,-0.43083177081594615,0.874613622324947,-0.01633054512339702,-0.7055701986434593,-46.38820504690837,-77.65228770244053
1761285196.462785,-21.879419410277027,-0.3647671952607683,0.8554999634504791,-0.024473244394373636,1.563429969907775,-53.827242218051694,-76.17777678249516
1761285196.472872,-22.599131585031937,-0.2865956685876668,0.8332021716833672,-0.031614308057234204,3.37447021108614,-60.20772791478893,-74.34097196931211
1761285196.482715,-23.263237289516184,-0.20133878678067849,0.8083378982985198,-0.03732645136636512,4.775277168306783,-65.10792914453246,-72.0712990898006
1761285196.492806,-23.865811036232458,-0.11503617694959513,0.781802002670732,-0.04110128853685485,5.858660601287932,-68.18570596000772,-69.28580204652035
1761285196.5027347,-24.40245704793344,-0.03419395406246307,0.7546781508120546,-0.04238942704947828,6.753371135995853,-69.2277754584606,-65.89142269889335
1761285196.5127263,-24.870348653591904,0.03486079749040242,0.7281164751865092,-0.04066095715933478,7.6115146556645055,-68.18539648258094,-61.79122249837297
1761285196.5228252,-25.268101914038557,0.08664499904145895,0.7031905068355755,-0.03546743109880853,8.593832407749758,-65.19078385827149,-56.89455381666278
1761285196.5327795,-25.595521623891468,0.11711679975400664,0.680754514449404,-0.026491864962176544,9.854393770106741,-60.55052033841606,-51.13083884879966
1761285196.542756,-25.85328341701538,0.12412286675649276,0.6613284191274017,-0.013584399947322875,11.526360596530997,-54.715048273236484,-44.46608328332903
1761285196.5527573,-26.04262973519947,0.10763283914604452,0.6450396735875887,0.0032093151802870617,13.71037097428616,-48.22682033309035,-36.92043759950815
1761285196.562746,-26.165153448913216,0.06972608593317901,0.6316480373295658,0.02361715098636395,16.466679552462768,-41.65330937652764,-28.584092032556082
1761285196.5727503,-26.222718927744793,0.0143280208678108,0.6206687773463813,0.04710115719406273,19.81149402426779,-35.514005868508335,-19.627907605833453
1761285196.5827506,-26.217531293998302,-0.05327513487715422,0.6115921869581905,0.07281225429411196,23.717129987468876,-30.212066872497623,-10.304985447073529
1761285196.592742,-26.152321390469737,-0.12708684853903485,0.6041741668315123,0.09955021397471477,28.11497526922862,-25.981149299346985,-0.9402442250957959
1761285196.6027374,-26.03057899632646,-0.20113857842533872,0.5987484473374118,0.12574741596159306,32.900089299420884,-22.856267232695874,8.093038403689404
1761285196.6128218,-25.856749379125915,-0.27022429323261377,0.5964925165204372,0.14949867039746054,37.9366040639445,-20.674516391125806,16.408269374320234
1761285196.622791,-25.636312418181138,-0.3305322169567653,0.5995728664514498,0.16865744427778084,43.063704297116246,-19.107511520976075,23.64813338888443
1761285196.6327558,-25.375686885265615,-0.3800733583693242,0.6111037842579212,0.1810096723863727,48.102510771443974,-17.722703611401194,29.528570919733976
1761285196.6427479,-25.081937314131974,-0.4188137598050597,0.6348764757901313,0.18452095803334742,52.864402256842524,-16.065762597763033,33.87685458337735
1761285196.6527622,-24.762298609178014,-0.4484434240415357,0.6748482292594069,0.17763349505025577,57.16101521849429,-13.751614343953868,36.65677616188356
1761285196.6627717,-24.42356813736539,-0.4717698108129928,0.734420327800363,0.15956789245275044,60.81535777172599,-10.548642080310517,37.97581444601751
1761285196.6727624,-24.07144197472918,-0.49180551393823563,0.8155765203657611,0.13056799626379384,63.6725092419615,-6.4401642286558936,38.07236550654537
1761285196.6827457,-23.7098859578268,-0.5107093322622794,0.9180024568219839,0.09202314588378874,65.60790236503888,-1.650058863978361,37.28503501542117
1761285196.6927364,-23.34062940673499,-0.5288112519319579,1.0383585044757386,0.046416476058552134,66.53180110711293,3.3751611949243263,36.00959745552473
1761285196.7027721,-22.96285238501387,-0.5439832251086492,1.1699190998391606,-0.0029267018550496997,66.39033010752982,8.02846555773659,34.65147988850857
1761285196.7127674,-22.573115727297463,-0.5515941276760877,1.3027941100049714,-0.052286410139039674,65.16545860937379,11.64164824830317,33.581858622051655
1761285196.7227595,-22.16556651606248,-0.5451969234481191,1.4248818191667478,-0.09814651581167315,62.87730585488279,13.60756422395728,33.10361888343348
1761285196.7328253,-21.7324404381629,-0.5179319643961299,1.5235485384707261,-0.13784020118764692,59.59093989033083,13.504616253308955,33.43016764973031
1761285196.7429795,-21.264865027690913,-0.46440549613926385,1.5877920335913625,-0.1700781915278851,55.42655822851474,11.198984555352698,34.67653726819513
1761285196.752745,-20.75393127060574,-0.38257429141992055,1.6103909843281388,-0.19517857325190752,50.568020848013994,6.900832162307839,36.85958650377054
1761285196.7627604,-20.19194436299929,-0.27504657097378005,1.5894142604342991,-0.21488348605006807,45.262470722881595,1.157894340085035,39.9033463319984
1761285196.7727668,-19.573702214719134,-0.14930977217469327,1.5285999368698153,-0.23179194486201973,39.805122561736475,-5.216805493788461,43.64696194046898
1761285196.7828481,-18.897607314365715,-0.0167316121323505,1.4364942841850694,-0.2485910842465295,34.508241453743715,-11.270217729877045,47.855399107163706
1761285196.7928653,-18.166418641614232,0.10939033095280817,1.3246621125313827,-0.26734182397902156,29.65967686401999,-16.061141164831756,52.23523543569105
1761285196.802932,-17.387505588983057,0.2161536590245051,1.2055257434478779,-0.2890325099965942,25.480990023145463,-18.8066421646992,56.45777946068865
1761285196.8127766,-16.572559390271554,0.2931347851436702,1.090390669357574,-0.3134912947314318,22.096118159697827,-18.994788329564265,60.18936997943909
1761285196.8227854,-15.736814846307245,0.33380359016199895,0.9880414549088645,-0.33961147407470266,19.518539090753873,-16.446316367815143,63.125518017434565
1761285196.832756,-14.897906657750749,0.33611302519834313,0.9040589907986443,-0.3657485690040456,17.659562958014373,-11.320814099726553,65.02338578079262
1761285196.8427677,-14.074521456997166,0.3023277895338582,0.8408129443496088,-0.39012357661715896,16.354737257538563,-4.073829713065651,65.72687909884618
1761285196.8529525,-13.285014625121889,0.23827262713294967,0.7979604718316342,-0.41111309402808227,15.401075578798682,4.621929075043612,65.18019963529316
1761285196.8627985,-12.546146692173059,0.15221526681435257,0.7732312138971376,-0.4273906566716231,14.595918226162437,13.975349502050214,63.42830033413519
1761285196.8727841,-11.872059411139725,0.053595568667162266,0.7632840287148858,-0.43795681437427914,13.769020394970557,23.1796703216684,60.60543019419207
1761285196.8827991,-11.27355918988659,-0.04820513399858994,0.7644672771100853,-0.4421262308037951,12.802483468790747,31.505048133939326,56.915075172522826
1761285196.8928325,-10.757715345784815,-0.14489232293179463,0.7733825291746986,-0.4395266093365458,11.637216989120118,38.36983617590952,52.60561905468852
1761285196.9047184,-10.327729155813834,-0.2299735670100306,0.7872196065025386,-0.43012719620427514,10.26823350570261,43.383744331236,47.94589582986244
1761285196.9128146,-9.983001952773595,-0.299116526255239,0.8038824645182706,-0.41428040236342734,8.733051153503425,46.36101983530121,43.20377959063673
1761285196.9228277,-9.719330991201204,-0.3501700913221681,0.821954791384532,-0.39274553356764325,7.097511728445039,47.30660729155032,38.629515470722815
1761285196.93283,-9.529183510459134,-0.3829156935743961,0.8405646285810114,-0.3666694742890709,5.442059821559736,46.38196751239247,34.44408281470147
1761285196.942807,-9.402030970148493,-0.39863982068189,0.8592048852512896,-0.3375151906424339,3.8500104451879977,43.85920865717709,30.831842809035862
1761285196.952791,-9.324756168031875,-0.39962494561114587,0.8775560037857132,-0.30694429935545126,2.3982913624466997,40.07230165232881,27.93622649190748
1761285196.9628081,-9.282166620801611,-0.38864959073671007,0.8953418575376539,-0.27667003191027234,1.150717606610814,35.3727862796344,25.857242456990885
1761285196.9727628,-9.25765143485407,-0.36857119338940786,0.9122342265858133,-0.2483022282793095,0.15377631260552546,30.09510890910543,24.649971627057568
1761285196.9827554,-9.234003624527102,-0.34203926121040423,0.927808779794109,-0.22320750556721383,-0.5651413121310723,24.534125755882627,24.323765069427694
1761285196.9928262,-9.194397965035687,-0.31135447191459614,0.9415480398338668,-0.20240500542862772,-0.9972774734342126,18.934793662282267,24.84237120710003
1761285197.0027966,-9.123472671151424,-0.2784576119421066,0.9528826225993074,-0.18651100004361135,-1.1502696564594157,13.491993411203609,26.125539734982116
1761285197.0127804,-9.008421247875374,-0.24500671286163156,0.9612581694736669,-0.17573549894058266,-1.0447970686476005,8.357062973389636,28.052720012652767
1761285197.022775,-8.839969381167215,-0.21248604363097695,0.9662111677982937,-0.1699231511039546,-0.7108383428818374,3.647127891325517,30.469321183447185
1761285197.0327847,-8.613099662228086,-0.18228948912604998,0.9674346392070041,-0.1686222951234177,-0.18416871077589028,-0.546289078721829,33.19569620131697
1761285197.042791,-8.32740017181742,-0.155734390739782,0.9648173244910345,-0.1711634851106761,0.4964865233588581,-4.151775066860304,36.038614328652336
1761285197.0527656,-7.986953084628705,-0.13398802097077323,0.9584483435676083,-0.1767334528063317,1.2914709996790412,-7.116514775026858,38.804557441314984
1761285197.0627837,-7.599741775303015,-0.11792035427803695,0.9485911374919337,-0.18443915235457234,2.161434852790054,-9.408104175868498,41.313776850674785
1761285197.0727844,-7.176628265507827,-0.1079237909955244,0.9356408584553474,-0.19336420794995524,3.0679891065991214,-11.01792865253296,43.41373390072072
1761285197.0827978,-6.730023243319581,-0.10375585351005459,0.920083176986367,-0.20262402905775106,3.974051852818087,-11.96390462452193,44.990377103603464
1761285197.0927885,-6.272425950083278,-0.10446257135499193,0.9024683426676015,-0.21142648521033452,4.84417755504123,-12.290686673163913,45.975745801486305
1761285197.1027975,-5.815041079414216,-0.10842747945075512,0.8834057123203183,-0.21914301094603786,5.645142842390336,-12.066371047674918,46.35068822775823
1761285197.1127663,-5.366674479211467,-0.11356078691874337,0.8635763355453745,-0.2253894046216757,6.347014862923705,-11.37600229326375,46.14208012908607
1761285197.1228008,-4.9330608905641125,-0.117597500113864,0.8437582445690198,-0.23010608877036845,6.924823770291088,-10.313421439944547,45.41482445561063
1761285197.1332004,-4.516690110057168,-0.11843070231078168,0.8248599799842433,-0.23361811387115583,7.360768039084306,-8.973712152835738,44.25994818508793
1761285197.142801,-4.117097593648411,-0.11439353751556663,0.8079574727014297,-0.23665241466995215,7.646610533732596,-7.44829360836319,42.78095555807749
1761285197.1531935,-3.7315057385615806,-0.10443064195538371,0.7943232229410977,-0.24029690704469525,7.785656377115265,-5.823526179277414,41.08090332869064
1761285197.1628761,-3.355666357614501,-0.08814969713323319,0.7854266788985996,-0.24589920786604982,7.793586598986613,-4.18204629949045,39.25228686554617
1761285197.173027,-2.984763996365328,-0.06578674668908874,0.7828789245023551,-0.25491466848718486,7.697573632970816,-2.6047643653275747,37.37089179138586
1761285197.1828487,-2.6142744130793125,-0.038133215239393975,0.7883012252725707,-0.26871845432704633,7.533483972110069,-1.1711707116942323,35.493604431611075
1761285197.1928961,-2.240707519846692,-0.006456751313569285,0.8031171588296262,-0.2883950294700196,7.341378390768178,0.043655980867271287,33.65916948652669
1761285197.202812,-1.862185188252154,0.027580289303824987,0.8282952562357283,-0.314517096106028,7.159777824869438,0.9756233681197056,31.890313658370093
1761285197.2127736,-1.4788150381146483,0.062019880996751514,0.864091982528919,-0.3469314089634012,7.0192764959087794,1.5807913416049506,30.195609221743275
1761285197.2227829,-1.0928344723234402,0.09473985130268234,0.9098541467688667,-0.3845815064479882,6.936171426345685,1.8453308318308028,28.569851467550134
1761285197.2328439,-0.7085238056682105,0.12361842025252742,0.9639321292654804,-0.42541115422605547,6.90690977094965,1.7942523046368941,26.992404655372823
1761285197.2427785,-0.33192221560716306,0.146714584326102,1.0237325541192095,-0.46639707578163037,6.904272781355868,1.4970911469490515,25.42376195070036
1761285197.2527742,0.029584452549386797,0.1624354140784131,1.0859084113492392,-0.5037459175683154,6.876178211963522,1.0691607630564672,23.801299594054836
1761285197.2627764,0.3677130343583779,0.1696610912650109,1.1466591564903832,-0.5332575213853673,6.747698886487035,0.6674774025309137,22.035719475186216
1761285197.2728019,0.6736811242940189,0.1678108558300047,1.2021028933727511,-0.5508162371423238,6.426401930176173,0.4809795437903169,20.009850606850463
1761285197.2828267,0.9384946565918492,0.1568521048298539,1.2486823859426164,-0.5529408414299968,5.810537261538937,0.7152220004199825,17.581292584962227
1761285197.2928193,1.1531123594703485,0.13726960404304828,1.2835625226773508,-0.5373105468284916,4.799068449746579,1.5723740076554484,14.589875629345716
1761285197.3028271,1.3085219621782163,0.11001465466288944,1.3049654810993756,-0.5031868979920875,3.3021480476019467,3.2281486194684668,10.870154011135705
1761285197.3128016,1.395795324472734,0.07644720296836699,1.3123832141286145,-0.4516622985459947,1.2505068004942863,5.808197808129,6.268240869048738
1761285197.3227854,1.4061972098526851,0.03827377450645375,1.306618235515444,-0.38568358979510853,-1.3975631693980584,9.367302537426813,0.6613616792289839
1761285197.3343015,1.3314044170730055,-0.002525525929849717,1.2896344501392818,-0.3098259573953148,-4.65242244163527,13.875002610360227,-6.022302622035738
1761285197.3427925,1.1638553195820955,-0.043794588100453356,1.2642403414510328,-0.22982827366300962,-8.492592147913241,19.210799692768042,-13.786421890158934
1761285197.3528278,0.8972070062215171,-0.08333696486312236,1.2336640152843965,-0.15194057497041813,-12.867012242595312,25.170633636821503,-22.554933803048133
1761285197.3628416,0.5268423372975526,-0.11909263393175107,1.20110193400189,-0.08217058504742929,-17.699129073274793,31.484282561438455,-32.16845925797797
1761285197.374535,0.05035226842507994,-0.1493400623314976,1.1693237579452511,-0.025541137919515296,-22.891861062478505,37.84126464749768,-42.390012512435355
1761285197.38287,-0.5320792812039667,-0.17288887029768896,1.1403951277046755,0.014524234790334762,-28.33270991672636,43.92130377607764,-52.919936629713696
1761285197.3928943,-1.2174468436015415,-0.1892194788395603,1.1155475551889302,0.036588250560078264,-33.898562537923894,49.424805793455064,-63.41866042414049
1761285197.4029007,-1.999891843250717,-0.1985335692486429,1.095192649733747,0.04129712859912798,-39.459942013190556,54.09912553786868,-73.53480966398163
1761285197.41279,-2.8708890586592575,-0.2017015789823588,1.079054994516077,0.03117389216237643,-44.88458986658863,57.757473641964935,-82.935475762029
1761285197.4229672,-3.8196491337355076,-0.20012179441083996,1.0663846543530593,0.010145013379422673,-50.040316750950765,60.28877539732027,-91.3350086847389
1761285197.4327726,-4.833709094932093,-0.19552783160367868,1.0562035849705014,-0.017115292131160163,-54.79710260484582,61.65832976568723,-98.5186278654689
1761285197.4428287,-5.899657892774296,-0.1897889459522686,1.0475389224864986,-0.045906596128991554,-59.02855155180073,61.900449607093925,-104.35765186750687
1761285197.4528131,-7.003925698117552,-0.18473963410606378,1.0396018887420209,-0.072163816163502,-62.61304433018853,61.10515277034435,-108.8143353190628
1761285197.46284,-8.133556952378186,-0.18205650925468453,1.0318855014902577,-0.09294918303522817,-65.43517016394793,59.40127997938877,-111.93593722260093
1761285197.4727821,-9.276887670624019,-0.18317917380112286,1.024175217990178,-0.10670353057641195,-67.38808250687153,56.93820008175238,-113.83930247090963
1761285197.4827855,-10.424055946325996,-0.1892556177293975,1.0164874587671597,-0.11323774615759305,-68.37722269409738,53.867790413953195,-114.68859110659582
1761285197.4927893,-11.567290463101344,-0.20108787668333258,1.0089647219337363,-0.11349726970954035,-68.32545048425098,50.32798515701978,-114.66968070821027
1761285197.5045455,-12.700945052970992,-0.21906288180932657,1.0017597046022364,-0.10917264870428106,-67.17916403348653,46.42905461809663,-113.96511277370722
1761285197.5130787,-13.821278097324193,-0.24307293290565296,0.9949359967221215,-0.10225003139710435,-64.91465975414465,42.24381529569901,-112.7332025376503
1761285197.5228257,-14.926013315421871,-0.27245002142193486,0.9884031621441256,-0.094594048245376,-61.54388670453997,37.80288392969438,-111.09409299970234
1761285197.5327768,-16.013757970819277,-0.3059469084484373,0.9818928721330541,-0.08763383291049152,-57.118871656722156,33.09564950104921,-109.12421433628468
1761285197.5428553,-17.08338251445599,-0.3417898792553431,0.9749728404959969,-0.08218959385216112,-51.73429763302069,28.076869965472927,-106.85903284993312
1761285197.5527997,-18.133467550001626,-0.37780691239896386,0.9670885089526846,-0.07844379886200789,-45.527867801008625,22.67795741536172,-104.30245592049474
1761285197.5627973,-19.161896482387807,-0.411610356592631,0.957619753708597,-0.0760356519178085,-38.67813020088654,16.82137630031875,-101.44012621100642
1761285197.57288,-20.165626800711397,-0.4407962518231743,0.9459411125880429,-0.07424188126582995,-31.39943952454078,10.43627612515173,-98.25331904028266
1761285197.5828009,-21.140626894076043,-0.46312060429987034,0.9314777332215698,-0.0721994091825901,-23.933794980542263,3.4734847862639793,-94.73032255914619
1761285197.5928824,-22.08193203050766,-0.4766261477667098,0.9137535913706072,-0.06912521310364475,-16.53950174002575,-4.081776874294999,-90.87294839534609
1761285197.602809,-22.98375927416809,-0.4797149897781147,0.8924323808032423,-0.06449586003754453,-9.476975855123383,-12.200694074593914,-86.69699726346688
1761285197.612821,-23.839627273820884,-0.47118505567073193,0.8673543574291386,-0.05816299188263191,-2.992455868330111,-20.80591576481193,-82.22683756356587
1761285197.6228204,-24.642448711100787,-0.45026374309054557,0.8385735699632693,-0.050396952201822026,2.6992546305799925,-29.77117465513111,-77.48549796488102
1761285197.6329536,-25.38459260512029,-0.4166733003580601,0.806398535311019,-0.041862121620573914,7.431680291968431,-38.92547834981546,-72.482630824352
1761285197.643317,-26.057940833894342,-0.3707462259187877,0.7714361632646705,-0.03353135160911811,11.10177767730499,-48.061732901709526,-67.20323097438455
1761285197.653234,-26.653980384083862,-0.313581313167356,0.7346347852248664,-0.026546530885208603,13.681805992970311,-56.94956255578929,-61.600030526857466
1761285197.662833,-27.163976780936242,-0.2472022851210297,0.6973167432515804,-0.022033535895193055,15.226556643048403,-65.35186820632545,-55.592061630512696
1761285197.6727962,-27.579265036176643,-0.17465956921298934,0.6611833786384613,-0.020885275458243036,15.874623878340472,-73.04417573712405,-49.07103072957873
1761285197.6828873,-27.891673544446427,-0.10000779738521702,0.6282688144854935,-0.02353418412583259,15.84261614605059,-79.83504291554793,-41.915933684397224
1761285197.692982,-28.09406701214933,-0.028102641976902886,0.6008194197766414,-0.029741123593459984,15.41165148835727,-85.58480553999352,-34.01494661583101
1761285197.7028627,-28.180964567487848,0.03580712548227523,0.5810862144677691,-0.03842876882171482,14.90618077373617,-90.21896290953485,-25.29236172895925
1761285197.7129648,-28.14916954627262,0.08666697320266892,0.5710369740497916,-0.047584960292169735,14.66611103779285,-93.73197281019263,-15.737420634048817
1761285197.7228107,-27.998345791762425,0.12030256417457126,0.5720201324372446,-0.05425812475528395,15.014319211930117,-96.17774469731657,-5.4313314880063706
1761285197.733119,-27.73149031887912,0.13407956338230528,0.5844372672216263,-0.054666214631827664,16.222830010251048,-97.64509602819734,5.431580010688232
1761285197.7428827,-27.35527330336083,0.1273967591699535,0.6074965646609479,-0.04444308769864263,18.48185620236482,-98.21976737548007,16.532808555504726
1761285197.752869,-26.88023008061736,0.10189127019345096,0.6391201836422803,-0.01904521558344417,21.876102938225056,-97.93862443394475,27.432817211293365
1761285197.7632914,-26.320788380694655,0.061282846546699375,0.6760622143734504,0.025673069483396076,26.371907159289783,-96.74540071016838,37.59181005016506
1761285197.7735608,-25.695099983515107,0.010848311100015133,0.7142622569423197,0.0927403335765656,31.81705367393555,-94.45960768996787,46.40981237580006
1761285197.7828057,-25.024629934953868,-0.04341488637858384,0.7494162124574538,0.18327480138521818,37.95305864463363,-90.77002503889966,53.28481531130193
1761285197.7928455,-24.333450741996256,-0.09581323914225266,0.7776974751440403,0.29573363812280995,44.437989320993765,-85.26095429205017,57.68396728935875
1761285197.8031454,-23.647202916640122,-0.14199485538796577,0.7965173074398508,0.4253562613858762,50.87687581324485,-77.47352806855493,59.218983017309434
1761285197.8127854,-22.99172046963615,-0.1797952743398351,0.8051818698002599,0.5639667778972622,56.85655751505772,-66.99700685462977,57.71414340604496
1761285197.822803,-22.391376187106726,-0.2096925256359232,0.8052936568703207,0.7002871502447671,61.98223659072526,-53.57772764172827,53.254473669986034
1761285197.832795,-21.86726507499982,-0.2347242095494126,0.8007642129321156,0.8208675622863661,65.91355576165691,-37.227658187315,46.20347888492342
1761285197.8428025,-21.435399737639226,-0.2598126167116228,0.7973561528320894,0.9116533422173243,68.39787646196311,-18.311534340052408,37.18411357384195
1761285197.852855,-21.105123561279147,-0.2905600401393512,0.801753451655472,0.9600628975257055,69.29717635974382,2.407915338353246,27.022793636987753
1761285197.8628147,-20.87794631186085,-0.33169864487463474,0.8202651471967183,0.9572502535292168,68.60329155138969,23.7828729347872,16.66309306464156
1761285197.8728554,-20.74697075842686,-0.38549854684165485,0.8573861852658295,0.9000323007434379,66.43589677809985,44.35979740010729,7.061871976772599
1761285197.8828044,-20.697014871601322,-0.45051981246793343,0.9145296647240168,0.791907786065146,63.020450272812596,62.52268128538395,-0.9156137408929669
1761285197.8927908,-20.70545587191713,-0.5210749784070468,0.9892529314723323,0.6427855146552159,58.649410039479385,76.68530209559611,-6.584935873522407
1761285197.9027965,-20.743749855699818,-0.5876293961731067,1.07521576912856,0.4674153101465506,53.636772000888485,85.50663234669275,-9.503256396570652
1761285197.912817,-20.77952656290934,-0.6381646791836182,1.1629723536548362,0.2828908032922958,48.27926861569155,88.09661296183425,-9.495475558958832
1761285197.9228356,-20.779115578611254,-0.6603253751160826,1.2415317177441731,0.10582480361977048,42.834636332755586,84.17765432277523,-6.646735055919873
1761285197.9328666,-20.710315843929695,-0.6439803645477531,1.300417627743388,-0.05014834346056062,37.519215307885815,74.17083075634943,-1.2679631853679083
1761285197.9428282,-20.545179993759792,-0.5836768861313536,1.3317575871128564,-0.17601144712506778,32.51816519854182,59.185193009712954,6.155536721491127
1761285197.9528573,-20.262560899811987,-0.4803911336969084,1.331841884162875,-0.2678928133007604,27.99654026627644,40.90373170954841,15.022035091685899
1761285197.9628193,-19.850161248922078,-0.3420516176215919,1.301712901823408,-0.3265784970318222,24.10060433836471,21.378238985101607,24.669886396473913
1761285197.9728248,-19.30583975927079,-0.1825834215289052,1.246654401137757,-0.35636042709823046,20.94500397638291,2.76370612131799,34.42873863909471
1761285197.982829,-18.637976846563056,-0.019647983081453196,1.174810907187009,-0.36364350729815836,18.58952075295191,-12.963827185485906,43.66513261526205
1761285197.9928293,-17.864804071220643,0.128347256505587,1.0954097710976278,-0.3556450473235672,17.01540427561596,-24.258050222417616,51.82336409459402
1761285198.0037055,-17.012742126603353,0.24522201447881808,1.017090239992693,-0.3393675023414875,16.113034890678133,-30.1809192320223,58.46126092242688
1761285198.0128038,-16.11393116277842,0.3193417577785343,0.9466932768747258,-0.3208922757091007,15.6892265783229,-30.484301043558826,63.27840533008672
1761285198.022855,-15.203238515831455,0.3449290977777997,0.8886475361596419,-0.3049599167745359,15.49559510532344,-25.59023293871162,66.13300648534977
1761285198.0338464,-14.31508060159454,0.3223165623415422,0.8449119168585175,-0.2947681686528357,15.27217697898535,-16.483418065100043,67.04400268282559
1761285198.0428178,-13.48040290964322,0.2573035290869485,0.8153416432513237,-0.29192174850924857,14.795575232349586,-4.541616559391472,66.17698104718252
1761285198.052806,-12.724130679297598,0.15988316791421323,0.7983098278840849,-0.2964947961642221,13.91959095226307,8.665398526650083,63.81536042310851
1761285198.0628324,-12.063336649830937,0.04262336497319786,0.7914117809525842,-0.3072024741981039,12.598551820692911,21.57844740562216,60.320956514379155
1761285198.0728185,-11.506278632084841,-0.08104189881605775,0.7920986216826769,-0.3216981681746245,10.88849870705123,32.827818697084844,56.08978325327782
1761285198.0828023,-11.052351770815571,-0.19839913830425665,0.7981320481571832,-0.33699916671514657,8.927479576989104,41.36965217212775,51.50947013353537
1761285198.0928319,-10.692894452208336,-0.29876006181411197,0.8078153355393154,-0.3500025247695656,6.901447430127715,46.56839104906459,46.92402455619052
1761285198.1032743,-10.412698381970127,-0.3743811428470594,0.8200178460853723,-0.3580108013632468,5.005022684354172,48.22142452713639,42.61001245567832
1761285198.1141229,-10.192012426021428,-0.4209509084426266,0.8340537752710665,-0.35917032796108844,3.406139377734575,46.52934690808491,38.76591461526735
1761285198.1233914,-10.008796943626427,-0.4376446649912536,0.8494930497152379,-0.3527404870115017,2.2210427150439673,42.02155743621353,35.51395669988162
1761285198.132908,-9.840974782603707,-0.42678278495068184,0.8659756503111843,-0.339151659078712,1.5025521662523893,35.45144367533706,32.91163762641262
1761285198.1429129,-9.66843378295317,-0.3931623007519161,0.8830779276218155,-0.3198557639432601,1.2411701228446648,27.677703945865453,30.96888149569514
1761285198.1528263,-9.474568391211708,-0.34316660512016145,0.9002508081667937,-0.2970132358001741,1.3762417439316035,19.548435498192806,29.66639398027565
1761285198.1628447,-9.247212281967682,-0.28378672200824734,0.9168250438136519,-0.27308703665203926,1.8131772959097259,11.802649182566684,28.971369873560068
1761285198.1729145,-8.97890923259259,-0.22169736521033,0.9320638982342266,-0.2504260227813976,2.442602639517171,5.000194944633789,28.847932715022203
1761285198.1828687,-8.666581829812769,-0.16251603786553245,0.9452392668933525,-0.23091610987082456,3.1579190738354477,-0.5138348869368945,29.26124004286364
1761285198.1928804,-8.31076200950029,-0.11033654134742965,0.9557098330023908,-0.2157583126016443,3.8688059753181436,-4.609626710882675,30.175704941555466
1761285198.2028956,-7.914616582040584,-0.06757656635435455,0.9629855024602736,-0.20540098204481533,4.509387766833153,-7.342682406508249,31.548982379106
1761285198.2128863,-7.48301460912639,-0.03512146294466838,0.9667680676112548,-0.19961732936774157,5.040876662520473,-8.902103337489303,33.32407612307945
1761285198.2228603,-7.021836021777538,-0.012693177187172881,0.9669626495760236,-0.19768916663241207,5.449357296202227,-9.548356917638486,35.42209721505011
1761285198.2329283,-6.5376242423649495,0.0006643044995392256,0.9636587764865394,-0.19864197724693314,5.739961618227082,-9.552263816016024,37.73791256582806
1761285198.2430596,-6.037567554563026,0.006104983220698657,0.9570854754010922,-0.20147676574682094,5.929017315263866,-9.14541670710151,40.14027826078049
1761285198.2532508,-5.529688168296343,0.004614987453691501,0.9475517883014364,-0.2053558828125107,6.035867796759785,-8.489079586736706,42.47718486263418
1761285198.263112,-5.023050849167042,-0.0031650391342141642,0.9353908499664166,-0.20971622556265,6.075953297922516,-7.664534143799532,44.58618419010705
1761285198.2729425,-4.5277875673973025,-0.01690178710374698,0.9209286703595784,-0.21429965921402377,6.056394523749453,-6.6836343508824125,46.30855855629
1761285198.2828677,-4.054772117442696,-0.036338636664674503,0.9044948343458336,-0.21910648048856374,5.974747954426813,-5.514708224539934,47.50547120627214
1761285198.2928793,-3.614862119233,-0.06094365304032724,0.886480738217507,-0.22429303700555017,5.820890012180901,-4.116449293914288,48.073803453883365
1761285198.3028765,-3.2177409201661344,-0.08954366296576366,0.8674346344150575,-0.23004726231056802,5.581293199309679,-2.471421692970797,47.95928354331784
1761285198.3129117,-2.8705172137074944,-0.12006755666987912,0.8481672942787816,-0.23648273845952347,5.244469865151965,-0.6114059500758033,47.16474532893448
1761285198.3228734,-2.57634914269112,-0.14951073412853663,0.8298332409584027,-0.24358994269799175,4.806222954803008,1.371063648772602,45.75189927670803
1761285198.3334153,-2.333422555275365,-0.1741897582894907,0.8139531639127281,-0.25126962625437893,4.273578239912165,3.327372256063306,43.83580031427771
1761285198.3464022,-2.1345993924410114,-0.19027954314913093,0.8023528371669826,-0.2594460303476175,3.666736166433728,5.072412208079691,41.57218338881971
1761285198.355304,-1.9679422316398263,-0.19452853221759478,0.7970105006017135,-0.26822162173296027,3.018827799595971,6.414464427924564,39.13893098680913
1761285198.3637307,-1.8181275918941677,-0.1849695533249543,0.7998248952219373,-0.27800495085830423,2.373498442910942,7.188624261258948,36.713986870638166
1761285198.3736236,-1.6685390858906997,-0.16142847015332282,0.8123348082908196,-0.28953640308579676,1.7803752992281934,7.286698246653456,34.45275200867939
1761285198.3834982,-1.503659008882699,-0.12569032539104238,0.8354336175616613,-0.3037605299587121,1.2884883839441137,6.678037400038937,32.468105383984714
1761285198.3928325,-1.3113126752669648,-0.0812842551548684,0.8691284425506244,-0.3215415575182619,0.9379426447400977,5.418490018825686,30.815619797937767
1761285198.4028256,-1.0843771371777444,-0.032949236445953094,0.9123944188639643,-0.34327410185443274,0.750681361146739,3.6474310217570722,29.485496770648833
1761285198.4128377,-0.8217129881716758,0.014090600314622195,0.9631683203803275,-0.368485499418338,0.7218678967665503,1.5747653205058791,28.40156469329857
1761285198.422907,-0.5282595779933109,0.054890156324451815,1.0185068041022485,-0.3955460650426366,0.8138698186757685,-0.5393144045055762,27.4266967594059
1761285198.4329333,-0.21439704014614938,0.08545012429776118,1.0749006456392614,-0.42159387442681223,0.9547119862368559,-2.408888394973873,26.37342063906221
1761285198.4429264,0.10521258201564204,0.10318562796135106,1.1286961197725636,-0.44274194485210594,1.0420905841254664,-3.748415447680259,25.018343003219627
1761285198.4532645,0.41305224176836614,0.10714419705852901,1.1765466428096492,-0.45457265327134694,0.9528398617028707,-4.297841540803047,23.11917016431787
1761285198.4629724,0.6902132253586173,0.0979722498327961,1.2158159810587732,-0.45284957181567925,0.5565221478657946,-3.844501081709341,20.433371131525575
1761285198.4729373,0.9177243364624619,0.07767309590778552,1.2448744083122902,-0.4343131884441415,-0.269063198626348,-2.240117727264435,16.737716734169975
1761285198.4831815,1.0776501824029454,0.04922482140848069,1.2632536103161267,-0.39739721091795843,-1.622986701333084,0.5881021603347205,11.847918143413686
1761285198.493037,1.1539274678778353,0.016130676503545244,1.2716436300425404,-0.3427147482746986,-3.569224556380083,4.6325672918614655,5.637362243596247
1761285198.5029132,1.132954402335661,-0.01803668815457511,1.271729342025861,-0.2732079223344264,-6.129299640990081,9.806279589104868,-1.9464093814881966
1761285198.5131814,1.0039723933109328,-0.05005257410344926,1.2658828263147188,-0.1939129264965402,-9.280341768157994,15.949036171773516,-10.869165041987886
1761285198.523013,0.7592848804454723,-0.07738735340004071,1.2567527177151336,-0.11135635244391236,-12.958448161457857,22.838101523263642,-21.00325166783302
1761285198.5331185,0.39435244412615217,-0.09845742346428561,1.2468160799387982,-0.032666151585790414,-17.066349911500588,30.202580158482977,-32.12838350361645
1761285198.543418,-0.09220709832413122,-0.11275720302037544,1.2379731421024085,0.03545632321239385,-21.48373531776679,37.74055054393805,-43.9410613516402
1761285198.553285,-0.6986956966389006,-0.12085457268005102,1.2312614170048777,0.08771661337592135,-26.07831834997953,45.1376175907595,-56.07267242151307
1761285198.562902,-1.4204809029654017,-0.12424233509059115,1.2267409997453185,0.12097305884074665,-30.71593231506687,52.08510378513215,-68.11504711412168
1761285198.5728643,-2.2502103551352177,-0.12505502971465804,1.2235651812329527,0.1346060807078638,-35.26845776863512,58.2959901464057,-79.6511007610421
1761285198.582853,-3.178099731659305,-0.12568306148470626,1.2202129407776294,0.13044874773743673,-39.6190389515398,63.517211089576286,-90.2873756694514
1761285198.5928824,-4.192298990042201,-0.12834069737767703,1.214831163980598,0.11231268015126698,-43.66462222334372,67.53798891727577,-99.68489753935798
1761285198.6028337,-5.279336880592942,-0.13466413073902395,1.2056165440872229,0.08522896745726222,-47.31626987527318,70.19517725524872,-107.58482469055133
1761285198.6128323,-6.424636241408372,-0.1454209380201903,1.1911608695739142,0.05457391073141194,-50.49792459259508,71.37741046409185,-113.8259208300319
1761285198.6228285,-7.613084021056196,-0.16039470388632587,1.1706921719780854,0.025252840990518628,-53.144341941562665,71.0296840600017,-118.35187707214158
1761285198.632829,-8.829630599499344,-0.1784689682963994,1.1441701890130251,0.001079075891834326,-55.19884827590399,69.15881452604809,-121.20783893473242
1761285198.6429603,-10.059882908560763,-0.1978849418480619,1.1122331140217643,-0.015573456535450487,-56.61147905386962,65.83864027294226,-122.52695604694615
1761285198.6528363,-11.290646623988835,-0.21660504464846922,1.0760316248468316,-0.023829474258285275,-57.33790257744442,61.2126657943581,-122.50909815616956
1761285198.6628263,-12.51036825045427,-0.23269350072288417,1.037011067101723,-0.02412630658839519,-57.33932558034901,55.49170681214889,-121.39485249192364
1761285198.6728475,-13.709433583977733,-0.24463230040595474,0.9967037279163025,-0.017866695355797664,-56.58335104718168,48.94500973959416,-119.43840100412935
1761285198.6830251,-14.880297795408207,-0.2515224060496168,0.9565726938090187,-0.007012608513414489,-55.045594097873625,41.88485376766661,-116.88279536880553
1761285198.6930292,-16.017451153157655,-0.2531626136912681,0.9179203399825815,0.0062866166543719,-52.71181909179818,34.646155254001286,-113.94050796770456
1761285198.7029767,-17.11725408005257,-0.2500328530543691,0.8818523320892988,0.019970561437762553,-49.580435209003596,27.563517137288436,-110.78105389369998
1761285198.7131038,-18.177694661163592,-0.24322029778124885,0.8492778820848856,0.03223014558576775,-45.66531409591024,20.948246028945764,-107.52616114867088
1761285198.722934,-19.198123159186228,-0.23431466188600245,0.820926208366099,0.04157531099168195,-40.99898591175962,15.067269884788079,-104.25167500671921
1761285198.7329638,-20.1790013847325,-0.2252764338143181,0.7973620927214079,0.046847058842207114,-35.63624714425516,10.125083448333024,-100.99437614200195
1761285198.7428303,-21.12167744957154,-0.21826536120146453,0.7789863164382195,0.04721381309862741,-29.658030673868993,6.249255281110731,-97.76135947491267
1761285198.7528634,-22.028169515988036,-0.2154161289441453,0.7660098801637049,0.04218089491640943,-23.175078411479785,3.4798594833878,-94.53962596399846
1761285198.7628717,-22.900924866157702,-0.21856330101711466,0.7583970683840882,0.03162678800510438,-16.330612772227955,1.7634051623613576,-91.30399761298486
1761285198.7728558,-23.742517740607546,-0.22894067688911976,0.755782660968453,0.015865037252703017,-9.300939138227536,0.9521997487330903,-88.02218696179106
1761285198.7828572,-24.555261411326917,-0.24690200857372943,0.7573803492053554,-0.004282844850462275,-2.2928351030423975,0.8103179994000251,-84.65663720981132
1761285198.7928545,-25.340733625033184,-0.2717225200374413,0.7619088132138554,-0.02742884506578379,4.463254833910732,1.0272182895184063,-81.1634451450989
1761285198.8028321,-26.09924343865933,-0.30153824642222676,0.7675665403015904,-0.051605220148051974,10.724820145785545,1.2394020547007938,-77.48918926001053
1761285198.8128362,-26.829293891473377,-0.3334618781753041,0.7720857751169294,-0.07432637546047448,16.25371254406351,1.0593715908610812,-73.56678892661417
1761285198.8228338,-27.527112765300515,-0.36388367196294896,0.7728896828865662,-0.09274833003333055,20.836682452330926,0.1097354372780899,-69.31167147112724
1761285198.8328276,-28.186328948611568,-0.38892890198925545,0.7673630716266131,-0.10393493694122342,24.308422818480953,-1.9410061265114105,-64.61957917841958
1761285198.8428426,-28.79786199574471,-0.4050032211698736,0.7532245724287406,-0.10522036619816177,26.57465156203781,-5.345312946340787,-59.36729040201047
1761285198.852885,-29.350067560507867,-0.4093242119506041,0.7289611133688488,-0.09463412334910047,27.63211571959753,-10.250453421861957,-53.41729862373507
1761285198.862878,-29.82914839234933,-0.40032991603382956,0.6942631310558836,-0.07133525589042762,27.58217331185716,-16.682737628403117,-46.62709525562592
1761285198.873483,-30.21981213776503,-0.37788558275258327,0.6503885591989784,-0.035992704314020144,26.634957126911242,-24.543624553218773,-38.86322077744632
1761285198.883006,-30.506142772790117,-0.34326711612733907,0.6003856058148715,0.008951133194256328,25.102083352891277,-33.61681766287559,-30.019745078590553
1761285198.8928711,-30.672650316508882,-0.29895432143953643,0.5491148606474183,0.05919186099759371,23.37724536030157,-43.58335124020859,-20.04026366110475
1761285198.902848,-30.70546216950165,-0.24829567331260186,0.5030275077322284,0.10870177688468263,21.905459720575323,-54.04060286758788,-8.941727254223588
1761285198.9131238,-30.593607249857136,-0.19510737474783765,0.4696787661935329,0.1501362543135858,21.142937633140857,-64.52156274989223,3.162579849562797
1761285198.9228473,-30.330317143555863,-0.14325716978333514,0.4569868123869687,0.17552217056775238,21.51055914959338,-74.51231501400781,16.044626543996237
1761285198.933103,-29.914233009440856,-0.09627276972454155,0.47228846384425105,0.17719958261814872,23.344897877787727,-83.46782621417047,29.35216327826275
1761285198.9431138,-29.350376744771353,-0.057013065239696036,0.5212890391138152,0.14893502033845377,26.851721583015152,-90.82802648023181,42.61248261833822
1761285198.9534001,-28.650735485715018,-0.027445547466371626,0.6070446032181218,0.08707316419180203,32.06768148876713,-96.03725017164301,55.25262662154994
1761285198.9634974,-27.834329606547083,-0.008575538502190545,0.7291393694392122,-0.008448033029897831,38.83613704653995,-98.57010800708117,66.63717203550878
1761285198.973541,-26.926683838970426,-0.0005579644319370257,0.8832215455875779,-0.13341814099391608,46.80237034984131,-97.96582072788337,76.12187767112691
1761285198.982849,-25.958686220925202,-0.0029820623237546574,1.0610328572419114,-0.27920946808115105,55.431661196902176,-93.87116009566323,83.11832875006961
1761285198.99289,-24.964885610272308,-0.015260708277909239,1.2510103854857706,-0.43333033536032467,64.05103684370394,-86.08968541684068,87.16190008061666
1761285199.0028806,-23.98133715156127,-0.037002282093023316,1.43945935801463,-0.5807603823893797,71.91246262968198,-74.63230300922051,87.97360245742671
1761285199.0133226,-23.043155144878693,-0.06822288864792915,1.6121973551497328,-0.7060137555777297,78.27219992428455,-59.76181800245553,85.50620649573095
1761285199.022846,-22.181974094221914,-0.10929027750479867,1.7564528390145333,-0.795669254236607,82.47814343921797,-42.022629933859946,79.96661079255014
1761285199.0328534,-21.423547381032837,-0.1605764697252116,1.8626656855366104,-0.8408507477915124,84.05419377590235,-22.246445234461312,71.80953076484484
1761285199.0428565,-20.785721623501534,-0.22190153571480947,1.925735785679892,-0.8389451839815185,82.76854152512514,-1.526051134546296,61.70173666023975
1761285199.0528452,-20.277004790092136,-0.2919233059244999,1.9453276996013293,-0.7939226639967909,78.67231705579333,18.847972419573733,50.46062678469624
1761285199.0631323,-19.895891812092703,-0.36763740024518177,1.9251512876863983,-0.7151015332890474,72.0981165087495,37.487895129476115,38.975213039225004
1761285199.0728753,-19.631027357082324,-0.444122470646669,1.8715571087483311,-0.6148538289162683,63.61545648014293,53.04028494331263,28.120747524986516
1761285199.082843,-19.46218987302368,-0.5146355539430769,1.7920185709029566,-0.5061041929518335,53.950774228475346,64.33397172325647,18.679135810685075
1761285199.092861,-19.361997839451195,-0.5711326755474613,1.6939881616880954,-0.4003261463516818,43.88895614427981,70.5239077748438,11.275310752546943
1761285199.1028535,-19.29818523906314,-0.6052352834493081,1.5843345274815634,-0.30632676809840526,34.176990264766715,71.20782843912036,6.335410625707562
1761285199.1128478,-19.23627096616818,-0.609570857561954,1.4692763582830255,-0.22977840118769,25.4466239995698,66.4950713039353,4.067521852499587
1761285199.1228805,-19.142441879399556,-0.5792899743636631,1.3545441603131483,-0.17331192645048374,18.16437769309261,57.013615982842815,4.461800004657285
1761285199.133309,-18.986456602671833,-0.5134263056943402,1.2454746740181684,-0.13696425946852464,12.608574739290026,43.8507519133545,7.305307043220829
