timestamp,linear_acceleration_x,linear_acceleration_y,linear_acceleration_z,angular_velocity_x,angular_velocity_y,angular_velocity_z
1761283371.1619365,-0.0691375252786317,0.9741731077422306,-0.07911824301400587,0.04720270536238105,-0.03537512505466333,-0.4072455777916561
1761283371.171935,-0.06985803220110201,0.9755187594509118,-0.08156525213986694,0.04651898328078939,-0.052418166275311116,-0.4321528420838471
1761283371.181953,-0.07047189269929573,0.9768260147202154,-0.08384537492392721,0.04530278218323324,-0.07411055397575886,-0.4589352538432886
1761283371.1927853,-0.07089613358303198,0.9780472587310949,-0.0857916624879551,0.04302523681401966,-0.1024629222631536,-0.48847675597290063
1761283371.2036638,-0.07106335458883263,0.9791339707577619,-0.08727972457626476,0.039375809432603624,-0.1382897470603784,-0.5209611051223503
1761283371.212518,-0.0709297442591141,0.9800380762580211,-0.08823967484354346,0.0343340497879284,-0.18091744620843292,-0.5556943322724036
1761283371.2224658,-0.070481688542794,0.9807146663594802,-0.08865804059214422,0.028180916293337542,-0.22811970177031765,-0.5910920564804383
1761283371.2321274,-0.06974020432963667,0.9811266369118589,-0.08857144741757278,0.021453565974472222,-0.276302580991658,-0.6248389407803047
1761283371.24203,-0.06876228131790241,0.9812507922748211,-0.08805523374177543,0.0148592775413746,-0.3209227221917702,-0.6541941320801098
1761283371.2520423,-0.06763863561054201,0.9810841032446953,-0.08721008964679543,0.009170487631244064,-0.3570845625795341,-0.6763877588312411
1761283371.262005,-0.06648788032035437,0.9806485542909865,-0.08614905827537424,0.005123342647606545,-0.3802340663382866,-0.6890366613144675
1761283371.2735844,-0.0654471454314286,0.9799932156716172,-0.08498645576327359,0.0033369223815089637,-0.3868509544406298,-0.6905068282028585
1761283371.2826576,-0.064659155870006,0.9791925438537602,-0.08382961552705383,0.004260411070751938,-0.37503925901675905,-0.6801648419693189
1761283371.2919698,-0.06425645104415323,0.9783404540411276,-0.0827736363721583,0.008144155282858959,-0.3449251096705044,-0.6584858972236705
1761283371.3019407,-0.06434462222759738,0.9775405511973767,-0.08189842568005981,0.015022726142413175,-0.2987908623578721,-0.6270144591572752
1761283371.3119318,-0.06498723645838876,0.9768938450389405,-0.08126663792602516,0.02469758942585874,-0.2409079113196223,-0.588198206888538
1761283371.32194,-0.06619502848258053,0.9764858851369312,-0.08092122026877256,0.03671393600195705,-0.17707564072019857,-0.5451313138344775
1761283371.3319435,-0.06792131372142639,0.9763754209448033,-0.0808824211741914,0.05033747846616368,-0.11392358338436172,-0.5012480845496251
1761283371.34194,-0.07006481270026803,0.9765865587643605,-0.08114563684110192,0.06454764622266301,-0.05807708832543031,-0.4600052961966699
1761283371.352138,-0.07248006938349216,0.9771058998576564,-0.08168215016108363,0.07806853708577775,-0.015313794867390693,-0.4245849002057855
1761283371.3619485,-0.07499418466970692,0.9778851617247434,-0.08244397189102533,0.0894552734845176,0.010157179038209348,-0.39763950228575506
1761283371.372177,-0.07742710115697264,0.9788485436575913,-0.08337213798881558,0.09724163024971362,0.01618046847325443,-0.38109209156723434
1761283371.3825727,-0.07961204997563481,0.97990318284037,-0.08440621915499692,0.10013792148849628,0.0028307994648075333,-0.37599201769833446
1761283371.3919678,-0.08141330487128595,0.9809508393293469,-0.08549240051108234,0.09725010355903389,-0.027739289776043213,-0.3824254152926406
1761283371.4019613,-0.08273935150561637,0.9818992173698264,-0.08658822801466416,0.08827672228544259,-0.0717424431878616,-0.3994812373367995
1761283371.4119911,-0.08355012872254264,0.9826715434244765,-0.08766326316983221,0.07363517219973328,-0.1244034847948935,-0.4252806221065173
1761283371.421916,-0.08385725711900253,0.9832130675812687,-0.08869586743290296,0.054476811984182985,-0.18069484262396457,-0.4570822442950613
1761283371.43193,-0.08371691877840141,0.9834934592537696,-0.08966708522735131,0.03257160706960359,-0.23604026884559073,-0.4914749703776675
1761283371.4423034,-0.08321655890675976,0.983504947507287,-0.09055331119829789,0.010071547900091857,-0.28688373595977046,-0.5246598930731208
1761283371.451927,-0.08245827551721728,0.9832573256044784,-0.09132019017150685,-0.010810318872936629,-0.33105186071452164,-0.5528085260213118
1761283371.461933,-0.08154283458511494,0.9827720248135213,-0.09192059973261693,-0.028148547973418796,-0.36787502680328066,-0.5724659283442934
1761283371.4719522,-0.08055811459635494,0.9820776635057165,-0.09229886254786393,-0.04061614980718264,-0.39806659806811595,-0.5809502129748849
1761283371.4819338,-0.07957430482503207,0.9812085029396204,-0.09240130882299598,-0.047696346161248994,-0.42338830121985466,-0.5766879145706107
1761283371.4920568,-0.07864579531675772,0.9802056187184279,-0.09219073530118543,-0.04975212404508088,-0.4461548104892638,-0.5594238789622833
1761283371.502307,-0.07781732203322919,0.9791192122984383,-0.09166039539034872,-0.047939796023799906,-0.4686533739676371,-0.5302583223969132
1761283371.5119534,-0.07713057854573897,0.9780098865076635,-0.09084280671041431,-0.04398546027479091,-0.4925723380804528,-0.4914910540353462
1761283371.5220304,-0.07662775656091232,0.9769470399570915,-0.08981007968970402,-0.039870684883756446,-0.518539376807814,-0.44628796170745216
1761283371.5320346,-0.07635015244961543,0.9760036780693253,-0.0886650854049503,-0.03749053579583451,-0.5458600895479994,-0.3982205065494427
1761283371.542059,-0.07633229814670668,0.9752484256138303,-0.08752563512450671,-0.038350828745712245,-0.5725185594808987,-0.3507569863365912
1761283371.5519607,-0.07659405709618668,0.9747366388311457,-0.08650595810988936,-0.04336061563096982,-0.5954571615372363,-0.3067958091230306
1761283371.5619426,-0.07713390188740887,0.9745027486579589,-0.08570026995336208,-0.05275084078987732,-0.6111009132760855,-0.2683202547802268
1761283371.5724316,-0.0779258403683406,0.9745554425138182,-0.08517190920715907,-0.06611734710579205,-0.6160410636974805,-0.23622436368066624
1761283371.5819693,-0.07892077236036389,0.9748765475038279,-0.08494926683196154,-0.08255817351733621,-0.6077531294415254,-0.21032236335242205
1761283371.5919273,-0.08005156805910027,0.9754237950946134,-0.08502778654152386,-0.10086154523082301,-0.5852057569134147,-0.18952180160546106
1761283371.6019301,-0.08124052208920421,0.9761369056903156,-0.08537621960606437,-0.11970338888703408,-0.5492260615436706,-0.17211928159042778
1761283371.6119363,-0.08240779818737451,0.9769456431361081,-0.0859448959541167,-0.13782538151709717,-0.5025272119495222,-0.15616662997411268
1761283371.6219525,-0.0834795399360345,0.9777780352554107,-0.08667383968612959,-0.15417900064439874,-0.4493699000749495,-0.13985119724214978
1761283371.6321752,-0.08439445042438833,0.9785671500277309,-0.08749919931441581,-0.16803262593905055,-0.394906482984997,-0.12183480171777562
1761283371.6419523,-0.08510806479689827,0.9792555750755538,-0.08835762308495691,-0.17904437519160082,-0.3443251565722049,-0.10150157303172878
1761283371.6521971,-0.08559459658366338,0.9797977539881723,-0.08918934241555887,-0.18730202990580158,-0.30195458404312936,-0.07907604537700513
1761283371.6619384,-0.08584674615019726,0.9801611469051931,-0.08994108209617209,-0.1933254615050064,-0.27049856756829627,-0.05558918055325571
1761283371.6719441,-0.0858739674278396,0.9803273176191061,-0.09056927391185118,-0.19802177573254998,-0.25054619651260157,-0.03269130382752041
1761283371.681968,-0.0856996140283022,0.9802934057461992,-0.09104309044794046,-0.2025841332573408,-0.2404523599534215,-0.012336254272269902
1761283371.6922214,-0.08535743670948519,0.9800734996287039,-0.09134638100067122,-0.2083335711833647,-0.2366163360667421,0.0036133868468997935
1761283371.7036932,-0.08488795278872101,0.9796987823005651,-0.09147777155281252,-0.2165170516635281,-0.23411308498201094,0.013790964437052813
1761283371.7125766,-0.08433495034502736,0.9792153106571714,-0.09144862719956247,-0.22809066258722835,-0.22756538484207436,0.017664414418401456
1761283371.7221553,-0.08374194686443372,0.9786789422392853,-0.0912791719789841,-0.24353002639250876,-0.21209899657747694,0.01574053858919164
1761283371.73206,-0.08314827062812351,0.9781479519518741,-0.09099374504743521,-0.26271474126380756,-0.18420849129577724,0.009587161582373023
1761283371.742457,-0.08258482024351117,0.9776747371046358,-0.09061648272876097,-0.2849242613292963,-0.14238114746594305,0.0016561859245254158
1761283371.7524981,-0.08207021185278299,0.9772982792477887,-0.09016832667443538,-0.3089579815842135,-0.08737492373477664,-0.005072838218727471
1761283371.7621632,-0.0816084397482496,0.9770387809994537,-0.08966556761659543,-0.33335929120265023,-0.02211315822613507,-0.007572302657137814
1761283371.7722955,-0.08118904245307813,0.9768955065292569,-0.08911976757197834,-0.35669376792695456,0.04876990458377711,-0.0032840064857504346
1761283371.7821174,-0.0807900839020683,0.9768484422995415,-0.08853886474346241,-0.3778155046223922,0.11963668891979153,0.009423784278457253
1761283371.7920196,-0.0803832863980071,0.9768636582635027,-0.08792906959489494,-0.39605745220868,0.1846719867964413,0.030950513554682004
1761283371.8028212,-0.07993988627746644,0.9769011580960165,-0.08729672877238352,-0.4113019396151142,0.23868540523272203,0.06037271183005405
1761283371.8129356,-0.07943568823959771,0.9769232258610507,-0.08664922850752416,-0.4239217366684412,0.2777754518868747,0.09559122098843825
1761283371.8225694,-0.07885433365871887,0.9769013857761856,-0.08599454193666954,-0.43461899749893856,0.29978680875893693,0.13369092911643293
1761283371.8327718,-0.07818855195768334,0.9768208092415366,-0.08533971272490434,-0.44421481551780706,0.30453964145895535,0.1714434211586713
1761283371.8427913,-0.07743989177816994,0.9766817283272251,-0.08468893660793675,-0.45344692421815896,0.29384170218678757,0.2058530207186046
1761283371.852742,-0.07661800536158185,0.9764980247890178,-0.08404210693495384,-0.4628188913825538,0.2713061461728335,0.23463802489925836
1761283371.862073,-0.07574057681846982,0.9762937503899498,-0.08339479707392661,-0.4725209369543644,0.24199753088284046,0.2565535688090227
1761283371.8723104,-0.07483415062038315,0.9760986738964498,-0.08274019198328798,-0.48242133593626,0.21192783100525492,0.2714983136003353
1761283371.882148,-0.0739348982662881,0.9759437625406749,-0.08207238303550181,-0.4921143235724754,0.1874328450713688,0.2803966888646721
1761283371.893479,-0.0730877099234696,0.9758570001305777,-0.08138964683724259,-0.5010058079190381,0.17447824700155581,0.28489890140955737
1761283371.9020267,-0.07234249999100129,0.9758597015438863,-0.08069669331983594,-0.508419192292377,0.1779674728514382,0.2869781384087026
1761283371.912354,-0.071748021375447,0.9759637621961217,-0.08000591245236699,-0.513706471993618,0.20114060284758728,0.2885188813299281
1761283371.9219472,-0.07134492391301274,0.976170684294529,-0.07933816866326349,-0.5163514997198434,0.2451547599726193,0.29098043990333083
1761283371.931983,-0.07116038637980775,0.9764731315960977,-0.07872327358903876,-0.5160524251316084,0.3089173391706281,0.29519131548466715
1761283371.942003,-0.07120605066472006,0.9768589658066282,-0.07819953649249786,-0.5127708226934761,0.38920536900512853,0.30129279573355494
1761283371.951952,-0.07147955732991312,0.9773166001168526,-0.0778114680974827,-0.5067381512584077,0.48105499951743774,0.30881523442338044
1761283371.9620588,-0.07196847065607681,0.9778396990458075,-0.07760499667198552,-0.4984164323251075,0.5783563414116946,0.3168465368694091
1761283371.9719942,-0.07265444925746935,0.9784291424985887,-0.07762027473707633,-0.48841831415804715,0.6745541314231748,0.32424352975303583
1761283371.9819531,-0.07351559287488929,0.9790908585948012,-0.07788306713125642,-0.4774004217934153,0.7633433501716408,0.3298417516450251
1761283371.991958,-0.07452596997265537,0.9798295485598543,-0.0783965137153798,-0.465951166196085,0.8392618175082227,0.3326325748698832
1761283372.0028408,-0.07565275313071095,0.9806400408448274,-0.07913540435313776,-0.454497351628891,0.8981123951728202,0.3318922754594304
1761283372.0127249,-0.07685236029793933,0.9814992169620217,-0.08004481630849043,-0.4432505818147245,0.9371861034987911,0.327260426531952
1761283372.022119,-0.07806729262273689,0.9823615756522228,-0.08104413528574145,-0.43220458629114356,0.9552948616737678,0.31877157346241963
1761283372.0344245,-0.07922524655053947,0.9831606225955655,-0.08203634098898385,-0.4211810369489036,0.9526510488247008,0.30684433279371653
1761283372.0422523,-0.0802417299643364,0.9838167316281394,-0.08292124859792345,-0.4099087063138979,0.9306458011185708,0.2922288762113724
1761283372.0519798,-0.08102670663363702,0.9842501653013704,-0.08361041244077888,-0.39811374681821904,0.8915789009996326,0.27591244510593343
1761283372.0620508,-0.08149471819569147,0.9843961191197889,-0.08404087486529362,-0.38560067666336106,0.838385024433067,0.25898742554091747
1761283372.072013,-0.08157684321752999,0.9842179119701338,-0.08418505659669644,-0.37231284751564253,0.7743889326185194,0.24249715322254164
1761283372.0825245,-0.08123216676873629,0.9837151914816037,-0.08405474510367382,-0.3583705118167284,0.7031077086136382,0.2272855777808177
1761283372.0920641,-0.08045636682288135,0.9829256402385139,-0.08369814175243896,-0.344086318880834,0.6281022143170643,0.21388225286100476
1761283372.1019485,-0.07928565413544177,0.9819203374446326,-0.08319029069630353,-0.3299518109296719,0.5528653268070522,0.20245099714044806
1761283372.1120815,-0.0777954854740128,0.980794295604494,-0.08261892633700108,-0.31658280275220535,0.4807249967114984,0.19281908058689812
1761283372.12199,-0.07609468260361765,0.9796545042313065,-0.08206923910229064,-0.30461589521571564,0.41473891948628105,0.18458617578045167
1761283372.1319513,-0.0743162591222277,0.978607726435911,-0.08161128523912652,-0.29456435830968886,0.35756604211628895,0.17729297223090804
1761283372.141947,-0.07260625426030308,0.9777494491082054,-0.08129244011498375,-0.286661683772853,0.31131597373218484,0.17061371592619365
1761283372.1521223,-0.07111149475126227,0.9771545941706121,-0.08113522110697077,-0.28073454936775716,0.27739406601202476,0.16452930845771951
1761283372.1625168,-0.069966890493347,0.976870482191558,-0.08113912825316116,-0.2761466423439508,0.25637000130738463,0.1594396221518281
1761283372.1719778,-0.06928296036548509,0.976912830626753,-0.08128452582430369,-0.2718402602277621,0.24789750420045345,0.15618439952332366
1761283372.1819463,-0.06913469715642002,0.9772655337792389,-0.08153704780861752,-0.2664790292575094,0.25070390546887794,0.15595913716872556
1761283372.1919842,-0.06955311025377334,0.9778842958130213,-0.08185202492981553,-0.2586700675300778,0.262655120876713,0.1601327774369255
1761283372.2028773,-0.07052054806235256,0.9787032279348896,-0.0821792051953885,-0.24722386569995705,0.2808883629068974,0.16999444973204442
1761283372.2119434,-0.07197041362474782,0.979642889036721,-0.08246814130306407,-0.23139870098355567,0.3019954611698686,0.18647334118946488
1761283372.2219553,-0.07379141929010295,0.9806183253896545,-0.08267419050996386,-0.21107571875070189,0.32223776746053473,0.20988592157956645
1761283372.2319717,-0.07583619216162851,0.9815463308562744,-0.08276450370255292,-0.1868226827730037,0.33777989265183656,0.23976578346183502
1761283372.242288,-0.0779338490982572,0.9823518395674574,-0.08272303308147921,-0.15982824659749884,0.34493881560423345,0.27482145134408864
1761283372.2519383,-0.0799058587996516,0.9829735007867358,-0.08255359653422793,-0.1317188342761533,0.34044913071318605,0.31304600073585115
1761283372.261935,-0.08158375354779339,0.9833680129581567,-0.08228021259059348,-0.10429713236434833,0.3217392108958689,0.35197116335488643
1761283372.2719514,-0.08282627687142909,0.9835123115589942,-0.08194415517215611,-0.07925605698200451,0.2871978120412585,0.3890236490819641
1761283372.2825792,-0.08353321103678651,0.9834029653439952,-0.08159771891730058,-0.05792194339618706,0.23639279781097267,0.42191258281963295
1761283372.2919524,-0.08365388024216437,0.9830531809734178,-0.08129559886738894,-0.041068886064104866,0.17019299604069735,0.4489652041627029
1761283372.3029,-0.08318962764837776,0.9824887863860299,-0.08108558990341469,-0.02882883193354936,0.09074907848987634,0.46933921811347207
1761283372.312803,-0.08219061273100213,0.9817446652014981,-0.08100051394440815,-0.02070490557438822,0.0013124045431611522,0.4830711248181829
1761283372.3219414,-0.08074787038318233,0.980862460467021,-0.08105287997499698,-0.01568170506083985,-0.09409279210156422,0.49096006665828645
1761283372.3324742,-0.07898192808918612,0.9798895276016788,-0.08123307240381397,-0.012415937959022644,-0.19108976359796453,0.49432395703291576
1761283372.342762,-0.07702946081883146,0.9788783995684786,-0.08151115190858362,-0.009481842398070294,-0.2853804895819152,0.49468916565202853
1761283372.3528357,-0.07502944133570284,0.9778855934786678,-0.0818417977468954,-0.005637051882163896,-0.373099809479509,0.49348234631077065
1761283372.3626277,-0.07311014784880739,0.9769687395105214,-0.08217151880551847,-6.674752841175611e-05,-0.4510226157991701,0.49178458281710546
1761283372.3719475,-0.07137835072694956,0.9761818811838124,-0.0824469833434776,0.007440005107993707,-0.5165934597878274,0.49018932622064815
1761283372.381968,-0.06991191980438753,0.9755699356550211,-0.08262315529913639,0.016423808499266404,-0.5677986107649736,0.48878263817279755
1761283372.3926642,-0.06875685728921685,0.9751639090795244,-0.08266989145799347,0.025824684353533606,-0.6029488847488135,0.4872412964987698
1761283372.4032035,-0.0679293507088332,0.9749780893246459,-0.0825758681036543,0.0341862714485625,-0.6204729968514826,0.4850235451106338
1761283372.4120553,-0.06742268615801195,0.9750094447225387,-0.0823492608041838,0.03995831062172244,-0.6188252179102536,0.4816102885539606
1761283372.4226391,-0.06721759450074756,0.975238678967463,-0.0820153620891568,0.0418327314375897,-0.5965841168899163,0.4767437534935883
1761283372.432317,-0.06729320866292088,0.9756323701410291,-0.08161202148166685,0.03903782490231041,-0.5527659544536525,0.470608984911324
1761283372.4422288,-0.0676351283593033,0.9761461321290019,-0.08118414825295171,0.031525325544847736,-0.4873093853987433,0.4639131136793679
1761283372.4526002,-0.06823773450380069,0.9767290939365855,-0.08077837178669238,0.0200112929970778,-0.40162503446777914,0.4578379511785602
1761283372.4620779,-0.06909985911670073,0.9773297629093769,-0.08043854718707819,0.005865050765911534,-0.2990621617632293,0.45386943202368196
1761283372.472272,-0.07021542848228243,0.9779026417259572,-0.08020251404039955,-0.009126407952921975,-0.18513834609943886,0.4535358289488898
1761283372.4819696,-0.0715624544987786,0.9784142379368242,-0.08010028082514228,-0.02306507054028783,-0.06741242199933463,0.4581080180163893
1761283372.4937615,-0.07309389962215325,0.9788467959223378,-0.0801532924033867,-0.03425325474679899,0.045048424239467255,0.46832428146404914
1761283372.503979,-0.07473292447243003,0.9791985298024213,-0.08037389188033116,-0.04144713860774492,0.14256551644853527,0.4841976792996608
1761283372.5121417,-0.0763739246733038,0.9794803032752397,-0.08076416629935736,-0.04400941201613771,0.21598179006017665,0.5049474292275525
1761283372.522024,-0.07788991127991446,0.9797099708726237,-0.0813141377551171,-0.04194628408432644,0.2578471581524093,0.5290706499007932
1761283372.5322502,-0.07914570845508263,0.9799062221405058,-0.08200002930999302,-0.03584109452186965,0.263458122597326,0.5545423611582516
1761283372.542245,-0.0800149894401357,0.9800836377846075,-0.08278350748857671,-0.026714500409831126,0.23158065871836322,0.5791057782569666
1761283372.551981,-0.08039794416735649,0.9802501653884315,-0.08361250882618065,-0.01584707447467433,0.1647431900333576,0.6005975854805914
1761283372.5645947,-0.08023604043568343,0.9804075459759125,-0.08442399811185626,-0.0045961873582587316,0.06906016693147789,0.6172483519931147
1761283372.5737133,-0.07952112260260251,0.980554311710122,-0.08514894675319269,0.005770311593963358,-0.046378823461944774,0.6279074570730606
1761283372.5825262,-0.07829764157900948,0.9806899824817149,-0.08571960548581563,0.014210759143006738,-0.1704573574485112,0.632161540401939
1761283372.5926557,-0.07665837015879999,0.9808184880837978,-0.08607843436805696,0.02001015791747883,-0.2911813435150042,0.6303395357924054
1761283372.6027431,-0.07473491067110802,0.980949081962853,-0.08618707914831823,0.022840684675238702,-0.3968812332978902,0.6234193081802515
1761283372.6120586,-0.07268459847123691,0.981094098335845,-0.0860332157045893,0.02277987181655955,-0.47733370697817756,0.612865585663601
1761283372.6220837,-0.0706753319790559,0.9812643041877408,-0.08563337073517313,0.02028603336479274,-0.5246995939680896,0.6004332804551922
1761283372.6363163,-0.06886968954116833,0.9814636182579212,-0.08503079976487007,0.016133224762177573,-0.534209878897174,0.587964624961017
1761283372.6426888,-0.06740960506584061,0.9816851728421913,-0.08428866561390506,0.011311409198446622,-0.5045616842786182,0.5771972155729346
1761283372.6520042,-0.06640285883560938,0.9819100454427997,-0.0834798201706118,0.006901361059314706,-0.43800560670827654,0.5695905794135517
1761283372.6619673,-0.06591256028794261,0.9821089073596775,-0.08267537241967751,0.003937600536068451,-0.34011687747679575,0.5661770774653218
1761283372.6721447,-0.06595068901399972,0.9822460015424855,-0.08193468432145334,0.003275569709627895,-0.21925478906263426,0.5674482894620699
1761283372.682147,-0.06647669851360655,0.982284607283598,-0.08129912254521118,0.005480507373088421,-0.08573749101174391,0.5732943100250336
1761283372.6924913,-0.0674019465664736,0.982193206010669,-0.08079075053938777,0.01075408997987995,0.04920494309211293,0.5830138099128565
1761283372.7019763,-0.06860000879920163,0.9819515313026294,-0.08041553427459615,0.018910306947056824,0.1745951484177713,0.5954042679376792
1761283372.7119615,-0.06992184836032869,0.981555483186043,-0.080169224982095,0.029404966415943392,0.28085380287790024,0.6089264663429816
1761283372.7219546,-0.07121370500532757,0.9810197069288161,-0.08004353188296119,0.041415560682831955,0.3607757795444787,0.6219203875292573
1761283372.7319653,-0.072334810268958,0.9803768031402631,-0.08003062134681678,0.05396119476641788,0.41020119119765336,0.6328367111306572
1761283372.7419832,-0.07317206183987189,0.9796729022417647,-0.08012490049517311,0.0660455983057366,0.4282870368199546,0.6404436298342974
1761283372.7522368,-0.07364978692821968,0.9789605539514378,-0.08032202189163663,0.07680025314263123,0.41734844255013864,0.6439747521354363
1761283372.7619724,-0.07373411380654565,0.9782909139101533,-0.08061594295717264,0.08560221495619653,0.38231078234719973,0.6431985047644982
1761283372.771973,-0.07343228696903376,0.9777073490908028,-0.08099549836357811,0.09214518441633102,0.32987880154833993,0.638406824146074
1761283372.7820373,-0.07278735571406343,0.9772416836971176,-0.08144200608027918,0.09645254401267883,0.2675702678711734,0.6303347791215337
1761283372.7922308,-0.07186894218186461,0.9769130065155037,-0.08192891947097854,0.09883462426251532,0.20276987039864747,0.6200305250559985
1761283372.8025336,-0.07076181771558032,0.9767281540391058,-0.0824237351922642,0.09980588699344546,0.14193537016580082,0.6086982017733665
1761283372.8124437,-0.06955498396824883,0.9766830354016984,-0.08289153562760852,0.0999866714687876,0.09004350893609338,0.597537428915608
1761283372.8219786,-0.0683336879188297,0.9767645126703561,-0.08329899051958724,0.10001414454448053,0.05031196651071814,0.5876021350650373
1761283372.8335521,-0.06717529133793254,0.9769529258786996,-0.08361773576005223,0.10047701772274009,0.024186809241499078,0.5796972262599223
1761283372.842017,-0.06614822881533927,0.9772251258449078,-0.08382676487031547,0.10187324048605895,0.011548657522837407,0.5743237933469709
1761283372.8520246,-0.06531230314472707,0.9775572551077998,-0.08391419617343686,0.10457786198759846,0.011067086758309903,0.571673883953473
1761283372.8635716,-0.06471847285218398,0.9779262473706378,-0.0838788937519634,0.1088069233465328,0.020621119289284732,0.5716666467527988
1761283372.8719597,-0.06440693449985148,0.9783096173666326,-0.08373190995786645,0.11457408956601252,0.03770425310405347,0.5740108391261811
1761283372.8830194,-0.06440335796284452,0.978684214186755,-0.08349712585078724,0.12165369097982476,0.059746768427165343,0.5782757983307442
1761283372.891992,-0.06471408478563385,0.9790253029609594,-0.08321033731634536,0.12957620988450658,0.08431565129382533,0.5839546723445483
1761283372.9028,-0.06532158669995403,0.9793071168190806,-0.08291641851973067,0.1376811561215898,0.10918773083131823,0.590509177309646
1761283372.911991,-0.06618154350137974,0.9795051501986812,-0.08266470474119775,0.14523609391693387,0.13232479098830327,0.5973925593163864
1761283372.9220495,-0.06722273675949253,0.9795995418692427,-0.08250305771031385,0.15160524382442458,0.15180155844051874,0.6040550409703792
1761283372.9325325,-0.06835056178378414,0.9795783751134441,-0.08247125697534054,0.15642655940202155,0.16574392244697594,0.6099421671436555
1761283372.942061,-0.06945421665279052,0.97943982357556,-0.08259458439686003,0.1597428458734902,0.17232497708644462,0.6144986560792862
1761283372.9521163,-0.07041674717761819,0.9791927083095486,-0.08287871650766661,0.16203821555783157,0.16984338549736602,0.6171864597535169
1761283372.9619775,-0.07112663144640308,0.9788557211108248,-0.08330709716052466,0.16415746288903882,0.15687877725494062,0.617517165967126
1761283372.9722517,-0.0714896838767469,0.9784557766768684,-0.0838416741353613,0.16712448918066292,0.13249179717450338,0.6150910371960125
1761283372.9820995,-0.07144035742789158,0.978025684266686,-0.08442727770976469,0.17191059453467444,0.09642072071805169,0.6096328397704895
1761283372.9919794,-0.07095149815022532,0.9776011090918499,-0.08499913848825982,0.1792191020989191,0.0492262931490754,0.6010185454978316
1761283373.0019724,-0.07004116053344904,0.9772170004969561,-0.08549227692649843,0.1893441373406808,-0.007650735895736863,0.5892931488816107
1761283373.0119536,-0.0687746850549389,0.9769040712267532,-0.08585101999282269,0.20213467465625812,-0.07193591123700444,0.5746836804528478
1761283373.0219975,-0.06726051278627265,0.9766860174886342,-0.0860369706463607,0.21706191902685762,-0.14066917732351664,0.5576111344066483
1761283373.0319657,-0.06563932057007965,0.9765778262392402,-0.08603431615961729,0.23335922450832566,-0.21043746012429645,0.5387020090948775
1761283373.0419707,-0.06406745049969226,0.9765850904922982,-0.0858519799791294,0.2501862907810928,-0.27766241152723614,0.5187968806791255
1761283373.0519822,-0.06269672902203118,0.9767041411598507,-0.08552245881225316,0.2667681045614139,-0.3389061968219643,0.4989504991100432
1761283373.0620923,-0.06165366764723513,0.9769229558805529,-0.08509738010836049,0.28247479344983073,-0.3911568712774363,0.4804146800582173
1761283373.0719671,-0.061021782256815135,0.9772228859662444,-0.08464022686131879,0.2968350388634082,-0.4320607582309557,0.46459229565092186
1761283373.0825372,-0.06083083103471284,0.9775811031784313,-0.08421738159433931,0.30950165728989404,-0.46008013950106724,0.4529504620431815
1761283373.091967,-0.06105553324424918,0.977973424642178,-0.08388926420416608,0.3202033066933725,-0.4745678644938527,0.44688620212549873
1761283373.102222,-0.06162390839627106,0.978376942432573,-0.08370334408485733,0.3287160390807812,-0.47576439223005573,0.44754837966964206
1761283373.1119568,-0.06243268805729206,0.9787717409404469,-0.08369002119635593,0.33487347310511817,-0.46473445613756287,0.45563239133107064
1761283373.1219714,-0.06336555399121481,0.9791411391165582,-0.08386126935819095,0.33861164620144457,-0.4432656690954155,0.47117520058260176
1761283373.131962,-0.06431008149659158,0.9794705033257485,-0.08421126600141839,0.3400248118893258,-0.41374734395725865,0.4933857760019928
1761283373.1419528,-0.06517085066460354,0.979745449420726,-0.08471826121568996,0.3394002718668463,-0.3790365833748388,0.5205492064661079
1761283373.1520998,-0.06587788319668358,0.9799506496240235,-0.08534726087053338,0.3372063091479074,-0.3423066235796077,0.5500405920683161
1761283373.162003,-0.06639037485871586,0.9800702671384359,-0.08605329545591826,0.3340240213358365,-0.30686704861348013,0.578474945399936
1761283373.1719482,-0.06669580072557453,0.9800904292556647,-0.08678519467908778,0.3304344403494778,-0.27595119406558544,0.601999868915739
1761283373.1819491,-0.06680470044848996,0.980003379003735,-0.08749008256595302,0.3268891405681707,-0.25248081210056333,0.6167100338722314
1761283373.1919568,-0.06674232717087594,0.9798122579047053,-0.08811898527181267,0.3236000617074646,-0.23883397353683963,0.6191324501167659
1761283373.2019575,-0.06653951024075208,0.9795350416122821,-0.08863346864340438,0.32048074465471105,-0.23665010762779376,0.6067079956778769
1761283373.212,-0.06622556078891184,0.9792060632476389,-0.0890120906231281,0.3171582003500009,-0.2467014856063304,0.5781857866722868
1761283373.2220435,-0.06582526217007503,0.9788739271697467,-0.08925452270934317,0.3130560957312174,-0.26884589459756525,0.5338571173215102
1761283373.231962,-0.0653602813829523,0.9785955485088123,-0.08938139931473424,0.3075311520300302,-0.30205815374863393,0.4755833847679659
1761283373.2419739,-0.06485346435901984,0.978427368895961,-0.08942931414537367,0.3000307874047686,-0.34452624663746184,0.40660973071850526
1761283373.2521882,-0.06433319673742888,0.97841585975252,-0.0894420663996104,0.2902345629566716,-0.39379479756299346,0.3311923113161124
1761283373.2619593,-0.06383506849457439,0.978589576115594,-0.0894604287120646,0.27814624838315316,-0.44694192987297165,0.2540944063601131
1761283373.2719522,-0.06339959653367107,0.9789542878482818,-0.08951306702931618,0.26411610543856145,-0.5007795053092751,0.1800228421943806
1761283373.2819872,-0.06306668480695471,0.979491747202353,-0.08961093204257418,0.24878994733741683,-0.5520676431848374,0.11308246902421298
1761283373.292018,-0.0628685447348659,0.9801619586602127,-0.08974662492903267,0.23299718526052335,-0.5977326205549425,0.05632369225445449
1761283373.3019972,-0.06282278615245801,0.9809083578060397,-0.08989891332922675,0.21760165226003395,-0.6350751087882711,0.011446162316053438
1761283373.3120131,-0.06292706630404853,0.9816648527292718,-0.09004091170361893,0.2033466871725835,-0.6619549275666441,-0.021299823229989027
1761283373.3219488,-0.0631565200648379,0.9823632789050017,-0.09014912837957544,0.1907291081553839,-0.6769394835503224,-0.043002838633362794
1761283373.3319676,-0.06346502051824641,0.9829398439781616,-0.09021038579184411,0.17993241171657592,-0.6794054386725338,-0.05579403598205031
1761283373.3419828,-0.06379083390424843,0.9833398620755116,-0.09022462719590692,0.1708360241560183,-0.6695861991400824,-0.06242054109089363
1761283373.351989,-0.06406632496469453,0.9835211043057854,-0.09020322459801881,0.16309730730073982,-0.648560539515108,-0.06576667753008228
1761283373.362153,-0.06423011720363037,0.9834565457761144,-0.09016391475187373,0.15628253563611172,-0.6181794032937262,-0.0684086682266678
1761283373.371919,-0.0642389131011677,0.9831367762228932,-0.09012444668788057,0.15000878910723026,-0.5809290808620675,-0.072278362601715
1761283373.3821435,-0.06407578067214288,0.9825714607044161,-0.09009714906470288,0.1440549502035405,-0.5397310911477947,-0.07848543983000585
1761283373.3920202,-0.06375263994744303,0.9817889166941176,-0.0900859739740534,0.13840815172184198,-0.49768435074499817,-0.08731169429247254
1761283373.402137,-0.06330662496291449,0.9808334618178806,-0.09008657055089107,0.13323057662382404,-0.4577654818342235,-0.09835510773345792
1761283373.4121037,-0.06279205425179847,0.9797612407332591,-0.09008905472638487,0.1287558641717807,-0.42251783389523034,-0.1107747959416971
1761283373.4220471,-0.06227100992821618,0.978635897519795,-0.09008257315214803,0.1251471989501574,-0.3937742115116297,-0.12357546251175616
1761283373.4319825,-0.06180536820464956,0.9775251065024274,-0.09006045611408858,0.12236242012244236,-0.372464781937401,-0.1358713748881316
1761283373.4425793,-0.06145156802649547,0.976497842973609,-0.09002463085436606,0.12007021488518028,-0.35855371595156754,-0.14708184531925927
1761283373.4520497,-0.06125742775002253,0.9756213137525567,-0.0899880577263783,0.11764649128870475,-0.35112448344725444,-0.15702847371300954
1761283373.4619865,-0.06125926154602498,0.9749565069634819,-0.08997432692823949,0.11425695634161201,-0.3486001133789246,-0.16592456742967418
1761283373.4727812,-0.06147807397112491,0.974552363186566,-0.09001419612804872,0.10900796765068772,-0.3490523758510035,-0.17426604953326416
1761283373.4823177,-0.06191525783358841,0.9744398040276239,-0.09013965032131924,0.101129640169072,-0.3505343332668125,-0.18264992220779117
1761283373.4919863,-0.06254968777645468,0.9746273223377354,-0.09037679733751322,0.0901479324295374,-0.3513700789302336,-0.19156053072391338
1761283373.5020256,-0.06333816412190371,0.9750992208553133,-0.09073924738522977,0.07600730670147239,-0.35035220905601017,-0.2011727818343816
1761283373.5119734,-0.06421978785519662,0.9758165075307798,-0.09122339976610484,0.05911920187881545,-0.34682491865000065,-0.21122102319721658
1761283373.5224936,-0.06512329138575106,0.9767199217403925,-0.09180650824124442,0.040327848008966875,-0.34065977656570834,-0.22097066990708406
1761283373.5320911,-0.06597574916166266,0.9777348721156384,-0.09244791289439334,0.020798963948887417,-0.33215389028293557,-0.2293088090244984
1761283373.5420148,-0.06671136509788103,0.9787784737896421,-0.09309348587515724,0.0018475088199596374,-0.3218909385080788,-0.2349439631617513
1761283373.5520623,-0.06727943720593725,0.9797685693210513,-0.09368285739773856,-0.015270603070879714,-0.31060320494476856,-0.23667872115662006
1761283373.5620131,-0.06765073340291367,0.9806337019042287,-0.0941582485707551,-0.02957042558563686,-0.2990596534916732,-0.23369787237263343
1761283373.57204,-0.06782141577008284,0.9813222535794637,-0.09447312858777066,-0.04051688351558218,-0.28798650046927304,-0.22580557287593991
1761283373.5831614,-0.06781353386016757,0.9818088602697596,-0.09459894305963877,-0.04813592456646435,-0.27800988313799946,-0.21355242654747542
1761283373.5921404,-0.06767135293886266,0.9820966605211008,-0.09452884763175304,-0.053032536961158686,-0.2696018754797956,-0.1982164821147684
1761283373.6026745,-0.06745371180848471,0.9822146960397664,-0.09427820184238411,-0.05630576004003865,-0.2630146835046757,-0.18163521917550723
1761283373.6126814,-0.06722392290764408,0.9822107855357716,-0.09388197445415114,-0.05936986633816055,-0.2582017916242785,-0.16592044218507593
1761283373.6224666,-0.0670395936804457,0.9821412856124498,-0.09338918868024162,-0.06371024034122512,-0.2547428879986604,-0.1531160420175685
1761283373.6323786,-0.06694460214878901,0.982059988875557,-0.09285469974061081,-0.070618039995223,-0.2518029797849043,-0.14487198169626106
1761283373.6423187,-0.06696447949340915,0.9820086105600032,-0.09232937693598484,-0.080954842282238,-0.24815787237030618,-0.14220200444481662
1761283373.6519883,-0.06710524012988643,0.9820107220687518,-0.09185076874273372,-0.0949935970325454,-0.24230532823979115,-0.1453688531939282
1761283373.662025,-0.06735484665637817,0.9820699294719281,-0.09143675821409972,-0.11236529446565875,-0.2326570009820634,-0.15390679714041192
1761283373.6726635,-0.06768628494939713,0.9821721647393298,-0.09108410217775341,-0.13211659901419065,-0.2177790944962412,-0.16675792337947362
1761283373.6832027,-0.06806144425086479,0.9822913644943031,-0.09077220659867535,-0.15286065482115138,-0.19663024930574047,-0.18247630462373976
1761283373.6921048,-0.06843523886085467,0.9823972665313546,-0.09047066409625486,-0.17298888517155586,-0.16874157277913876,-0.1994486331789155
1761283373.7025611,-0.06875962032842886,0.9824634278216146,-0.0901479134063867,-0.19090805130636268,-0.13429724174459498,-0.21609026420243665
1761283373.7126665,-0.06898752917078385,0.9824732713541259,-0.08977849977902815,-0.20527045257084744,-0.09409874796322136,-0.23099509616774624
1761283373.7227616,-0.06907726710137439,0.9824225074583387,-0.08934755580680707,-0.21517069285306603,-0.04942320650549961,-0.24303741929528683
1761283373.732147,-0.06899770389957774,0.9823175962869801,-0.08885238791221081,-0.22028700773392262,-0.00180968439957385,-0.25143639216684477
1761283373.742038,-0.06873401526898676,0.9821713706307298,-0.08830180289702903,-0.22094890719597535,0.047177028359222745,-0.2557957873180593
1761283373.7520518,-0.06829278071899286,0.981997790840278,-0.08771406851261128,-0.21811792968421917,0.09615122748533812,-0.2561247416607627
1761283373.7620153,-0.06770482716387215,0.9818077307117352,-0.08711440852014807,-0.21327665901802184,0.1440332122073005,-0.2528348057032286
1761283373.772097,-0.06702437579908417,0.9816068824431285,-0.08653273747166841,-0.20823300999214786,0.19007055155474664,-0.24670048776873352
1761283373.7821538,-0.06632381869232955,0.9813958500848352,-0.08600201040234076,-0.20486066169804354,0.2337523573181866,-0.23876906032725964
1761283373.7920103,-0.06568468562694109,0.9811718295916023,-0.08555722004188121,-0.20481038628654982,0.2746424522677481,-0.23021307260781554
1761283373.8020332,-0.06518654261262405,0.9809310891538826,-0.0852346177256608,-0.20923807987280169,0.31217701570734746,-0.22213554097064903
1761283373.8119838,-0.0648959896368674,0.9806714123492959,-0.08507011499347766,-0.21859940339100448,0.34547951884199,-0.21535875101395366
1761283373.822004,-0.06485746579456302,0.9803935355939404,-0.08509555222299735,-0.23255414035060748,0.3732417600376276,-0.21024477088956528
1761283373.8320045,-0.06508677528229254,0.9801007362788432,-0.08533223081485299,-0.2500049975110678,0.39370877218270117,-0.20660038735936823
1761283373.8420265,-0.06556767401662952,0.9797964651666357,-0.08578267528679522,-0.2692694783680343,0.40478901711052834,-0.20370644482870262
1761283373.8520095,-0.06625167187380003,0.9794810226986164,-0.0864231458861846,-0.2883560363439242,0.4042883909032221,-0.20048334929326436
1761283373.8619835,-0.06706128584414338,0.9791490462292559,-0.08720002880465448,-0.3052932477819551,0.39023840125689413,-0.19576866454016079
1761283373.871976,-0.06789701715829342,0.9787894720789473,-0.08803248558945265,-0.31844877357014606,0.3612631039529834,-0.1886501092088456
1761283373.8820064,-0.06864798446423072,0.9783886939361237,-0.08882194809216007,-0.3267775345793042,0.31691662571744594,-0.17877774107071553
1761283373.8920405,-0.06920537746615409,0.9779362953783289,-0.08946691764879296,-0.3299556417622118,0.25792936955390405,-0.16657816298689648
1761283373.9020836,-0.06947706923168519,0.9774316056397545,-0.08987977905108593,-0.32838211771804215,0.1863236085685592,-0.15331076090073012
1761283373.9120228,-0.06940126936938443,0.9768889796024839,-0.09000153220147168,-0.32305594239691415,0.10538889056439922,-0.140936311134732
1761283373.9220262,-0.06895706939188052,0.9763401736704126,-0.08981082108347971,-0.31535633257424417,0.019533553481770022,-0.13180538111036177
1761283373.9320354,-0.06816995879478822,0.9758329933998638,-0.08932534677419003,-0.3067687819064073,-0.06595806314825309,-0.12821203418732788
1761283373.9437451,-0.06711094546762282,0.9754261866714606,-0.08859609426788133,-0.29860831928620657,-0.14523558485582833,-0.1318918500771357
1761283373.9519982,-0.06588897999766383,0.9751813319311573,-0.08769678638248814,-0.2917923175734157,-0.21224567852265355,-0.14356545249933814
1761283373.9627333,-0.06463775050196631,0.9751531385899936,-0.08671177806189459,-0.2867050875959887,-0.2611468074200409,-0.16263207316903341
1761283373.9720361,-0.06349902475231597,0.9753799151614057,-0.0857251130894184,-0.2831762919937853,-0.28677698692772247,-0.18709676241110643
1761283373.9820125,-0.06260516519123359,0.9758758547105506,-0.08481224100978957,-0.2805704605482829,-0.2851654220758495,-0.21377033942896795
1761283373.9920125,-0.062063219809767575,0.9766263331527594,-0.08403469898074989,-0.27796242454534675,-0.25405694422255304,-0.23872186579795582
1761283374.0020516,-0.061942374556828085,0.9775868182097622,-0.08343733937858804,-0.27435802489017885,-0.193389925875129,-0.25790448682247236
1761283374.0120416,-0.06226592425594924,0.9786854315430387,-0.08304736917278338,-0.26891305090965983,-0.10564338873244404,-0.2678335711393826
1761283374.0219727,-0.06300858907555527,0.9798288874880827,-0.08287449724761896,-0.26110666540913,0.004040359725948348,-0.2661835463479978
1761283374.0319743,-0.06409995827904741,0.9809115529569737,-0.08291199064367794,-0.25083819742013663,0.12803571273828437,-0.25218998240764157
1761283374.0421972,-0.06543457474853118,0.9818274618208646,-0.0831390875310377,-0.2384357150552584,0.2567531515979585,-0.2267889931157604
1761283374.0519786,-0.06688806298729036,0.9824847179208454,-0.08352515618554174,-0.22458582001113087,0.37947538970880335,-0.19248215267754418
1761283374.0623279,-0.06833681987387763,0.9828205584296081,-0.08403497234345149,-0.21020973219403136,0.4854237258861261,-0.152966371928881
1761283374.072465,-0.06967708467239127,0.9828138864678052,-0.08463342197950034,-0.19631654542742333,0.5649153914852952,-0.11260439949068282
1761283374.082521,-0.07083872788976438,0.9824914154249265,-0.08528797829177309,-0.18386129897956058,0.6104444021342554,-0.07582971833445572
1761283374.09252,-0.07179022116245476,0.9819246176267089,-0.08596857392327861,-0.17362738513319603,0.6175209016208459,-0.046580757655852185
1761283374.1028488,-0.07253367713297486,0.9812172672100263,-0.08664592578138412,-0.16614352818020756,0.5851374806988482,-0.02784530301752256
1761283374.112149,-0.07309185481923794,0.9804862991415011,-0.08728987057214133,-0.16163693542231128,0.5157920781162625,-0.02136907455868471
1761283374.1223118,-0.07349155425939957,0.9798406545880313,-0.0878687894673175,-0.16001746802179784,0.4150761789170146,-0.027548271262787662
1761283374.1324146,-0.07374884683340999,0.979363059290262,-0.0883504678888457,-0.16088489007577403,0.29091553145577465,-0.04549339047027483
1761283374.1422255,-0.07386072526077933,0.9790983925230311,-0.08870423580949321,-0.1635542937328449,0.15260703438990791,-0.07322887498240238
1761283374.1520126,-0.07380546336694105,0.9790502074139228,-0.08890392499928615,-0.1671020672075957,0.009816041411657069,-0.10798353764218895
